{
  "resourceType": "Bundle",
  "id": "6faa7be2-a2d0-4398-8e20-1a3d4f2bd898",
  "type": "searchset",
  "timestamp": "2023-03-16T11:48:24.727+00:00",
  "total": 137,
  "link": [
    {
      "relation": "next",
      "url": "https://erp-test.zentral.erp.splitdns.ti-dienste.de/Communication?received=eqNULL&_sort=-sent&_count=50&__offset=50"
    },
    {
      "relation": "self",
      "url": "https://erp-test.zentral.erp.splitdns.ti-dienste.de/Communication?received=eqNULL&_sort=-sent"
    }
  ],
  "entry": [
    {
      "fullUrl": "https://erp-test.zentral.erp.splitdns.ti-dienste.de/Communication/01eba0e0-e2d8-8c08-687e-ab124c510db1",
      "resource": {
        "resourceType": "Communication",
        "id": "01eba0e0-e2d8-8c08-687e-ab124c510db1",
        "meta": {
          "profile": [
            "https://gematik.de/fhir/StructureDefinition/ErxCommunicationReply"
          ]
        },
        "basedOn": [
          {
            "reference": "Task/160.000.006.300.804.35"
          }
        ],
        "status": "unknown",
        "sent": "2023-03-16T11:48:23.893+00:00",
        "received": "2023-03-16T11:48:24.698+00:00",
        "recipient": [
          {
            "identifier": {
              "system": "http://fhir.de/NamingSystem/gkv/kvid-10",
              "value": "X110498565"
            }
          }
        ],
        "sender": {
          "identifier": {
            "system": "https://gematik.de/fhir/NamingSystem/TelematikID",
            "value": "3-SMC-B-Testkarte-883110000116873"
          }
        },
        "payload": [
          {
            "extension": [
              {
                "url": "https://gematik.de/fhir/StructureDefinition/AvailabilityStateExtension",
                "valueCoding": {
                  "system": "https://gematik.de/fhir/CodeSystem/AvailabilityStatus",
                  "code": "30"
                }
              },
              {
                "url": "https://gematik.de/fhir/StructureDefinition/SupplyOptionsType",
                "extension": [
                  {
                    "url": "onPremise",
                    "valueBoolean": true
                  },
                  {
                    "url": "delivery",
                    "valueBoolean": false
                  },
                  {
                    "url": "shipment",
                    "valueBoolean": false
                  }
                ]
              }
            ],
            "contentString": "All dwarfs are bastards in their father's eyes"
          }
        ]
      },
      "search": {
        "mode": "match"
      }
    },
    {
      "fullUrl": "https://erp-test.zentral.erp.splitdns.ti-dienste.de/Communication/01eba0e0-a270-e430-729c-bf4d18a05862",
      "resource": {
        "resourceType": "Communication",
        "id": "01eba0e0-a270-e430-729c-bf4d18a05862",
        "meta": {
          "profile": [
            "https://gematik.de/fhir/StructureDefinition/ErxCommunicationInfoReq"
          ]
        },
        "contained": [
          {
            "resourceType": "Medication",
            "id": "9b26be89-862f-43c3-b37c-e2b141f410f2",
            "meta": {
              "profile": [
                "https://fhir.kbv.de/StructureDefinition/KBV_PR_ERP_Medication_PZN|1.0.2"
              ]
            },
            "extension": [
              {
                "url": "https://fhir.kbv.de/StructureDefinition/KBV_EX_ERP_Medication_Category",
                "valueCoding": {
                  "system": "https://fhir.kbv.de/CodeSystem/KBV_CS_ERP_Medication_Category",
                  "code": "00"
                }
              },
              {
                "url": "https://fhir.kbv.de/StructureDefinition/KBV_EX_ERP_Medication_Vaccine",
                "valueBoolean": false
              },
              {
                "url": "http://fhir.de/StructureDefinition/normgroesse",
                "valueCode": "NB"
              }
            ],
            "code": {
              "coding": [
                {
                  "system": "http://fhir.de/CodeSystem/ifa/pzn",
                  "code": "12345678"
                }
              ],
              "text": "Schmerzmittel"
            },
            "form": {
              "coding": [
                {
                  "system": "https://fhir.kbv.de/CodeSystem/KBV_CS_SFHIR_KBV_DARREICHUNGSFORM",
                  "code": "TAB"
                }
              ]
            },
            "amount": {
              "numerator": {
                "value": 1,
                "unit": "Stk"
              },
              "denominator": {
                "value": 1
              }
            }
          }
        ],
        "basedOn": [
          {
            "reference": "Task/160.000.006.300.755.85"
          }
        ],
        "status": "unknown",
        "about": [
          {
            "reference": "#9b26be89-862f-43c3-b37c-e2b141f410f2"
          }
        ],
        "sent": "2023-03-16T11:30:23.358+00:00",
        "recipient": [
          {
            "identifier": {
              "system": "https://gematik.de/fhir/NamingSystem/TelematikID",
              "value": "1-2-ARZT-BerndClaudius01"
            }
          }
        ],
        "sender": {
          "identifier": {
            "system": "http://fhir.de/NamingSystem/gkv/kvid-10",
            "value": "X110498565"
          }
        },
        "payload": [
          {
            "extension": [
              {
                "url": "https://gematik.de/fhir/StructureDefinition/InsuranceProvider",
                "valueIdentifier": {
                  "system": "http://fhir.de/NamingSystem/arge-ik/iknr",
                  "value": "158350546"
                }
              },
              {
                "url": "https://gematik.de/fhir/StructureDefinition/SubstitutionAllowedType",
                "valueBoolean": true
              },
              {
                "url": "https://gematik.de/fhir/StructureDefinition/PrescriptionType",
                "valueCoding": {
                  "system": "https://gematik.de/fhir/CodeSystem/Flowtype",
                  "code": "160",
                  "display": "Muster 16 (Apothekenpflichtige Arzneimittel)"
                }
              }
            ],
            "contentString": "Here I am, brain the size of a planet, and they tell me to take you up to the bridge. Call that job satisfaction? 'Cos I don't."
          }
        ]
      },
      "search": {
        "mode": "match"
      }
    },
    {
      "fullUrl": "https://erp-test.zentral.erp.splitdns.ti-dienste.de/Communication/01eba0e0-a1aa-92a8-e106-b7a96dff7f98",
      "resource": {
        "resourceType": "Communication",
        "id": "01eba0e0-a1aa-92a8-e106-b7a96dff7f98",
        "meta": {
          "profile": [
            "https://gematik.de/fhir/StructureDefinition/ErxCommunicationReply"
          ]
        },
        "basedOn": [
          {
            "reference": "Task/160.000.006.300.753.91"
          }
        ],
        "status": "unknown",
        "sent": "2023-03-16T11:30:10.361+00:00",
        "received": "2023-03-16T11:48:24.698+00:00",
        "recipient": [
          {
            "identifier": {
              "system": "http://fhir.de/NamingSystem/gkv/kvid-10",
              "value": "X110498565"
            }
          }
        ],
        "sender": {
          "identifier": {
            "system": "https://gematik.de/fhir/NamingSystem/TelematikID",
            "value": "3-SMC-B-Testkarte-883110000116873"
          }
        },
        "payload": [
          {
            "extension": [
              {
                "url": "https://gematik.de/fhir/StructureDefinition/AvailabilityStateExtension",
                "valueCoding": {
                  "system": "https://gematik.de/fhir/CodeSystem/AvailabilityStatus",
                  "code": "30"
                }
              },
              {
                "url": "https://gematik.de/fhir/StructureDefinition/SupplyOptionsType",
                "extension": [
                  {
                    "url": "onPremise",
                    "valueBoolean": true
                  },
                  {
                    "url": "delivery",
                    "valueBoolean": false
                  },
                  {
                    "url": "shipment",
                    "valueBoolean": false
                  }
                ]
              }
            ],
            "contentString": "When you play a game of thrones you win or you die."
          }
        ]
      },
      "search": {
        "mode": "match"
      }
    },
    {
      "fullUrl": "https://erp-test.zentral.erp.splitdns.ti-dienste.de/Communication/01eba0e0-5aba-6aa8-42ad-a24d95fc35c3",
      "resource": {
        "resourceType": "Communication",
        "id": "01eba0e0-5aba-6aa8-42ad-a24d95fc35c3",
        "meta": {
          "profile": [
            "https://gematik.de/fhir/StructureDefinition/ErxCommunicationInfoReq"
          ]
        },
        "contained": [
          {
            "resourceType": "Medication",
            "id": "0707b73f-a5e3-44ba-a449-b05b04fa74dc",
            "meta": {
              "profile": [
                "https://fhir.kbv.de/StructureDefinition/KBV_PR_ERP_Medication_PZN|1.0.2"
              ]
            },
            "extension": [
              {
                "url": "https://fhir.kbv.de/StructureDefinition/KBV_EX_ERP_Medication_Category",
                "valueCoding": {
                  "system": "https://fhir.kbv.de/CodeSystem/KBV_CS_ERP_Medication_Category",
                  "code": "00"
                }
              },
              {
                "url": "https://fhir.kbv.de/StructureDefinition/KBV_EX_ERP_Medication_Vaccine",
                "valueBoolean": false
              },
              {
                "url": "http://fhir.de/StructureDefinition/normgroesse",
                "valueCode": "NB"
              }
            ],
            "code": {
              "coding": [
                {
                  "system": "http://fhir.de/CodeSystem/ifa/pzn",
                  "code": "12345678"
                }
              ],
              "text": "Schmerzmittel"
            },
            "form": {
              "coding": [
                {
                  "system": "https://fhir.kbv.de/CodeSystem/KBV_CS_SFHIR_KBV_DARREICHUNGSFORM",
                  "code": "TAB"
                }
              ]
            },
            "amount": {
              "numerator": {
                "value": 1,
                "unit": "Stk"
              },
              "denominator": {
                "value": 1
              }
            }
          }
        ],
        "basedOn": [
          {
            "reference": "Task/160.000.006.300.699.59"
          }
        ],
        "status": "unknown",
        "about": [
          {
            "reference": "#0707b73f-a5e3-44ba-a449-b05b04fa74dc"
          }
        ],
        "sent": "2023-03-16T11:10:20.217+00:00",
        "recipient": [
          {
            "identifier": {
              "system": "https://gematik.de/fhir/NamingSystem/TelematikID",
              "value": "1-2-ARZT-BerndClaudius01"
            }
          }
        ],
        "sender": {
          "identifier": {
            "system": "http://fhir.de/NamingSystem/gkv/kvid-10",
            "value": "X110498565"
          }
        },
        "payload": [
          {
            "extension": [
              {
                "url": "https://gematik.de/fhir/StructureDefinition/InsuranceProvider",
                "valueIdentifier": {
                  "system": "http://fhir.de/NamingSystem/arge-ik/iknr",
                  "value": "922922941"
                }
              },
              {
                "url": "https://gematik.de/fhir/StructureDefinition/SubstitutionAllowedType",
                "valueBoolean": true
              },
              {
                "url": "https://gematik.de/fhir/StructureDefinition/PrescriptionType",
                "valueCoding": {
                  "system": "https://gematik.de/fhir/CodeSystem/Flowtype",
                  "code": "160",
                  "display": "Muster 16 (Apothekenpflichtige Arzneimittel)"
                }
              }
            ],
            "contentString": "You think you've got problems? What are you supposed to do if you are a manically depressed robot? No, don't try to answer that. I'm fifty thousand times more intelligent than you and even I don't know the answer. It gives me a headache just trying to think down to your level."
          }
        ]
      },
      "search": {
        "mode": "match"
      }
    },
    {
      "fullUrl": "https://erp-test.zentral.erp.splitdns.ti-dienste.de/Communication/01eba0d6-ac79-e030-3e18-63c07ee72d44",
      "resource": {
        "resourceType": "Communication",
        "id": "01eba0d6-ac79-e030-3e18-63c07ee72d44",
        "meta": {
          "profile": [
            "https://gematik.de/fhir/StructureDefinition/ErxCommunicationInfoReq"
          ]
        },
        "contained": [
          {
            "resourceType": "Medication",
            "id": "cbcfafc3-684d-4bb3-bea8-1e129f57a66e",
            "meta": {
              "profile": [
                "https://fhir.kbv.de/StructureDefinition/KBV_PR_ERP_Medication_PZN|1.0.2"
              ]
            },
            "extension": [
              {
                "url": "https://fhir.kbv.de/StructureDefinition/KBV_EX_ERP_Medication_Category",
                "valueCoding": {
                  "system": "https://fhir.kbv.de/CodeSystem/KBV_CS_ERP_Medication_Category",
                  "code": "00"
                }
              },
              {
                "url": "https://fhir.kbv.de/StructureDefinition/KBV_EX_ERP_Medication_Vaccine",
                "valueBoolean": false
              },
              {
                "url": "http://fhir.de/StructureDefinition/normgroesse",
                "valueCode": "NB"
              }
            ],
            "code": {
              "coding": [
                {
                  "system": "http://fhir.de/CodeSystem/ifa/pzn",
                  "code": "12345678"
                }
              ],
              "text": "Schmerzmittel"
            },
            "form": {
              "coding": [
                {
                  "system": "https://fhir.kbv.de/CodeSystem/KBV_CS_SFHIR_KBV_DARREICHUNGSFORM",
                  "code": "TAB"
                }
              ]
            },
            "amount": {
              "numerator": {
                "value": 1,
                "unit": "Stk"
              },
              "denominator": {
                "value": 1
              }
            }
          }
        ],
        "basedOn": [
          {
            "reference": "Task/160.000.006.300.410.53"
          }
        ],
        "status": "unknown",
        "about": [
          {
            "reference": "#cbcfafc3-684d-4bb3-bea8-1e129f57a66e"
          }
        ],
        "sent": "2023-03-15T23:37:22.046+00:00",
        "recipient": [
          {
            "identifier": {
              "system": "https://gematik.de/fhir/NamingSystem/TelematikID",
              "value": "1-2-ARZT-BerndClaudius01"
            }
          }
        ],
        "sender": {
          "identifier": {
            "system": "http://fhir.de/NamingSystem/gkv/kvid-10",
            "value": "X110498565"
          }
        },
        "payload": [
          {
            "extension": [
              {
                "url": "https://gematik.de/fhir/StructureDefinition/InsuranceProvider",
                "valueIdentifier": {
                  "system": "http://fhir.de/NamingSystem/arge-ik/iknr",
                  "value": "746751226"
                }
              },
              {
                "url": "https://gematik.de/fhir/StructureDefinition/SubstitutionAllowedType",
                "valueBoolean": true
              },
              {
                "url": "https://gematik.de/fhir/StructureDefinition/PrescriptionType",
                "valueCoding": {
                  "system": "https://gematik.de/fhir/CodeSystem/Flowtype",
                  "code": "160",
                  "display": "Muster 16 (Apothekenpflichtige Arzneimittel)"
                }
              }
            ],
            "contentString": "Pardon me for breathing, which I never do anyway so I don't know why I bother to say it, Oh God, I'm so depressed."
          }
        ]
      },
      "search": {
        "mode": "match"
      }
    },
    {
      "fullUrl": "https://erp-test.zentral.erp.splitdns.ti-dienste.de/Communication/01eba0ce-cc19-2458-8f5c-f68ca19963ab",
      "resource": {
        "resourceType": "Communication",
        "id": "01eba0ce-cc19-2458-8f5c-f68ca19963ab",
        "meta": {
          "profile": [
            "https://gematik.de/fhir/StructureDefinition/ErxCommunicationInfoReq"
          ]
        },
        "contained": [
          {
            "resourceType": "Medication",
            "id": "a559d450-9929-436b-a60f-a8ad41185080",
            "meta": {
              "profile": [
                "https://fhir.kbv.de/StructureDefinition/KBV_PR_ERP_Medication_PZN|1.0.2"
              ]
            },
            "extension": [
              {
                "url": "https://fhir.kbv.de/StructureDefinition/KBV_EX_ERP_Medication_Category",
                "valueCoding": {
                  "system": "https://fhir.kbv.de/CodeSystem/KBV_CS_ERP_Medication_Category",
                  "code": "00"
                }
              },
              {
                "url": "https://fhir.kbv.de/StructureDefinition/KBV_EX_ERP_Medication_Vaccine",
                "valueBoolean": false
              },
              {
                "url": "http://fhir.de/StructureDefinition/normgroesse",
                "valueCode": "NB"
              }
            ],
            "code": {
              "coding": [
                {
                  "system": "http://fhir.de/CodeSystem/ifa/pzn",
                  "code": "12345678"
                }
              ],
              "text": "Schmerzmittel"
            },
            "form": {
              "coding": [
                {
                  "system": "https://fhir.kbv.de/CodeSystem/KBV_CS_SFHIR_KBV_DARREICHUNGSFORM",
                  "code": "TAB"
                }
              ]
            },
            "amount": {
              "numerator": {
                "value": 1,
                "unit": "Stk"
              },
              "denominator": {
                "value": 1
              }
            }
          }
        ],
        "basedOn": [
          {
            "reference": "Task/160.000.006.300.345.54"
          }
        ],
        "status": "unknown",
        "about": [
          {
            "reference": "#a559d450-9929-436b-a60f-a8ad41185080"
          }
        ],
        "sent": "2023-03-15T14:13:32.839+00:00",
        "recipient": [
          {
            "identifier": {
              "system": "https://gematik.de/fhir/NamingSystem/TelematikID",
              "value": "1-2-ARZT-BerndClaudius01"
            }
          }
        ],
        "sender": {
          "identifier": {
            "system": "http://fhir.de/NamingSystem/gkv/kvid-10",
            "value": "X110498565"
          }
        },
        "payload": [
          {
            "extension": [
              {
                "url": "https://gematik.de/fhir/StructureDefinition/InsuranceProvider",
                "valueIdentifier": {
                  "system": "http://fhir.de/NamingSystem/arge-ik/iknr",
                  "value": "356461246"
                }
              },
              {
                "url": "https://gematik.de/fhir/StructureDefinition/SubstitutionAllowedType",
                "valueBoolean": true
              },
              {
                "url": "https://gematik.de/fhir/StructureDefinition/PrescriptionType",
                "valueCoding": {
                  "system": "https://gematik.de/fhir/CodeSystem/Flowtype",
                  "code": "160",
                  "display": "Muster 16 (Apothekenpflichtige Arzneimittel)"
                }
              }
            ],
            "contentString": "You think you've got problems? What are you supposed to do if you are a manically depressed robot? No, don't try to answer that. I'm fifty thousand times more intelligent than you and even I don't know the answer. It gives me a headache just trying to think down to your level."
          }
        ]
      },
      "search": {
        "mode": "match"
      }
    },
    {
      "fullUrl": "https://erp-test.zentral.erp.splitdns.ti-dienste.de/Communication/01eba0cd-f0ba-1980-625b-d9e72567cc3b",
      "resource": {
        "resourceType": "Communication",
        "id": "01eba0cd-f0ba-1980-625b-d9e72567cc3b",
        "meta": {
          "profile": [
            "https://gematik.de/fhir/StructureDefinition/ErxCommunicationInfoReq"
          ]
        },
        "contained": [
          {
            "resourceType": "Medication",
            "id": "3856fa94-1bfc-48ba-9a0b-ca8b72ac49e0",
            "meta": {
              "profile": [
                "https://fhir.kbv.de/StructureDefinition/KBV_PR_ERP_Medication_PZN|1.0.2"
              ]
            },
            "extension": [
              {
                "url": "https://fhir.kbv.de/StructureDefinition/KBV_EX_ERP_Medication_Category",
                "valueCoding": {
                  "system": "https://fhir.kbv.de/CodeSystem/KBV_CS_ERP_Medication_Category",
                  "code": "00"
                }
              },
              {
                "url": "https://fhir.kbv.de/StructureDefinition/KBV_EX_ERP_Medication_Vaccine",
                "valueBoolean": false
              },
              {
                "url": "http://fhir.de/StructureDefinition/normgroesse",
                "valueCode": "NB"
              }
            ],
            "code": {
              "coding": [
                {
                  "system": "http://fhir.de/CodeSystem/ifa/pzn",
                  "code": "12345678"
                }
              ],
              "text": "Schmerzmittel"
            },
            "form": {
              "coding": [
                {
                  "system": "https://fhir.kbv.de/CodeSystem/KBV_CS_SFHIR_KBV_DARREICHUNGSFORM",
                  "code": "TAB"
                }
              ]
            },
            "amount": {
              "numerator": {
                "value": 1,
                "unit": "Stk"
              },
              "denominator": {
                "value": 1
              }
            }
          }
        ],
        "basedOn": [
          {
            "reference": "Task/160.000.006.300.277.64"
          }
        ],
        "status": "unknown",
        "about": [
          {
            "reference": "#3856fa94-1bfc-48ba-9a0b-ca8b72ac49e0"
          }
        ],
        "sent": "2023-03-15T13:12:12.400+00:00",
        "recipient": [
          {
            "identifier": {
              "system": "https://gematik.de/fhir/NamingSystem/TelematikID",
              "value": "1-2-ARZT-BerndClaudius01"
            }
          }
        ],
        "sender": {
          "identifier": {
            "system": "http://fhir.de/NamingSystem/gkv/kvid-10",
            "value": "X110498565"
          }
        },
        "payload": [
          {
            "extension": [
              {
                "url": "https://gematik.de/fhir/StructureDefinition/InsuranceProvider",
                "valueIdentifier": {
                  "system": "http://fhir.de/NamingSystem/arge-ik/iknr",
                  "value": "140988130"
                }
              },
              {
                "url": "https://gematik.de/fhir/StructureDefinition/SubstitutionAllowedType",
                "valueBoolean": true
              },
              {
                "url": "https://gematik.de/fhir/StructureDefinition/PrescriptionType",
                "valueCoding": {
                  "system": "https://gematik.de/fhir/CodeSystem/Flowtype",
                  "code": "160",
                  "display": "Muster 16 (Apothekenpflichtige Arzneimittel)"
                }
              }
            ],
            "contentString": "Here I am, brain the size of a planet, and they tell me to take you up to the bridge. Call that job satisfaction? 'Cos I don't."
          }
        ]
      },
      "search": {
        "mode": "match"
      }
    },
    {
      "fullUrl": "https://erp-test.zentral.erp.splitdns.ti-dienste.de/Communication/01eba0c2-9a49-ab98-cebe-e9d50ea3f8d5",
      "resource": {
        "resourceType": "Communication",
        "id": "01eba0c2-9a49-ab98-cebe-e9d50ea3f8d5",
        "meta": {
          "profile": [
            "https://gematik.de/fhir/StructureDefinition/ErxCommunicationInfoReq"
          ]
        },
        "contained": [
          {
            "resourceType": "Medication",
            "id": "e3e2bf06-ce84-4764-90d8-570aaba29941",
            "meta": {
              "profile": [
                "https://fhir.kbv.de/StructureDefinition/KBV_PR_ERP_Medication_PZN|1.0.2"
              ]
            },
            "extension": [
              {
                "url": "https://fhir.kbv.de/StructureDefinition/KBV_EX_ERP_Medication_Category",
                "valueCoding": {
                  "system": "https://fhir.kbv.de/CodeSystem/KBV_CS_ERP_Medication_Category",
                  "code": "00"
                }
              },
              {
                "url": "https://fhir.kbv.de/StructureDefinition/KBV_EX_ERP_Medication_Vaccine",
                "valueBoolean": false
              },
              {
                "url": "http://fhir.de/StructureDefinition/normgroesse",
                "valueCode": "NB"
              }
            ],
            "code": {
              "coding": [
                {
                  "system": "http://fhir.de/CodeSystem/ifa/pzn",
                  "code": "12345678"
                }
              ],
              "text": "Schmerzmittel"
            },
            "form": {
              "coding": [
                {
                  "system": "https://fhir.kbv.de/CodeSystem/KBV_CS_SFHIR_KBV_DARREICHUNGSFORM",
                  "code": "TAB"
                }
              ]
            },
            "amount": {
              "numerator": {
                "value": 1,
                "unit": "Stk"
              },
              "denominator": {
                "value": 1
              }
            }
          }
        ],
        "basedOn": [
          {
            "reference": "Task/160.000.006.299.992.46"
          }
        ],
        "status": "unknown",
        "about": [
          {
            "reference": "#e3e2bf06-ce84-4764-90d8-570aaba29941"
          }
        ],
        "sent": "2023-03-14T23:40:37.551+00:00",
        "recipient": [
          {
            "identifier": {
              "system": "https://gematik.de/fhir/NamingSystem/TelematikID",
              "value": "1-2-ARZT-BerndClaudius01"
            }
          }
        ],
        "sender": {
          "identifier": {
            "system": "http://fhir.de/NamingSystem/gkv/kvid-10",
            "value": "X110498565"
          }
        },
        "payload": [
          {
            "extension": [
              {
                "url": "https://gematik.de/fhir/StructureDefinition/InsuranceProvider",
                "valueIdentifier": {
                  "system": "http://fhir.de/NamingSystem/arge-ik/iknr",
                  "value": "540540041"
                }
              },
              {
                "url": "https://gematik.de/fhir/StructureDefinition/SubstitutionAllowedType",
                "valueBoolean": true
              },
              {
                "url": "https://gematik.de/fhir/StructureDefinition/PrescriptionType",
                "valueCoding": {
                  "system": "https://gematik.de/fhir/CodeSystem/Flowtype",
                  "code": "160",
                  "display": "Muster 16 (Apothekenpflichtige Arzneimittel)"
                }
              }
            ],
            "contentString": "I think you ought to know I'm feeling very depressed."
          }
        ]
      },
      "search": {
        "mode": "match"
      }
    },
    {
      "fullUrl": "https://erp-test.zentral.erp.splitdns.ti-dienste.de/Communication/01eba0ba-3df5-75f0-81a6-0cbbbf608f32",
      "resource": {
        "resourceType": "Communication",
        "id": "01eba0ba-3df5-75f0-81a6-0cbbbf608f32",
        "meta": {
          "profile": [
            "https://gematik.de/fhir/StructureDefinition/ErxCommunicationInfoReq"
          ]
        },
        "contained": [
          {
            "resourceType": "Medication",
            "id": "16b3bd1f-c69a-4c04-9a22-2a0c13c82d92",
            "meta": {
              "profile": [
                "https://fhir.kbv.de/StructureDefinition/KBV_PR_ERP_Medication_PZN|1.0.2"
              ]
            },
            "extension": [
              {
                "url": "https://fhir.kbv.de/StructureDefinition/KBV_EX_ERP_Medication_Category",
                "valueCoding": {
                  "system": "https://fhir.kbv.de/CodeSystem/KBV_CS_ERP_Medication_Category",
                  "code": "00"
                }
              },
              {
                "url": "https://fhir.kbv.de/StructureDefinition/KBV_EX_ERP_Medication_Vaccine",
                "valueBoolean": false
              },
              {
                "url": "http://fhir.de/StructureDefinition/normgroesse",
                "valueCode": "NB"
              }
            ],
            "code": {
              "coding": [
                {
                  "system": "http://fhir.de/CodeSystem/ifa/pzn",
                  "code": "12345678"
                }
              ],
              "text": "Schmerzmittel"
            },
            "form": {
              "coding": [
                {
                  "system": "https://fhir.kbv.de/CodeSystem/KBV_CS_SFHIR_KBV_DARREICHUNGSFORM",
                  "code": "TAB"
                }
              ]
            },
            "amount": {
              "numerator": {
                "value": 1,
                "unit": "Stk"
              },
              "denominator": {
                "value": 1
              }
            }
          }
        ],
        "basedOn": [
          {
            "reference": "Task/160.000.006.299.927.47"
          }
        ],
        "status": "unknown",
        "about": [
          {
            "reference": "#16b3bd1f-c69a-4c04-9a22-2a0c13c82d92"
          }
        ],
        "sent": "2023-03-14T13:42:08.790+00:00",
        "recipient": [
          {
            "identifier": {
              "system": "https://gematik.de/fhir/NamingSystem/TelematikID",
              "value": "1-2-ARZT-BerndClaudius01"
            }
          }
        ],
        "sender": {
          "identifier": {
            "system": "http://fhir.de/NamingSystem/gkv/kvid-10",
            "value": "X110498565"
          }
        },
        "payload": [
          {
            "extension": [
              {
                "url": "https://gematik.de/fhir/StructureDefinition/InsuranceProvider",
                "valueIdentifier": {
                  "system": "http://fhir.de/NamingSystem/arge-ik/iknr",
                  "value": "477632756"
                }
              },
              {
                "url": "https://gematik.de/fhir/StructureDefinition/SubstitutionAllowedType",
                "valueBoolean": true
              },
              {
                "url": "https://gematik.de/fhir/StructureDefinition/PrescriptionType",
                "valueCoding": {
                  "system": "https://gematik.de/fhir/CodeSystem/Flowtype",
                  "code": "160",
                  "display": "Muster 16 (Apothekenpflichtige Arzneimittel)"
                }
              }
            ],
            "contentString": "I won't enjoy it."
          }
        ]
      },
      "search": {
        "mode": "match"
      }
    },
    {
      "fullUrl": "https://erp-test.zentral.erp.splitdns.ti-dienste.de/Communication/01eba0b8-277f-b6c0-9f3d-e76770644ca8",
      "resource": {
        "resourceType": "Communication",
        "id": "01eba0b8-277f-b6c0-9f3d-e76770644ca8",
        "meta": {
          "profile": [
            "https://gematik.de/fhir/StructureDefinition/ErxCommunicationInfoReq"
          ]
        },
        "contained": [
          {
            "resourceType": "Medication",
            "id": "e70cc1f4-c8c4-4cc2-a097-7633f125cf3d",
            "meta": {
              "profile": [
                "https://fhir.kbv.de/StructureDefinition/KBV_PR_ERP_Medication_PZN|1.0.2"
              ]
            },
            "extension": [
              {
                "url": "https://fhir.kbv.de/StructureDefinition/KBV_EX_ERP_Medication_Category",
                "valueCoding": {
                  "system": "https://fhir.kbv.de/CodeSystem/KBV_CS_ERP_Medication_Category",
                  "code": "00"
                }
              },
              {
                "url": "https://fhir.kbv.de/StructureDefinition/KBV_EX_ERP_Medication_Vaccine",
                "valueBoolean": false
              },
              {
                "url": "http://fhir.de/StructureDefinition/normgroesse",
                "valueCode": "NB"
              }
            ],
            "code": {
              "coding": [
                {
                  "system": "http://fhir.de/CodeSystem/ifa/pzn",
                  "code": "12345678"
                }
              ],
              "text": "Schmerzmittel"
            },
            "form": {
              "coding": [
                {
                  "system": "https://fhir.kbv.de/CodeSystem/KBV_CS_SFHIR_KBV_DARREICHUNGSFORM",
                  "code": "TAB"
                }
              ]
            },
            "amount": {
              "numerator": {
                "value": 1,
                "unit": "Stk"
              },
              "denominator": {
                "value": 1
              }
            }
          }
        ],
        "basedOn": [
          {
            "reference": "Task/160.000.006.299.862.48"
          }
        ],
        "status": "unknown",
        "about": [
          {
            "reference": "#e70cc1f4-c8c4-4cc2-a097-7633f125cf3d"
          }
        ],
        "sent": "2023-03-14T11:12:42.040+00:00",
        "recipient": [
          {
            "identifier": {
              "system": "https://gematik.de/fhir/NamingSystem/TelematikID",
              "value": "1-2-ARZT-BerndClaudius01"
            }
          }
        ],
        "sender": {
          "identifier": {
            "system": "http://fhir.de/NamingSystem/gkv/kvid-10",
            "value": "X110498565"
          }
        },
        "payload": [
          {
            "extension": [
              {
                "url": "https://gematik.de/fhir/StructureDefinition/InsuranceProvider",
                "valueIdentifier": {
                  "system": "http://fhir.de/NamingSystem/arge-ik/iknr",
                  "value": "801099480"
                }
              },
              {
                "url": "https://gematik.de/fhir/StructureDefinition/SubstitutionAllowedType",
                "valueBoolean": true
              },
              {
                "url": "https://gematik.de/fhir/StructureDefinition/PrescriptionType",
                "valueCoding": {
                  "system": "https://gematik.de/fhir/CodeSystem/Flowtype",
                  "code": "160",
                  "display": "Muster 16 (Apothekenpflichtige Arzneimittel)"
                }
              }
            ],
            "contentString": "And then of course I've got this terrible pain in all the diodes down my left side."
          }
        ]
      },
      "search": {
        "mode": "match"
      }
    },
    {
      "fullUrl": "https://erp-test.zentral.erp.splitdns.ti-dienste.de/Communication/01eba0a2-30a3-8508-9649-fcece151d1c0",
      "resource": {
        "resourceType": "Communication",
        "id": "01eba0a2-30a3-8508-9649-fcece151d1c0",
        "meta": {
          "profile": [
            "https://gematik.de/fhir/StructureDefinition/ErxCommunicationInfoReq"
          ]
        },
        "contained": [
          {
            "resourceType": "Medication",
            "id": "0829121a-e03b-4c98-82fd-a2b3024d596a",
            "meta": {
              "profile": [
                "https://fhir.kbv.de/StructureDefinition/KBV_PR_ERP_Medication_PZN|1.0.2"
              ]
            },
            "extension": [
              {
                "url": "https://fhir.kbv.de/StructureDefinition/KBV_EX_ERP_Medication_Category",
                "valueCoding": {
                  "system": "https://fhir.kbv.de/CodeSystem/KBV_CS_ERP_Medication_Category",
                  "code": "00"
                }
              },
              {
                "url": "https://fhir.kbv.de/StructureDefinition/KBV_EX_ERP_Medication_Vaccine",
                "valueBoolean": false
              },
              {
                "url": "http://fhir.de/StructureDefinition/normgroesse",
                "valueCode": "NB"
              }
            ],
            "code": {
              "coding": [
                {
                  "system": "http://fhir.de/CodeSystem/ifa/pzn",
                  "code": "12345678"
                }
              ],
              "text": "Schmerzmittel"
            },
            "form": {
              "coding": [
                {
                  "system": "https://fhir.kbv.de/CodeSystem/KBV_CS_SFHIR_KBV_DARREICHUNGSFORM",
                  "code": "TAB"
                }
              ]
            },
            "amount": {
              "numerator": {
                "value": 1,
                "unit": "Stk"
              },
              "denominator": {
                "value": 1
              }
            }
          }
        ],
        "basedOn": [
          {
            "reference": "Task/160.000.006.298.798.39"
          }
        ],
        "status": "unknown",
        "about": [
          {
            "reference": "#0829121a-e03b-4c98-82fd-a2b3024d596a"
          }
        ],
        "sent": "2023-03-13T09:00:26.101+00:00",
        "recipient": [
          {
            "identifier": {
              "system": "https://gematik.de/fhir/NamingSystem/TelematikID",
              "value": "1-2-ARZT-BerndClaudius01"
            }
          }
        ],
        "sender": {
          "identifier": {
            "system": "http://fhir.de/NamingSystem/gkv/kvid-10",
            "value": "X110498565"
          }
        },
        "payload": [
          {
            "extension": [
              {
                "url": "https://gematik.de/fhir/StructureDefinition/InsuranceProvider",
                "valueIdentifier": {
                  "system": "http://fhir.de/NamingSystem/arge-ik/iknr",
                  "value": "747691839"
                }
              },
              {
                "url": "https://gematik.de/fhir/StructureDefinition/SubstitutionAllowedType",
                "valueBoolean": true
              },
              {
                "url": "https://gematik.de/fhir/StructureDefinition/PrescriptionType",
                "valueCoding": {
                  "system": "https://gematik.de/fhir/CodeSystem/Flowtype",
                  "code": "160",
                  "display": "Muster 16 (Apothekenpflichtige Arzneimittel)"
                }
              }
            ],
            "contentString": "There's only one life-form as intelligent as me within thirty parsecs of here and that's me."
          }
        ]
      },
      "search": {
        "mode": "match"
      }
    },
    {
      "fullUrl": "https://erp-test.zentral.erp.splitdns.ti-dienste.de/Communication/01eba0a0-8ea5-bc90-8927-9b70b2a2fe8e",
      "resource": {
        "resourceType": "Communication",
        "id": "01eba0a0-8ea5-bc90-8927-9b70b2a2fe8e",
        "meta": {
          "profile": [
            "https://gematik.de/fhir/StructureDefinition/ErxCommunicationInfoReq"
          ]
        },
        "contained": [
          {
            "resourceType": "Medication",
            "id": "1c36706f-6dc0-4b58-9224-048c14ed256b",
            "meta": {
              "profile": [
                "https://fhir.kbv.de/StructureDefinition/KBV_PR_ERP_Medication_PZN|1.0.2"
              ]
            },
            "extension": [
              {
                "url": "https://fhir.kbv.de/StructureDefinition/KBV_EX_ERP_Medication_Category",
                "valueCoding": {
                  "system": "https://fhir.kbv.de/CodeSystem/KBV_CS_ERP_Medication_Category",
                  "code": "00"
                }
              },
              {
                "url": "https://fhir.kbv.de/StructureDefinition/KBV_EX_ERP_Medication_Vaccine",
                "valueBoolean": false
              },
              {
                "url": "http://fhir.de/StructureDefinition/normgroesse",
                "valueCode": "NB"
              }
            ],
            "code": {
              "coding": [
                {
                  "system": "http://fhir.de/CodeSystem/ifa/pzn",
                  "code": "12345678"
                }
              ],
              "text": "Schmerzmittel"
            },
            "form": {
              "coding": [
                {
                  "system": "https://fhir.kbv.de/CodeSystem/KBV_CS_SFHIR_KBV_DARREICHUNGSFORM",
                  "code": "TAB"
                }
              ]
            },
            "amount": {
              "numerator": {
                "value": 1,
                "unit": "Stk"
              },
              "denominator": {
                "value": 1
              }
            }
          }
        ],
        "basedOn": [
          {
            "reference": "Task/160.000.006.298.514.18"
          }
        ],
        "status": "unknown",
        "about": [
          {
            "reference": "#1c36706f-6dc0-4b58-9224-048c14ed256b"
          }
        ],
        "sent": "2023-03-13T07:03:33.370+00:00",
        "recipient": [
          {
            "identifier": {
              "system": "https://gematik.de/fhir/NamingSystem/TelematikID",
              "value": "1-2-ARZT-BerndClaudius01"
            }
          }
        ],
        "sender": {
          "identifier": {
            "system": "http://fhir.de/NamingSystem/gkv/kvid-10",
            "value": "X110498565"
          }
        },
        "payload": [
          {
            "extension": [
              {
                "url": "https://gematik.de/fhir/StructureDefinition/InsuranceProvider",
                "valueIdentifier": {
                  "system": "http://fhir.de/NamingSystem/arge-ik/iknr",
                  "value": "991708956"
                }
              },
              {
                "url": "https://gematik.de/fhir/StructureDefinition/SubstitutionAllowedType",
                "valueBoolean": true
              },
              {
                "url": "https://gematik.de/fhir/StructureDefinition/PrescriptionType",
                "valueCoding": {
                  "system": "https://gematik.de/fhir/CodeSystem/Flowtype",
                  "code": "160",
                  "display": "Muster 16 (Apothekenpflichtige Arzneimittel)"
                }
              }
            ],
            "contentString": "There's only one life-form as intelligent as me within thirty parsecs of here and that's me."
          }
        ]
      },
      "search": {
        "mode": "match"
      }
    },
    {
      "fullUrl": "https://erp-test.zentral.erp.splitdns.ti-dienste.de/Communication/01eba051-9765-dad0-cbad-1f9345286ee4",
      "resource": {
        "resourceType": "Communication",
        "id": "01eba051-9765-dad0-cbad-1f9345286ee4",
        "meta": {
          "profile": [
            "https://gematik.de/fhir/StructureDefinition/ErxCommunicationInfoReq"
          ]
        },
        "contained": [
          {
            "resourceType": "Medication",
            "id": "db4012f5-5cf8-4097-9c6e-72c025fb2d87",
            "meta": {
              "profile": [
                "https://fhir.kbv.de/StructureDefinition/KBV_PR_ERP_Medication_PZN|1.0.2"
              ]
            },
            "extension": [
              {
                "url": "https://fhir.kbv.de/StructureDefinition/KBV_EX_ERP_Medication_Category",
                "valueCoding": {
                  "system": "https://fhir.kbv.de/CodeSystem/KBV_CS_ERP_Medication_Category",
                  "code": "00"
                }
              },
              {
                "url": "https://fhir.kbv.de/StructureDefinition/KBV_EX_ERP_Medication_Vaccine",
                "valueBoolean": false
              },
              {
                "url": "http://fhir.de/StructureDefinition/normgroesse",
                "valueCode": "NB"
              }
            ],
            "code": {
              "coding": [
                {
                  "system": "http://fhir.de/CodeSystem/ifa/pzn",
                  "code": "12345678"
                }
              ],
              "text": "Schmerzmittel"
            },
            "form": {
              "coding": [
                {
                  "system": "https://fhir.kbv.de/CodeSystem/KBV_CS_SFHIR_KBV_DARREICHUNGSFORM",
                  "code": "TAB"
                }
              ]
            },
            "amount": {
              "numerator": {
                "value": 1,
                "unit": "Stk"
              },
              "denominator": {
                "value": 1
              }
            }
          }
        ],
        "basedOn": [
          {
            "reference": "Task/160.000.006.298.391.96"
          }
        ],
        "status": "unknown",
        "about": [
          {
            "reference": "#db4012f5-5cf8-4097-9c6e-72c025fb2d87"
          }
        ],
        "sent": "2023-03-09T08:50:57.762+00:00",
        "recipient": [
          {
            "identifier": {
              "system": "https://gematik.de/fhir/NamingSystem/TelematikID",
              "value": "1-2-ARZT-BerndClaudius01"
            }
          }
        ],
        "sender": {
          "identifier": {
            "system": "http://fhir.de/NamingSystem/gkv/kvid-10",
            "value": "X110498565"
          }
        },
        "payload": [
          {
            "extension": [
              {
                "url": "https://gematik.de/fhir/StructureDefinition/InsuranceProvider",
                "valueIdentifier": {
                  "system": "http://fhir.de/NamingSystem/arge-ik/iknr",
                  "value": "707749084"
                }
              },
              {
                "url": "https://gematik.de/fhir/StructureDefinition/SubstitutionAllowedType",
                "valueBoolean": true
              },
              {
                "url": "https://gematik.de/fhir/StructureDefinition/PrescriptionType",
                "valueCoding": {
                  "system": "https://gematik.de/fhir/CodeSystem/Flowtype",
                  "code": "160",
                  "display": "Muster 16 (Apothekenpflichtige Arzneimittel)"
                }
              }
            ],
            "contentString": "I wish you'd just tell me rather trying to engage my enthusiasm, because I haven't got one."
          }
        ]
      },
      "search": {
        "mode": "match"
      }
    },
    {
      "fullUrl": "https://erp-test.zentral.erp.splitdns.ti-dienste.de/Communication/01eba021-8558-2378-6c7b-952d0ff2d5d9",
      "resource": {
        "resourceType": "Communication",
        "id": "01eba021-8558-2378-6c7b-952d0ff2d5d9",
        "meta": {
          "profile": [
            "https://gematik.de/fhir/StructureDefinition/ErxCommunicationInfoReq"
          ]
        },
        "contained": [
          {
            "resourceType": "Medication",
            "id": "9c74222f-893b-4b82-8ab9-106629bbc99c",
            "meta": {
              "profile": [
                "https://fhir.kbv.de/StructureDefinition/KBV_PR_ERP_Medication_PZN|1.0.2"
              ]
            },
            "extension": [
              {
                "url": "https://fhir.kbv.de/StructureDefinition/KBV_EX_ERP_Medication_Category",
                "valueCoding": {
                  "system": "https://fhir.kbv.de/CodeSystem/KBV_CS_ERP_Medication_Category",
                  "code": "00"
                }
              },
              {
                "url": "https://fhir.kbv.de/StructureDefinition/KBV_EX_ERP_Medication_Vaccine",
                "valueBoolean": false
              },
              {
                "url": "http://fhir.de/StructureDefinition/normgroesse",
                "valueCode": "NB"
              }
            ],
            "code": {
              "coding": [
                {
                  "system": "http://fhir.de/CodeSystem/ifa/pzn",
                  "code": "12345678"
                }
              ],
              "text": "Schmerzmittel"
            },
            "form": {
              "coding": [
                {
                  "system": "https://fhir.kbv.de/CodeSystem/KBV_CS_SFHIR_KBV_DARREICHUNGSFORM",
                  "code": "TAB"
                }
              ]
            },
            "amount": {
              "numerator": {
                "value": 1,
                "unit": "Stk"
              },
              "denominator": {
                "value": 1
              }
            }
          }
        ],
        "basedOn": [
          {
            "reference": "Task/160.000.006.298.077.68"
          }
        ],
        "status": "unknown",
        "about": [
          {
            "reference": "#9c74222f-893b-4b82-8ab9-106629bbc99c"
          }
        ],
        "sent": "2023-03-06T23:29:56.443+00:00",
        "recipient": [
          {
            "identifier": {
              "system": "https://gematik.de/fhir/NamingSystem/TelematikID",
              "value": "1-2-ARZT-BerndClaudius01"
            }
          }
        ],
        "sender": {
          "identifier": {
            "system": "http://fhir.de/NamingSystem/gkv/kvid-10",
            "value": "X110498565"
          }
        },
        "payload": [
          {
            "extension": [
              {
                "url": "https://gematik.de/fhir/StructureDefinition/InsuranceProvider",
                "valueIdentifier": {
                  "system": "http://fhir.de/NamingSystem/arge-ik/iknr",
                  "value": "001661939"
                }
              },
              {
                "url": "https://gematik.de/fhir/StructureDefinition/SubstitutionAllowedType",
                "valueBoolean": true
              },
              {
                "url": "https://gematik.de/fhir/StructureDefinition/PrescriptionType",
                "valueCoding": {
                  "system": "https://gematik.de/fhir/CodeSystem/Flowtype",
                  "code": "160",
                  "display": "Muster 16 (Apothekenpflichtige Arzneimittel)"
                }
              }
            ],
            "contentString": "You think you've got problems? What are you supposed to do if you are a manically depressed robot? No, don't try to answer that. I'm fifty thousand times more intelligent than you and even I don't know the answer. It gives me a headache just trying to think down to your level."
          }
        ]
      },
      "search": {
        "mode": "match"
      }
    },
    {
      "fullUrl": "https://erp-test.zentral.erp.splitdns.ti-dienste.de/Communication/01eba015-efcd-5dd8-d464-02d5140983ef",
      "resource": {
        "resourceType": "Communication",
        "id": "01eba015-efcd-5dd8-d464-02d5140983ef",
        "meta": {
          "profile": [
            "https://gematik.de/fhir/StructureDefinition/ErxCommunicationInfoReq"
          ]
        },
        "contained": [
          {
            "resourceType": "Medication",
            "id": "50a1810e-6f83-43dc-ac6d-49abe271d834",
            "meta": {
              "profile": [
                "https://fhir.kbv.de/StructureDefinition/KBV_PR_ERP_Medication_PZN|1.0.2"
              ]
            },
            "extension": [
              {
                "url": "https://fhir.kbv.de/StructureDefinition/KBV_EX_ERP_Medication_Category",
                "valueCoding": {
                  "system": "https://fhir.kbv.de/CodeSystem/KBV_CS_ERP_Medication_Category",
                  "code": "00"
                }
              },
              {
                "url": "https://fhir.kbv.de/StructureDefinition/KBV_EX_ERP_Medication_Vaccine",
                "valueBoolean": false
              },
              {
                "url": "http://fhir.de/StructureDefinition/normgroesse",
                "valueCode": "NB"
              }
            ],
            "code": {
              "coding": [
                {
                  "system": "http://fhir.de/CodeSystem/ifa/pzn",
                  "code": "12345678"
                }
              ],
              "text": "Schmerzmittel"
            },
            "form": {
              "coding": [
                {
                  "system": "https://fhir.kbv.de/CodeSystem/KBV_CS_SFHIR_KBV_DARREICHUNGSFORM",
                  "code": "TAB"
                }
              ]
            },
            "amount": {
              "numerator": {
                "value": 1,
                "unit": "Stk"
              },
              "denominator": {
                "value": 1
              }
            }
          }
        ],
        "basedOn": [
          {
            "reference": "Task/160.000.006.297.773.10"
          }
        ],
        "status": "unknown",
        "about": [
          {
            "reference": "#50a1810e-6f83-43dc-ac6d-49abe271d834"
          }
        ],
        "sent": "2023-03-06T09:40:42.903+00:00",
        "recipient": [
          {
            "identifier": {
              "system": "https://gematik.de/fhir/NamingSystem/TelematikID",
              "value": "1-2-ARZT-BerndClaudius01"
            }
          }
        ],
        "sender": {
          "identifier": {
            "system": "http://fhir.de/NamingSystem/gkv/kvid-10",
            "value": "X110498565"
          }
        },
        "payload": [
          {
            "extension": [
              {
                "url": "https://gematik.de/fhir/StructureDefinition/InsuranceProvider",
                "valueIdentifier": {
                  "system": "http://fhir.de/NamingSystem/arge-ik/iknr",
                  "value": "502195771"
                }
              },
              {
                "url": "https://gematik.de/fhir/StructureDefinition/SubstitutionAllowedType",
                "valueBoolean": true
              },
              {
                "url": "https://gematik.de/fhir/StructureDefinition/PrescriptionType",
                "valueCoding": {
                  "system": "https://gematik.de/fhir/CodeSystem/Flowtype",
                  "code": "160",
                  "display": "Muster 16 (Apothekenpflichtige Arzneimittel)"
                }
              }
            ],
            "contentString": "And then of course I've got this terrible pain in all the diodes down my left side."
          }
        ]
      },
      "search": {
        "mode": "match"
      }
    },
    {
      "fullUrl": "https://erp-test.zentral.erp.splitdns.ti-dienste.de/Communication/01eb9fd2-f788-1bc8-e11c-4a43858660cb",
      "resource": {
        "resourceType": "Communication",
        "id": "01eb9fd2-f788-1bc8-e11c-4a43858660cb",
        "meta": {
          "profile": [
            "https://gematik.de/fhir/StructureDefinition/ErxCommunicationInfoReq"
          ]
        },
        "contained": [
          {
            "resourceType": "Medication",
            "id": "6b0492ca-92b9-4e2c-a5d2-7786e0f50b55",
            "meta": {
              "profile": [
                "https://fhir.kbv.de/StructureDefinition/KBV_PR_ERP_Medication_PZN|1.0.2"
              ]
            },
            "extension": [
              {
                "url": "https://fhir.kbv.de/StructureDefinition/KBV_EX_ERP_Medication_Category",
                "valueCoding": {
                  "system": "https://fhir.kbv.de/CodeSystem/KBV_CS_ERP_Medication_Category",
                  "code": "00"
                }
              },
              {
                "url": "https://fhir.kbv.de/StructureDefinition/KBV_EX_ERP_Medication_Vaccine",
                "valueBoolean": false
              },
              {
                "url": "http://fhir.de/StructureDefinition/normgroesse",
                "valueCode": "NB"
              }
            ],
            "code": {
              "coding": [
                {
                  "system": "http://fhir.de/CodeSystem/ifa/pzn",
                  "code": "12345678"
                }
              ],
              "text": "Schmerzmittel"
            },
            "form": {
              "coding": [
                {
                  "system": "https://fhir.kbv.de/CodeSystem/KBV_CS_SFHIR_KBV_DARREICHUNGSFORM",
                  "code": "TAB"
                }
              ]
            },
            "amount": {
              "numerator": {
                "value": 1,
                "unit": "Stk"
              },
              "denominator": {
                "value": 1
              }
            }
          }
        ],
        "basedOn": [
          {
            "reference": "Task/160.000.006.297.471.43"
          }
        ],
        "status": "unknown",
        "about": [
          {
            "reference": "#6b0492ca-92b9-4e2c-a5d2-7786e0f50b55"
          }
        ],
        "sent": "2023-03-03T01:46:49.773+00:00",
        "recipient": [
          {
            "identifier": {
              "system": "https://gematik.de/fhir/NamingSystem/TelematikID",
              "value": "1-2-ARZT-BerndClaudius01"
            }
          }
        ],
        "sender": {
          "identifier": {
            "system": "http://fhir.de/NamingSystem/gkv/kvid-10",
            "value": "X110498565"
          }
        },
        "payload": [
          {
            "extension": [
              {
                "url": "https://gematik.de/fhir/StructureDefinition/InsuranceProvider",
                "valueIdentifier": {
                  "system": "http://fhir.de/NamingSystem/arge-ik/iknr",
                  "value": "219836707"
                }
              },
              {
                "url": "https://gematik.de/fhir/StructureDefinition/SubstitutionAllowedType",
                "valueBoolean": true
              },
              {
                "url": "https://gematik.de/fhir/StructureDefinition/PrescriptionType",
                "valueCoding": {
                  "system": "https://gematik.de/fhir/CodeSystem/Flowtype",
                  "code": "160",
                  "display": "Muster 16 (Apothekenpflichtige Arzneimittel)"
                }
              }
            ],
            "contentString": "I won't enjoy it."
          }
        ]
      },
      "search": {
        "mode": "match"
      }
    },
    {
      "fullUrl": "https://erp-test.zentral.erp.splitdns.ti-dienste.de/Communication/01eb9fbe-b602-2a90-661e-d043cb13d877",
      "resource": {
        "resourceType": "Communication",
        "id": "01eb9fbe-b602-2a90-661e-d043cb13d877",
        "meta": {
          "profile": [
            "https://gematik.de/fhir/StructureDefinition/ErxCommunicationInfoReq"
          ]
        },
        "contained": [
          {
            "resourceType": "Medication",
            "id": "db233182-6059-4f27-a3cd-273d03c4ec90",
            "meta": {
              "profile": [
                "https://fhir.kbv.de/StructureDefinition/KBV_PR_ERP_Medication_PZN|1.0.2"
              ]
            },
            "extension": [
              {
                "url": "https://fhir.kbv.de/StructureDefinition/KBV_EX_ERP_Medication_Category",
                "valueCoding": {
                  "system": "https://fhir.kbv.de/CodeSystem/KBV_CS_ERP_Medication_Category",
                  "code": "00"
                }
              },
              {
                "url": "https://fhir.kbv.de/StructureDefinition/KBV_EX_ERP_Medication_Vaccine",
                "valueBoolean": false
              },
              {
                "url": "http://fhir.de/StructureDefinition/normgroesse",
                "valueCode": "NB"
              }
            ],
            "code": {
              "coding": [
                {
                  "system": "http://fhir.de/CodeSystem/ifa/pzn",
                  "code": "12345678"
                }
              ],
              "text": "Schmerzmittel"
            },
            "form": {
              "coding": [
                {
                  "system": "https://fhir.kbv.de/CodeSystem/KBV_CS_SFHIR_KBV_DARREICHUNGSFORM",
                  "code": "TAB"
                }
              ]
            },
            "amount": {
              "numerator": {
                "value": 1,
                "unit": "Stk"
              },
              "denominator": {
                "value": 1
              }
            }
          }
        ],
        "basedOn": [
          {
            "reference": "Task/160.000.006.297.163.94"
          }
        ],
        "status": "unknown",
        "about": [
          {
            "reference": "#db233182-6059-4f27-a3cd-273d03c4ec90"
          }
        ],
        "sent": "2023-03-02T01:36:51.130+00:00",
        "recipient": [
          {
            "identifier": {
              "system": "https://gematik.de/fhir/NamingSystem/TelematikID",
              "value": "1-2-ARZT-BerndClaudius01"
            }
          }
        ],
        "sender": {
          "identifier": {
            "system": "http://fhir.de/NamingSystem/gkv/kvid-10",
            "value": "X110498565"
          }
        },
        "payload": [
          {
            "extension": [
              {
                "url": "https://gematik.de/fhir/StructureDefinition/InsuranceProvider",
                "valueIdentifier": {
                  "system": "http://fhir.de/NamingSystem/arge-ik/iknr",
                  "value": "172087661"
                }
              },
              {
                "url": "https://gematik.de/fhir/StructureDefinition/SubstitutionAllowedType",
                "valueBoolean": true
              },
              {
                "url": "https://gematik.de/fhir/StructureDefinition/PrescriptionType",
                "valueCoding": {
                  "system": "https://gematik.de/fhir/CodeSystem/Flowtype",
                  "code": "160",
                  "display": "Muster 16 (Apothekenpflichtige Arzneimittel)"
                }
              }
            ],
            "contentString": "I wish you'd just tell me rather trying to engage my enthusiasm, because I haven't got one."
          }
        ]
      },
      "search": {
        "mode": "match"
      }
    },
    {
      "fullUrl": "https://erp-test.zentral.erp.splitdns.ti-dienste.de/Communication/01eb9fa8-e5c3-da00-bbb0-2cdcf085b4f2",
      "resource": {
        "resourceType": "Communication",
        "id": "01eb9fa8-e5c3-da00-bbb0-2cdcf085b4f2",
        "meta": {
          "profile": [
            "https://gematik.de/fhir/StructureDefinition/ErxCommunicationInfoReq"
          ]
        },
        "contained": [
          {
            "resourceType": "Medication",
            "id": "ed99ff35-6d29-4f11-ae83-cadff79e716d",
            "meta": {
              "profile": [
                "https://fhir.kbv.de/StructureDefinition/KBV_PR_ERP_Medication_PZN|1.0.2"
              ]
            },
            "extension": [
              {
                "url": "https://fhir.kbv.de/StructureDefinition/KBV_EX_ERP_Medication_Category",
                "valueCoding": {
                  "system": "https://fhir.kbv.de/CodeSystem/KBV_CS_ERP_Medication_Category",
                  "code": "00"
                }
              },
              {
                "url": "https://fhir.kbv.de/StructureDefinition/KBV_EX_ERP_Medication_Vaccine",
                "valueBoolean": false
              },
              {
                "url": "http://fhir.de/StructureDefinition/normgroesse",
                "valueCode": "NB"
              }
            ],
            "code": {
              "coding": [
                {
                  "system": "http://fhir.de/CodeSystem/ifa/pzn",
                  "code": "12345678"
                }
              ],
              "text": "Schmerzmittel"
            },
            "form": {
              "coding": [
                {
                  "system": "https://fhir.kbv.de/CodeSystem/KBV_CS_SFHIR_KBV_DARREICHUNGSFORM",
                  "code": "TAB"
                }
              ]
            },
            "amount": {
              "numerator": {
                "value": 1,
                "unit": "Stk"
              },
              "denominator": {
                "value": 1
              }
            }
          }
        ],
        "basedOn": [
          {
            "reference": "Task/160.000.006.296.800.19"
          }
        ],
        "status": "unknown",
        "about": [
          {
            "reference": "#ed99ff35-6d29-4f11-ae83-cadff79e716d"
          }
        ],
        "sent": "2023-02-28T23:35:23.072+00:00",
        "recipient": [
          {
            "identifier": {
              "system": "https://gematik.de/fhir/NamingSystem/TelematikID",
              "value": "1-2-ARZT-BerndClaudius01"
            }
          }
        ],
        "sender": {
          "identifier": {
            "system": "http://fhir.de/NamingSystem/gkv/kvid-10",
            "value": "X110498565"
          }
        },
        "payload": [
          {
            "extension": [
              {
                "url": "https://gematik.de/fhir/StructureDefinition/InsuranceProvider",
                "valueIdentifier": {
                  "system": "http://fhir.de/NamingSystem/arge-ik/iknr",
                  "value": "644691223"
                }
              },
              {
                "url": "https://gematik.de/fhir/StructureDefinition/SubstitutionAllowedType",
                "valueBoolean": true
              },
              {
                "url": "https://gematik.de/fhir/StructureDefinition/PrescriptionType",
                "valueCoding": {
                  "system": "https://gematik.de/fhir/CodeSystem/Flowtype",
                  "code": "160",
                  "display": "Muster 16 (Apothekenpflichtige Arzneimittel)"
                }
              }
            ],
            "contentString": "Here I am, brain the size of a planet, and they tell me to take you up to the bridge. Call that job satisfaction? 'Cos I don't."
          }
        ]
      },
      "search": {
        "mode": "match"
      }
    },
    {
      "fullUrl": "https://erp-test.zentral.erp.splitdns.ti-dienste.de/Communication/01eb9f94-c5c3-a2a8-4893-28f9b9d98b33",
      "resource": {
        "resourceType": "Communication",
        "id": "01eb9f94-c5c3-a2a8-4893-28f9b9d98b33",
        "meta": {
          "profile": [
            "https://gematik.de/fhir/StructureDefinition/ErxCommunicationInfoReq"
          ]
        },
        "contained": [
          {
            "resourceType": "Medication",
            "id": "45161c99-e0c7-49e1-8b8d-cc40dcb6b9f3",
            "meta": {
              "profile": [
                "https://fhir.kbv.de/StructureDefinition/KBV_PR_ERP_Medication_PZN|1.0.2"
              ]
            },
            "extension": [
              {
                "url": "https://fhir.kbv.de/StructureDefinition/KBV_EX_ERP_Medication_Category",
                "valueCoding": {
                  "system": "https://fhir.kbv.de/CodeSystem/KBV_CS_ERP_Medication_Category",
                  "code": "00"
                }
              },
              {
                "url": "https://fhir.kbv.de/StructureDefinition/KBV_EX_ERP_Medication_Vaccine",
                "valueBoolean": false
              },
              {
                "url": "http://fhir.de/StructureDefinition/normgroesse",
                "valueCode": "NB"
              }
            ],
            "code": {
              "coding": [
                {
                  "system": "http://fhir.de/CodeSystem/ifa/pzn",
                  "code": "12345678"
                }
              ],
              "text": "Schmerzmittel"
            },
            "form": {
              "coding": [
                {
                  "system": "https://fhir.kbv.de/CodeSystem/KBV_CS_SFHIR_KBV_DARREICHUNGSFORM",
                  "code": "TAB"
                }
              ]
            },
            "amount": {
              "numerator": {
                "value": 1,
                "unit": "Stk"
              },
              "denominator": {
                "value": 1
              }
            }
          }
        ],
        "basedOn": [
          {
            "reference": "Task/160.000.006.296.431.59"
          }
        ],
        "status": "unknown",
        "about": [
          {
            "reference": "#45161c99-e0c7-49e1-8b8d-cc40dcb6b9f3"
          }
        ],
        "sent": "2023-02-27T23:34:46.841+00:00",
        "recipient": [
          {
            "identifier": {
              "system": "https://gematik.de/fhir/NamingSystem/TelematikID",
              "value": "1-2-ARZT-BerndClaudius01"
            }
          }
        ],
        "sender": {
          "identifier": {
            "system": "http://fhir.de/NamingSystem/gkv/kvid-10",
            "value": "X110498565"
          }
        },
        "payload": [
          {
            "extension": [
              {
                "url": "https://gematik.de/fhir/StructureDefinition/InsuranceProvider",
                "valueIdentifier": {
                  "system": "http://fhir.de/NamingSystem/arge-ik/iknr",
                  "value": "192768690"
                }
              },
              {
                "url": "https://gematik.de/fhir/StructureDefinition/SubstitutionAllowedType",
                "valueBoolean": true
              },
              {
                "url": "https://gematik.de/fhir/StructureDefinition/PrescriptionType",
                "valueCoding": {
                  "system": "https://gematik.de/fhir/CodeSystem/Flowtype",
                  "code": "160",
                  "display": "Muster 16 (Apothekenpflichtige Arzneimittel)"
                }
              }
            ],
            "contentString": "I think you ought to know I'm feeling very depressed."
          }
        ]
      },
      "search": {
        "mode": "match"
      }
    },
    {
      "fullUrl": "https://erp-test.zentral.erp.splitdns.ti-dienste.de/Communication/01eb9f80-b3a6-9080-ad3b-f5a1398bf77b",
      "resource": {
        "resourceType": "Communication",
        "id": "01eb9f80-b3a6-9080-ad3b-f5a1398bf77b",
        "meta": {
          "profile": [
            "https://gematik.de/fhir/StructureDefinition/ErxCommunicationInfoReq"
          ]
        },
        "contained": [
          {
            "resourceType": "Medication",
            "id": "16311338-68b7-426a-8953-630b27591997",
            "meta": {
              "profile": [
                "https://fhir.kbv.de/StructureDefinition/KBV_PR_ERP_Medication_PZN|1.0.2"
              ]
            },
            "extension": [
              {
                "url": "https://fhir.kbv.de/StructureDefinition/KBV_EX_ERP_Medication_Category",
                "valueCoding": {
                  "system": "https://fhir.kbv.de/CodeSystem/KBV_CS_ERP_Medication_Category",
                  "code": "00"
                }
              },
              {
                "url": "https://fhir.kbv.de/StructureDefinition/KBV_EX_ERP_Medication_Vaccine",
                "valueBoolean": false
              },
              {
                "url": "http://fhir.de/StructureDefinition/normgroesse",
                "valueCode": "NB"
              }
            ],
            "code": {
              "coding": [
                {
                  "system": "http://fhir.de/CodeSystem/ifa/pzn",
                  "code": "12345678"
                }
              ],
              "text": "Schmerzmittel"
            },
            "form": {
              "coding": [
                {
                  "system": "https://fhir.kbv.de/CodeSystem/KBV_CS_SFHIR_KBV_DARREICHUNGSFORM",
                  "code": "TAB"
                }
              ]
            },
            "amount": {
              "numerator": {
                "value": 1,
                "unit": "Stk"
              },
              "denominator": {
                "value": 1
              }
            }
          }
        ],
        "basedOn": [
          {
            "reference": "Task/160.000.006.296.071.72"
          }
        ],
        "status": "unknown",
        "about": [
          {
            "reference": "#16311338-68b7-426a-8953-630b27591997"
          }
        ],
        "sent": "2023-02-26T23:38:03.600+00:00",
        "recipient": [
          {
            "identifier": {
              "system": "https://gematik.de/fhir/NamingSystem/TelematikID",
              "value": "1-2-ARZT-BerndClaudius01"
            }
          }
        ],
        "sender": {
          "identifier": {
            "system": "http://fhir.de/NamingSystem/gkv/kvid-10",
            "value": "X110498565"
          }
        },
        "payload": [
          {
            "extension": [
              {
                "url": "https://gematik.de/fhir/StructureDefinition/InsuranceProvider",
                "valueIdentifier": {
                  "system": "http://fhir.de/NamingSystem/arge-ik/iknr",
                  "value": "550049805"
                }
              },
              {
                "url": "https://gematik.de/fhir/StructureDefinition/SubstitutionAllowedType",
                "valueBoolean": true
              },
              {
                "url": "https://gematik.de/fhir/StructureDefinition/PrescriptionType",
                "valueCoding": {
                  "system": "https://gematik.de/fhir/CodeSystem/Flowtype",
                  "code": "160",
                  "display": "Muster 16 (Apothekenpflichtige Arzneimittel)"
                }
              }
            ],
            "contentString": "I wish you'd just tell me rather trying to engage my enthusiasm, because I haven't got one."
          }
        ]
      },
      "search": {
        "mode": "match"
      }
    },
    {
      "fullUrl": "https://erp-test.zentral.erp.splitdns.ti-dienste.de/Communication/01eb9f6c-8a72-d570-ed84-d392300a4dc7",
      "resource": {
        "resourceType": "Communication",
        "id": "01eb9f6c-8a72-d570-ed84-d392300a4dc7",
        "meta": {
          "profile": [
            "https://gematik.de/fhir/StructureDefinition/ErxCommunicationInfoReq"
          ]
        },
        "contained": [
          {
            "resourceType": "Medication",
            "id": "b9150af4-41d5-4ef1-b2db-d4ed9843da77",
            "meta": {
              "profile": [
                "https://fhir.kbv.de/StructureDefinition/KBV_PR_ERP_Medication_PZN|1.0.2"
              ]
            },
            "extension": [
              {
                "url": "https://fhir.kbv.de/StructureDefinition/KBV_EX_ERP_Medication_Category",
                "valueCoding": {
                  "system": "https://fhir.kbv.de/CodeSystem/KBV_CS_ERP_Medication_Category",
                  "code": "00"
                }
              },
              {
                "url": "https://fhir.kbv.de/StructureDefinition/KBV_EX_ERP_Medication_Vaccine",
                "valueBoolean": false
              },
              {
                "url": "http://fhir.de/StructureDefinition/normgroesse",
                "valueCode": "NB"
              }
            ],
            "code": {
              "coding": [
                {
                  "system": "http://fhir.de/CodeSystem/ifa/pzn",
                  "code": "12345678"
                }
              ],
              "text": "Schmerzmittel"
            },
            "form": {
              "coding": [
                {
                  "system": "https://fhir.kbv.de/CodeSystem/KBV_CS_SFHIR_KBV_DARREICHUNGSFORM",
                  "code": "TAB"
                }
              ]
            },
            "amount": {
              "numerator": {
                "value": 1,
                "unit": "Stk"
              },
              "denominator": {
                "value": 1
              }
            }
          }
        ],
        "basedOn": [
          {
            "reference": "Task/160.000.006.295.786.54"
          }
        ],
        "status": "unknown",
        "about": [
          {
            "reference": "#b9150af4-41d5-4ef1-b2db-d4ed9843da77"
          }
        ],
        "sent": "2023-02-25T23:34:52.998+00:00",
        "recipient": [
          {
            "identifier": {
              "system": "https://gematik.de/fhir/NamingSystem/TelematikID",
              "value": "1-2-ARZT-BerndClaudius01"
            }
          }
        ],
        "sender": {
          "identifier": {
            "system": "http://fhir.de/NamingSystem/gkv/kvid-10",
            "value": "X110498565"
          }
        },
        "payload": [
          {
            "extension": [
              {
                "url": "https://gematik.de/fhir/StructureDefinition/InsuranceProvider",
                "valueIdentifier": {
                  "system": "http://fhir.de/NamingSystem/arge-ik/iknr",
                  "value": "234893200"
                }
              },
              {
                "url": "https://gematik.de/fhir/StructureDefinition/SubstitutionAllowedType",
                "valueBoolean": true
              },
              {
                "url": "https://gematik.de/fhir/StructureDefinition/PrescriptionType",
                "valueCoding": {
                  "system": "https://gematik.de/fhir/CodeSystem/Flowtype",
                  "code": "160",
                  "display": "Muster 16 (Apothekenpflichtige Arzneimittel)"
                }
              }
            ],
            "contentString": "Here I am, brain the size of a planet, and they tell me to take you up to the bridge. Call that job satisfaction? 'Cos I don't."
          }
        ]
      },
      "search": {
        "mode": "match"
      }
    },
    {
      "fullUrl": "https://erp-test.zentral.erp.splitdns.ti-dienste.de/Communication/01eb9f58-67ac-fa20-e834-bc3e99cb2470",
      "resource": {
        "resourceType": "Communication",
        "id": "01eb9f58-67ac-fa20-e834-bc3e99cb2470",
        "meta": {
          "profile": [
            "https://gematik.de/fhir/StructureDefinition/ErxCommunicationInfoReq"
          ]
        },
        "contained": [
          {
            "resourceType": "Medication",
            "id": "0a3f785d-81ea-4356-b09b-429c3306cff3",
            "meta": {
              "profile": [
                "https://fhir.kbv.de/StructureDefinition/KBV_PR_ERP_Medication_PZN|1.0.2"
              ]
            },
            "extension": [
              {
                "url": "https://fhir.kbv.de/StructureDefinition/KBV_EX_ERP_Medication_Category",
                "valueCoding": {
                  "system": "https://fhir.kbv.de/CodeSystem/KBV_CS_ERP_Medication_Category",
                  "code": "00"
                }
              },
              {
                "url": "https://fhir.kbv.de/StructureDefinition/KBV_EX_ERP_Medication_Vaccine",
                "valueBoolean": false
              },
              {
                "url": "http://fhir.de/StructureDefinition/normgroesse",
                "valueCode": "NB"
              }
            ],
            "code": {
              "coding": [
                {
                  "system": "http://fhir.de/CodeSystem/ifa/pzn",
                  "code": "12345678"
                }
              ],
              "text": "Schmerzmittel"
            },
            "form": {
              "coding": [
                {
                  "system": "https://fhir.kbv.de/CodeSystem/KBV_CS_SFHIR_KBV_DARREICHUNGSFORM",
                  "code": "TAB"
                }
              ]
            },
            "amount": {
              "numerator": {
                "value": 1,
                "unit": "Stk"
              },
              "denominator": {
                "value": 1
              }
            }
          }
        ],
        "basedOn": [
          {
            "reference": "Task/160.000.006.295.500.39"
          }
        ],
        "status": "unknown",
        "about": [
          {
            "reference": "#0a3f785d-81ea-4356-b09b-429c3306cff3"
          }
        ],
        "sent": "2023-02-24T23:33:30.260+00:00",
        "recipient": [
          {
            "identifier": {
              "system": "https://gematik.de/fhir/NamingSystem/TelematikID",
              "value": "1-2-ARZT-BerndClaudius01"
            }
          }
        ],
        "sender": {
          "identifier": {
            "system": "http://fhir.de/NamingSystem/gkv/kvid-10",
            "value": "X110498565"
          }
        },
        "payload": [
          {
            "extension": [
              {
                "url": "https://gematik.de/fhir/StructureDefinition/InsuranceProvider",
                "valueIdentifier": {
                  "system": "http://fhir.de/NamingSystem/arge-ik/iknr",
                  "value": "213933901"
                }
              },
              {
                "url": "https://gematik.de/fhir/StructureDefinition/SubstitutionAllowedType",
                "valueBoolean": true
              },
              {
                "url": "https://gematik.de/fhir/StructureDefinition/PrescriptionType",
                "valueCoding": {
                  "system": "https://gematik.de/fhir/CodeSystem/Flowtype",
                  "code": "160",
                  "display": "Muster 16 (Apothekenpflichtige Arzneimittel)"
                }
              }
            ],
            "contentString": "I wish you'd just tell me rather trying to engage my enthusiasm, because I haven't got one."
          }
        ]
      },
      "search": {
        "mode": "match"
      }
    },
    {
      "fullUrl": "https://erp-test.zentral.erp.splitdns.ti-dienste.de/Communication/01eb9f4f-80a6-6b78-93df-19fd96e82fd5",
      "resource": {
        "resourceType": "Communication",
        "id": "01eb9f4f-80a6-6b78-93df-19fd96e82fd5",
        "meta": {
          "profile": [
            "https://gematik.de/fhir/StructureDefinition/ErxCommunicationInfoReq"
          ]
        },
        "contained": [
          {
            "resourceType": "Medication",
            "id": "a133d460-9d4d-4c60-9942-bb73dd76ab31",
            "meta": {
              "profile": [
                "https://fhir.kbv.de/StructureDefinition/KBV_PR_ERP_Medication_PZN|1.0.2"
              ]
            },
            "extension": [
              {
                "url": "https://fhir.kbv.de/StructureDefinition/KBV_EX_ERP_Medication_Category",
                "valueCoding": {
                  "system": "https://fhir.kbv.de/CodeSystem/KBV_CS_ERP_Medication_Category",
                  "code": "00"
                }
              },
              {
                "url": "https://fhir.kbv.de/StructureDefinition/KBV_EX_ERP_Medication_Vaccine",
                "valueBoolean": false
              },
              {
                "url": "http://fhir.de/StructureDefinition/normgroesse",
                "valueCode": "NB"
              }
            ],
            "code": {
              "coding": [
                {
                  "system": "http://fhir.de/CodeSystem/ifa/pzn",
                  "code": "12345678"
                }
              ],
              "text": "Schmerzmittel"
            },
            "form": {
              "coding": [
                {
                  "system": "https://fhir.kbv.de/CodeSystem/KBV_CS_SFHIR_KBV_DARREICHUNGSFORM",
                  "code": "TAB"
                }
              ]
            },
            "amount": {
              "numerator": {
                "value": 1,
                "unit": "Stk"
              },
              "denominator": {
                "value": 1
              }
            }
          }
        ],
        "basedOn": [
          {
            "reference": "Task/160.000.006.295.430.55"
          }
        ],
        "status": "unknown",
        "about": [
          {
            "reference": "#a133d460-9d4d-4c60-9942-bb73dd76ab31"
          }
        ],
        "sent": "2023-02-24T12:56:14.555+00:00",
        "recipient": [
          {
            "identifier": {
              "system": "https://gematik.de/fhir/NamingSystem/TelematikID",
              "value": "1-2-ARZT-BerndClaudius01"
            }
          }
        ],
        "sender": {
          "identifier": {
            "system": "http://fhir.de/NamingSystem/gkv/kvid-10",
            "value": "X110498565"
          }
        },
        "payload": [
          {
            "extension": [
              {
                "url": "https://gematik.de/fhir/StructureDefinition/InsuranceProvider",
                "valueIdentifier": {
                  "system": "http://fhir.de/NamingSystem/arge-ik/iknr",
                  "value": "656086823"
                }
              },
              {
                "url": "https://gematik.de/fhir/StructureDefinition/SubstitutionAllowedType",
                "valueBoolean": true
              },
              {
                "url": "https://gematik.de/fhir/StructureDefinition/PrescriptionType",
                "valueCoding": {
                  "system": "https://gematik.de/fhir/CodeSystem/Flowtype",
                  "code": "160",
                  "display": "Muster 16 (Apothekenpflichtige Arzneimittel)"
                }
              }
            ],
            "contentString": "There's only one life-form as intelligent as me within thirty parsecs of here and that's me."
          }
        ]
      },
      "search": {
        "mode": "match"
      }
    },
    {
      "fullUrl": "https://erp-test.zentral.erp.splitdns.ti-dienste.de/Communication/01eb9f4c-dc86-8390-0b86-29b0d355b795",
      "resource": {
        "resourceType": "Communication",
        "id": "01eb9f4c-dc86-8390-0b86-29b0d355b795",
        "meta": {
          "profile": [
            "https://gematik.de/fhir/StructureDefinition/ErxCommunicationInfoReq"
          ]
        },
        "contained": [
          {
            "resourceType": "Medication",
            "id": "a376e36f-64dc-43e4-9554-296c24e46c38",
            "meta": {
              "profile": [
                "https://fhir.kbv.de/StructureDefinition/KBV_PR_ERP_Medication_PZN|1.0.2"
              ]
            },
            "extension": [
              {
                "url": "https://fhir.kbv.de/StructureDefinition/KBV_EX_ERP_Medication_Category",
                "valueCoding": {
                  "system": "https://fhir.kbv.de/CodeSystem/KBV_CS_ERP_Medication_Category",
                  "code": "00"
                }
              },
              {
                "url": "https://fhir.kbv.de/StructureDefinition/KBV_EX_ERP_Medication_Vaccine",
                "valueBoolean": false
              },
              {
                "url": "http://fhir.de/StructureDefinition/normgroesse",
                "valueCode": "NB"
              }
            ],
            "code": {
              "coding": [
                {
                  "system": "http://fhir.de/CodeSystem/ifa/pzn",
                  "code": "12345678"
                }
              ],
              "text": "Schmerzmittel"
            },
            "form": {
              "coding": [
                {
                  "system": "https://fhir.kbv.de/CodeSystem/KBV_CS_SFHIR_KBV_DARREICHUNGSFORM",
                  "code": "TAB"
                }
              ]
            },
            "amount": {
              "numerator": {
                "value": 1,
                "unit": "Stk"
              },
              "denominator": {
                "value": 1
              }
            }
          }
        ],
        "basedOn": [
          {
            "reference": "Task/160.000.006.295.130.82"
          }
        ],
        "status": "unknown",
        "about": [
          {
            "reference": "#a376e36f-64dc-43e4-9554-296c24e46c38"
          }
        ],
        "sent": "2023-02-24T09:47:11.066+00:00",
        "recipient": [
          {
            "identifier": {
              "system": "https://gematik.de/fhir/NamingSystem/TelematikID",
              "value": "1-2-ARZT-BerndClaudius01"
            }
          }
        ],
        "sender": {
          "identifier": {
            "system": "http://fhir.de/NamingSystem/gkv/kvid-10",
            "value": "X110498565"
          }
        },
        "payload": [
          {
            "extension": [
              {
                "url": "https://gematik.de/fhir/StructureDefinition/InsuranceProvider",
                "valueIdentifier": {
                  "system": "http://fhir.de/NamingSystem/arge-ik/iknr",
                  "value": "341910123"
                }
              },
              {
                "url": "https://gematik.de/fhir/StructureDefinition/SubstitutionAllowedType",
                "valueBoolean": true
              },
              {
                "url": "https://gematik.de/fhir/StructureDefinition/PrescriptionType",
                "valueCoding": {
                  "system": "https://gematik.de/fhir/CodeSystem/Flowtype",
                  "code": "160",
                  "display": "Muster 16 (Apothekenpflichtige Arzneimittel)"
                }
              }
            ],
            "contentString": "I think you ought to know I'm feeling very depressed."
          }
        ]
      },
      "search": {
        "mode": "match"
      }
    },
    {
      "fullUrl": "https://erp-test.zentral.erp.splitdns.ti-dienste.de/Communication/01eb9f30-3396-1ed8-4520-12905e184ddb",
      "resource": {
        "resourceType": "Communication",
        "id": "01eb9f30-3396-1ed8-4520-12905e184ddb",
        "meta": {
          "profile": [
            "https://gematik.de/fhir/StructureDefinition/ErxCommunicationInfoReq"
          ]
        },
        "contained": [
          {
            "resourceType": "Medication",
            "id": "48ae371a-b492-4696-a8b9-e545a09c9a29",
            "meta": {
              "profile": [
                "https://fhir.kbv.de/StructureDefinition/KBV_PR_ERP_Medication_PZN|1.0.2"
              ]
            },
            "extension": [
              {
                "url": "https://fhir.kbv.de/StructureDefinition/KBV_EX_ERP_Medication_Category",
                "valueCoding": {
                  "system": "https://fhir.kbv.de/CodeSystem/KBV_CS_ERP_Medication_Category",
                  "code": "00"
                }
              },
              {
                "url": "https://fhir.kbv.de/StructureDefinition/KBV_EX_ERP_Medication_Vaccine",
                "valueBoolean": false
              },
              {
                "url": "http://fhir.de/StructureDefinition/normgroesse",
                "valueCode": "NB"
              }
            ],
            "code": {
              "coding": [
                {
                  "system": "http://fhir.de/CodeSystem/ifa/pzn",
                  "code": "12345678"
                }
              ],
              "text": "Schmerzmittel"
            },
            "form": {
              "coding": [
                {
                  "system": "https://fhir.kbv.de/CodeSystem/KBV_CS_SFHIR_KBV_DARREICHUNGSFORM",
                  "code": "TAB"
                }
              ]
            },
            "amount": {
              "numerator": {
                "value": 1,
                "unit": "Stk"
              },
              "denominator": {
                "value": 1
              }
            }
          }
        ],
        "basedOn": [
          {
            "reference": "Task/160.000.006.294.838.85"
          }
        ],
        "status": "unknown",
        "about": [
          {
            "reference": "#48ae371a-b492-4696-a8b9-e545a09c9a29"
          }
        ],
        "sent": "2023-02-22T23:35:37.655+00:00",
        "recipient": [
          {
            "identifier": {
              "system": "https://gematik.de/fhir/NamingSystem/TelematikID",
              "value": "1-2-ARZT-BerndClaudius01"
            }
          }
        ],
        "sender": {
          "identifier": {
            "system": "http://fhir.de/NamingSystem/gkv/kvid-10",
            "value": "X110498565"
          }
        },
        "payload": [
          {
            "extension": [
              {
                "url": "https://gematik.de/fhir/StructureDefinition/InsuranceProvider",
                "valueIdentifier": {
                  "system": "http://fhir.de/NamingSystem/arge-ik/iknr",
                  "value": "732558737"
                }
              },
              {
                "url": "https://gematik.de/fhir/StructureDefinition/SubstitutionAllowedType",
                "valueBoolean": true
              },
              {
                "url": "https://gematik.de/fhir/StructureDefinition/PrescriptionType",
                "valueCoding": {
                  "system": "https://gematik.de/fhir/CodeSystem/Flowtype",
                  "code": "160",
                  "display": "Muster 16 (Apothekenpflichtige Arzneimittel)"
                }
              }
            ],
            "contentString": "And then of course I've got this terrible pain in all the diodes down my left side."
          }
        ]
      },
      "search": {
        "mode": "match"
      }
    },
    {
      "fullUrl": "https://erp-test.zentral.erp.splitdns.ti-dienste.de/Communication/01eb9f24-e170-f700-94d2-ebef7a547343",
      "resource": {
        "resourceType": "Communication",
        "id": "01eb9f24-e170-f700-94d2-ebef7a547343",
        "meta": {
          "profile": [
            "https://gematik.de/fhir/StructureDefinition/ErxCommunicationInfoReq"
          ]
        },
        "contained": [
          {
            "resourceType": "Medication",
            "id": "c61bd65c-f914-44b0-8df8-83ef30e89e77",
            "meta": {
              "profile": [
                "https://fhir.kbv.de/StructureDefinition/KBV_PR_ERP_Medication_PZN|1.0.2"
              ]
            },
            "extension": [
              {
                "url": "https://fhir.kbv.de/StructureDefinition/KBV_EX_ERP_Medication_Category",
                "valueCoding": {
                  "system": "https://fhir.kbv.de/CodeSystem/KBV_CS_ERP_Medication_Category",
                  "code": "00"
                }
              },
              {
                "url": "https://fhir.kbv.de/StructureDefinition/KBV_EX_ERP_Medication_Vaccine",
                "valueBoolean": false
              },
              {
                "url": "http://fhir.de/StructureDefinition/normgroesse",
                "valueCode": "NB"
              }
            ],
            "code": {
              "coding": [
                {
                  "system": "http://fhir.de/CodeSystem/ifa/pzn",
                  "code": "12345678"
                }
              ],
              "text": "Schmerzmittel"
            },
            "form": {
              "coding": [
                {
                  "system": "https://fhir.kbv.de/CodeSystem/KBV_CS_SFHIR_KBV_DARREICHUNGSFORM",
                  "code": "TAB"
                }
              ]
            },
            "amount": {
              "numerator": {
                "value": 1,
                "unit": "Stk"
              },
              "denominator": {
                "value": 1
              }
            }
          }
        ],
        "basedOn": [
          {
            "reference": "Task/160.000.006.294.549.79"
          }
        ],
        "status": "unknown",
        "about": [
          {
            "reference": "#c61bd65c-f914-44b0-8df8-83ef30e89e77"
          }
        ],
        "sent": "2023-02-22T10:05:14.848+00:00",
        "recipient": [
          {
            "identifier": {
              "system": "https://gematik.de/fhir/NamingSystem/TelematikID",
              "value": "1-2-ARZT-BerndClaudius01"
            }
          }
        ],
        "sender": {
          "identifier": {
            "system": "http://fhir.de/NamingSystem/gkv/kvid-10",
            "value": "X110498565"
          }
        },
        "payload": [
          {
            "extension": [
              {
                "url": "https://gematik.de/fhir/StructureDefinition/InsuranceProvider",
                "valueIdentifier": {
                  "system": "http://fhir.de/NamingSystem/arge-ik/iknr",
                  "value": "409303426"
                }
              },
              {
                "url": "https://gematik.de/fhir/StructureDefinition/SubstitutionAllowedType",
                "valueBoolean": true
              },
              {
                "url": "https://gematik.de/fhir/StructureDefinition/PrescriptionType",
                "valueCoding": {
                  "system": "https://gematik.de/fhir/CodeSystem/Flowtype",
                  "code": "160",
                  "display": "Muster 16 (Apothekenpflichtige Arzneimittel)"
                }
              }
            ],
            "contentString": "Pardon me for breathing, which I never do anyway so I don't know why I bother to say it, Oh God, I'm so depressed."
          }
        ]
      },
      "search": {
        "mode": "match"
      }
    },
    {
      "fullUrl": "https://erp-test.zentral.erp.splitdns.ti-dienste.de/Communication/01eb9f1c-1a5a-d080-ddf1-aeb6fb1739d6",
      "resource": {
        "resourceType": "Communication",
        "id": "01eb9f1c-1a5a-d080-ddf1-aeb6fb1739d6",
        "meta": {
          "profile": [
            "https://gematik.de/fhir/StructureDefinition/ErxCommunicationInfoReq"
          ]
        },
        "contained": [
          {
            "resourceType": "Medication",
            "id": "58d315bd-a08d-4342-b38a-14d5ea6462d8",
            "meta": {
              "profile": [
                "https://fhir.kbv.de/StructureDefinition/KBV_PR_ERP_Medication_PZN|1.0.2"
              ]
            },
            "extension": [
              {
                "url": "https://fhir.kbv.de/StructureDefinition/KBV_EX_ERP_Medication_Category",
                "valueCoding": {
                  "system": "https://fhir.kbv.de/CodeSystem/KBV_CS_ERP_Medication_Category",
                  "code": "00"
                }
              },
              {
                "url": "https://fhir.kbv.de/StructureDefinition/KBV_EX_ERP_Medication_Vaccine",
                "valueBoolean": false
              },
              {
                "url": "http://fhir.de/StructureDefinition/normgroesse",
                "valueCode": "NB"
              }
            ],
            "code": {
              "coding": [
                {
                  "system": "http://fhir.de/CodeSystem/ifa/pzn",
                  "code": "12345678"
                }
              ],
              "text": "Schmerzmittel"
            },
            "form": {
              "coding": [
                {
                  "system": "https://fhir.kbv.de/CodeSystem/KBV_CS_SFHIR_KBV_DARREICHUNGSFORM",
                  "code": "TAB"
                }
              ]
            },
            "amount": {
              "numerator": {
                "value": 1,
                "unit": "Stk"
              },
              "denominator": {
                "value": 1
              }
            }
          }
        ],
        "basedOn": [
          {
            "reference": "Task/160.000.006.294.258.79"
          }
        ],
        "status": "unknown",
        "about": [
          {
            "reference": "#58d315bd-a08d-4342-b38a-14d5ea6462d8"
          }
        ],
        "sent": "2023-02-21T23:36:54.992+00:00",
        "recipient": [
          {
            "identifier": {
              "system": "https://gematik.de/fhir/NamingSystem/TelematikID",
              "value": "1-2-ARZT-BerndClaudius01"
            }
          }
        ],
        "sender": {
          "identifier": {
            "system": "http://fhir.de/NamingSystem/gkv/kvid-10",
            "value": "X110498565"
          }
        },
        "payload": [
          {
            "extension": [
              {
                "url": "https://gematik.de/fhir/StructureDefinition/InsuranceProvider",
                "valueIdentifier": {
                  "system": "http://fhir.de/NamingSystem/arge-ik/iknr",
                  "value": "585078308"
                }
              },
              {
                "url": "https://gematik.de/fhir/StructureDefinition/SubstitutionAllowedType",
                "valueBoolean": true
              },
              {
                "url": "https://gematik.de/fhir/StructureDefinition/PrescriptionType",
                "valueCoding": {
                  "system": "https://gematik.de/fhir/CodeSystem/Flowtype",
                  "code": "160",
                  "display": "Muster 16 (Apothekenpflichtige Arzneimittel)"
                }
              }
            ],
            "contentString": "And then of course I've got this terrible pain in all the diodes down my left side."
          }
        ]
      },
      "search": {
        "mode": "match"
      }
    },
    {
      "fullUrl": "https://erp-test.zentral.erp.splitdns.ti-dienste.de/Communication/01eb9f07-f0ee-cb48-2f9d-ff7e00bc52fb",
      "resource": {
        "resourceType": "Communication",
        "id": "01eb9f07-f0ee-cb48-2f9d-ff7e00bc52fb",
        "meta": {
          "profile": [
            "https://gematik.de/fhir/StructureDefinition/ErxCommunicationInfoReq"
          ]
        },
        "contained": [
          {
            "resourceType": "Medication",
            "id": "72702f7e-a71c-471d-9f29-4f0fbe662cc6",
            "meta": {
              "profile": [
                "https://fhir.kbv.de/StructureDefinition/KBV_PR_ERP_Medication_PZN|1.0.2"
              ]
            },
            "extension": [
              {
                "url": "https://fhir.kbv.de/StructureDefinition/KBV_EX_ERP_Medication_Category",
                "valueCoding": {
                  "system": "https://fhir.kbv.de/CodeSystem/KBV_CS_ERP_Medication_Category",
                  "code": "00"
                }
              },
              {
                "url": "https://fhir.kbv.de/StructureDefinition/KBV_EX_ERP_Medication_Vaccine",
                "valueBoolean": false
              },
              {
                "url": "http://fhir.de/StructureDefinition/normgroesse",
                "valueCode": "NB"
              }
            ],
            "code": {
              "coding": [
                {
                  "system": "http://fhir.de/CodeSystem/ifa/pzn",
                  "code": "12345678"
                }
              ],
              "text": "Schmerzmittel"
            },
            "form": {
              "coding": [
                {
                  "system": "https://fhir.kbv.de/CodeSystem/KBV_CS_SFHIR_KBV_DARREICHUNGSFORM",
                  "code": "TAB"
                }
              ]
            },
            "amount": {
              "numerator": {
                "value": 1,
                "unit": "Stk"
              },
              "denominator": {
                "value": 1
              }
            }
          }
        ],
        "basedOn": [
          {
            "reference": "Task/160.000.006.293.960.03"
          }
        ],
        "status": "unknown",
        "about": [
          {
            "reference": "#72702f7e-a71c-471d-9f29-4f0fbe662cc6"
          }
        ],
        "sent": "2023-02-20T23:33:40.701+00:00",
        "recipient": [
          {
            "identifier": {
              "system": "https://gematik.de/fhir/NamingSystem/TelematikID",
              "value": "1-2-ARZT-BerndClaudius01"
            }
          }
        ],
        "sender": {
          "identifier": {
            "system": "http://fhir.de/NamingSystem/gkv/kvid-10",
            "value": "X110498565"
          }
        },
        "payload": [
          {
            "extension": [
              {
                "url": "https://gematik.de/fhir/StructureDefinition/InsuranceProvider",
                "valueIdentifier": {
                  "system": "http://fhir.de/NamingSystem/arge-ik/iknr",
                  "value": "573100869"
                }
              },
              {
                "url": "https://gematik.de/fhir/StructureDefinition/SubstitutionAllowedType",
                "valueBoolean": true
              },
              {
                "url": "https://gematik.de/fhir/StructureDefinition/PrescriptionType",
                "valueCoding": {
                  "system": "https://gematik.de/fhir/CodeSystem/Flowtype",
                  "code": "160",
                  "display": "Muster 16 (Apothekenpflichtige Arzneimittel)"
                }
              }
            ],
            "contentString": "Pardon me for breathing, which I never do anyway so I don't know why I bother to say it, Oh God, I'm so depressed."
          }
        ]
      },
      "search": {
        "mode": "match"
      }
    },
    {
      "fullUrl": "https://erp-test.zentral.erp.splitdns.ti-dienste.de/Communication/01eb9ef3-e5fa-f9a0-103b-97cc2b03e5be",
      "resource": {
        "resourceType": "Communication",
        "id": "01eb9ef3-e5fa-f9a0-103b-97cc2b03e5be",
        "meta": {
          "profile": [
            "https://gematik.de/fhir/StructureDefinition/ErxCommunicationInfoReq"
          ]
        },
        "contained": [
          {
            "resourceType": "Medication",
            "id": "d594dc12-4013-4e89-9fc9-6f7acdb5816b",
            "meta": {
              "profile": [
                "https://fhir.kbv.de/StructureDefinition/KBV_PR_ERP_Medication_PZN|1.0.2"
              ]
            },
            "extension": [
              {
                "url": "https://fhir.kbv.de/StructureDefinition/KBV_EX_ERP_Medication_Category",
                "valueCoding": {
                  "system": "https://fhir.kbv.de/CodeSystem/KBV_CS_ERP_Medication_Category",
                  "code": "00"
                }
              },
              {
                "url": "https://fhir.kbv.de/StructureDefinition/KBV_EX_ERP_Medication_Vaccine",
                "valueBoolean": false
              },
              {
                "url": "http://fhir.de/StructureDefinition/normgroesse",
                "valueCode": "NB"
              }
            ],
            "code": {
              "coding": [
                {
                  "system": "http://fhir.de/CodeSystem/ifa/pzn",
                  "code": "12345678"
                }
              ],
              "text": "Schmerzmittel"
            },
            "form": {
              "coding": [
                {
                  "system": "https://fhir.kbv.de/CodeSystem/KBV_CS_SFHIR_KBV_DARREICHUNGSFORM",
                  "code": "TAB"
                }
              ]
            },
            "amount": {
              "numerator": {
                "value": 1,
                "unit": "Stk"
              },
              "denominator": {
                "value": 1
              }
            }
          }
        ],
        "basedOn": [
          {
            "reference": "Task/160.000.006.293.640.90"
          }
        ],
        "status": "unknown",
        "about": [
          {
            "reference": "#d594dc12-4013-4e89-9fc9-6f7acdb5816b"
          }
        ],
        "sent": "2023-02-19T23:38:57.604+00:00",
        "recipient": [
          {
            "identifier": {
              "system": "https://gematik.de/fhir/NamingSystem/TelematikID",
              "value": "1-2-ARZT-BerndClaudius01"
            }
          }
        ],
        "sender": {
          "identifier": {
            "system": "http://fhir.de/NamingSystem/gkv/kvid-10",
            "value": "X110498565"
          }
        },
        "payload": [
          {
            "extension": [
              {
                "url": "https://gematik.de/fhir/StructureDefinition/InsuranceProvider",
                "valueIdentifier": {
                  "system": "http://fhir.de/NamingSystem/arge-ik/iknr",
                  "value": "151331090"
                }
              },
              {
                "url": "https://gematik.de/fhir/StructureDefinition/SubstitutionAllowedType",
                "valueBoolean": true
              },
              {
                "url": "https://gematik.de/fhir/StructureDefinition/PrescriptionType",
                "valueCoding": {
                  "system": "https://gematik.de/fhir/CodeSystem/Flowtype",
                  "code": "160",
                  "display": "Muster 16 (Apothekenpflichtige Arzneimittel)"
                }
              }
            ],
            "contentString": "Here I am, brain the size of a planet, and they tell me to take you up to the bridge. Call that job satisfaction? 'Cos I don't."
          }
        ]
      },
      "search": {
        "mode": "match"
      }
    },
    {
      "fullUrl": "https://erp-test.zentral.erp.splitdns.ti-dienste.de/Communication/01eb9edf-d916-9ac8-2c83-e52469ffaeef",
      "resource": {
        "resourceType": "Communication",
        "id": "01eb9edf-d916-9ac8-2c83-e52469ffaeef",
        "meta": {
          "profile": [
            "https://gematik.de/fhir/StructureDefinition/ErxCommunicationInfoReq"
          ]
        },
        "contained": [
          {
            "resourceType": "Medication",
            "id": "dd5ff773-9e00-46ff-96d2-9a20a9c5460a",
            "meta": {
              "profile": [
                "https://fhir.kbv.de/StructureDefinition/KBV_PR_ERP_Medication_PZN|1.0.2"
              ]
            },
            "extension": [
              {
                "url": "https://fhir.kbv.de/StructureDefinition/KBV_EX_ERP_Medication_Category",
                "valueCoding": {
                  "system": "https://fhir.kbv.de/CodeSystem/KBV_CS_ERP_Medication_Category",
                  "code": "00"
                }
              },
              {
                "url": "https://fhir.kbv.de/StructureDefinition/KBV_EX_ERP_Medication_Vaccine",
                "valueBoolean": false
              },
              {
                "url": "http://fhir.de/StructureDefinition/normgroesse",
                "valueCode": "NB"
              }
            ],
            "code": {
              "coding": [
                {
                  "system": "http://fhir.de/CodeSystem/ifa/pzn",
                  "code": "12345678"
                }
              ],
              "text": "Schmerzmittel"
            },
            "form": {
              "coding": [
                {
                  "system": "https://fhir.kbv.de/CodeSystem/KBV_CS_SFHIR_KBV_DARREICHUNGSFORM",
                  "code": "TAB"
                }
              ]
            },
            "amount": {
              "numerator": {
                "value": 1,
                "unit": "Stk"
              },
              "denominator": {
                "value": 1
              }
            }
          }
        ],
        "basedOn": [
          {
            "reference": "Task/160.000.006.293.357.66"
          }
        ],
        "status": "unknown",
        "about": [
          {
            "reference": "#dd5ff773-9e00-46ff-96d2-9a20a9c5460a"
          }
        ],
        "sent": "2023-02-18T23:43:41.965+00:00",
        "recipient": [
          {
            "identifier": {
              "system": "https://gematik.de/fhir/NamingSystem/TelematikID",
              "value": "1-2-ARZT-BerndClaudius01"
            }
          }
        ],
        "sender": {
          "identifier": {
            "system": "http://fhir.de/NamingSystem/gkv/kvid-10",
            "value": "X110498565"
          }
        },
        "payload": [
          {
            "extension": [
              {
                "url": "https://gematik.de/fhir/StructureDefinition/InsuranceProvider",
                "valueIdentifier": {
                  "system": "http://fhir.de/NamingSystem/arge-ik/iknr",
                  "value": "073284005"
                }
              },
              {
                "url": "https://gematik.de/fhir/StructureDefinition/SubstitutionAllowedType",
                "valueBoolean": true
              },
              {
                "url": "https://gematik.de/fhir/StructureDefinition/PrescriptionType",
                "valueCoding": {
                  "system": "https://gematik.de/fhir/CodeSystem/Flowtype",
                  "code": "160",
                  "display": "Muster 16 (Apothekenpflichtige Arzneimittel)"
                }
              }
            ],
            "contentString": "Life? Don't talk to me about life."
          }
        ]
      },
      "search": {
        "mode": "match"
      }
    },
    {
      "fullUrl": "https://erp-test.zentral.erp.splitdns.ti-dienste.de/Communication/01eb9ecb-9dbd-bf60-c207-da1cf51a9544",
      "resource": {
        "resourceType": "Communication",
        "id": "01eb9ecb-9dbd-bf60-c207-da1cf51a9544",
        "meta": {
          "profile": [
            "https://gematik.de/fhir/StructureDefinition/ErxCommunicationInfoReq"
          ]
        },
        "contained": [
          {
            "resourceType": "Medication",
            "id": "3995147f-40a9-4604-b28f-dfb44b6e5142",
            "meta": {
              "profile": [
                "https://fhir.kbv.de/StructureDefinition/KBV_PR_ERP_Medication_PZN|1.0.2"
              ]
            },
            "extension": [
              {
                "url": "https://fhir.kbv.de/StructureDefinition/KBV_EX_ERP_Medication_Category",
                "valueCoding": {
                  "system": "https://fhir.kbv.de/CodeSystem/KBV_CS_ERP_Medication_Category",
                  "code": "00"
                }
              },
              {
                "url": "https://fhir.kbv.de/StructureDefinition/KBV_EX_ERP_Medication_Vaccine",
                "valueBoolean": false
              },
              {
                "url": "http://fhir.de/StructureDefinition/normgroesse",
                "valueCode": "NB"
              }
            ],
            "code": {
              "coding": [
                {
                  "system": "http://fhir.de/CodeSystem/ifa/pzn",
                  "code": "12345678"
                }
              ],
              "text": "Schmerzmittel"
            },
            "form": {
              "coding": [
                {
                  "system": "https://fhir.kbv.de/CodeSystem/KBV_CS_SFHIR_KBV_DARREICHUNGSFORM",
                  "code": "TAB"
                }
              ]
            },
            "amount": {
              "numerator": {
                "value": 1,
                "unit": "Stk"
              },
              "denominator": {
                "value": 1
              }
            }
          }
        ],
        "basedOn": [
          {
            "reference": "Task/160.000.006.293.071.51"
          }
        ],
        "status": "unknown",
        "about": [
          {
            "reference": "#3995147f-40a9-4604-b28f-dfb44b6e5142"
          }
        ],
        "sent": "2023-02-17T23:35:26.940+00:00",
        "recipient": [
          {
            "identifier": {
              "system": "https://gematik.de/fhir/NamingSystem/TelematikID",
              "value": "1-2-ARZT-BerndClaudius01"
            }
          }
        ],
        "sender": {
          "identifier": {
            "system": "http://fhir.de/NamingSystem/gkv/kvid-10",
            "value": "X110498565"
          }
        },
        "payload": [
          {
            "extension": [
              {
                "url": "https://gematik.de/fhir/StructureDefinition/InsuranceProvider",
                "valueIdentifier": {
                  "system": "http://fhir.de/NamingSystem/arge-ik/iknr",
                  "value": "724758054"
                }
              },
              {
                "url": "https://gematik.de/fhir/StructureDefinition/SubstitutionAllowedType",
                "valueBoolean": true
              },
              {
                "url": "https://gematik.de/fhir/StructureDefinition/PrescriptionType",
                "valueCoding": {
                  "system": "https://gematik.de/fhir/CodeSystem/Flowtype",
                  "code": "160",
                  "display": "Muster 16 (Apothekenpflichtige Arzneimittel)"
                }
              }
            ],
            "contentString": "I won't enjoy it."
          }
        ]
      },
      "search": {
        "mode": "match"
      }
    },
    {
      "fullUrl": "https://erp-test.zentral.erp.splitdns.ti-dienste.de/Communication/01eb9eb7-71fc-ece8-86e2-068edb051af2",
      "resource": {
        "resourceType": "Communication",
        "id": "01eb9eb7-71fc-ece8-86e2-068edb051af2",
        "meta": {
          "profile": [
            "https://gematik.de/fhir/StructureDefinition/ErxCommunicationInfoReq"
          ]
        },
        "contained": [
          {
            "resourceType": "Medication",
            "id": "1deba3f8-171a-479b-a364-b14a67331129",
            "meta": {
              "profile": [
                "https://fhir.kbv.de/StructureDefinition/KBV_PR_ERP_Medication_PZN|1.0.2"
              ]
            },
            "extension": [
              {
                "url": "https://fhir.kbv.de/StructureDefinition/KBV_EX_ERP_Medication_Category",
                "valueCoding": {
                  "system": "https://fhir.kbv.de/CodeSystem/KBV_CS_ERP_Medication_Category",
                  "code": "00"
                }
              },
              {
                "url": "https://fhir.kbv.de/StructureDefinition/KBV_EX_ERP_Medication_Vaccine",
                "valueBoolean": false
              },
              {
                "url": "http://fhir.de/StructureDefinition/normgroesse",
                "valueCode": "NB"
              }
            ],
            "code": {
              "coding": [
                {
                  "system": "http://fhir.de/CodeSystem/ifa/pzn",
                  "code": "12345678"
                }
              ],
              "text": "Schmerzmittel"
            },
            "form": {
              "coding": [
                {
                  "system": "https://fhir.kbv.de/CodeSystem/KBV_CS_SFHIR_KBV_DARREICHUNGSFORM",
                  "code": "TAB"
                }
              ]
            },
            "amount": {
              "numerator": {
                "value": 1,
                "unit": "Stk"
              },
              "denominator": {
                "value": 1
              }
            }
          }
        ],
        "basedOn": [
          {
            "reference": "Task/160.000.006.292.762.08"
          }
        ],
        "status": "unknown",
        "about": [
          {
            "reference": "#1deba3f8-171a-479b-a364-b14a67331129"
          }
        ],
        "sent": "2023-02-16T23:31:33.537+00:00",
        "recipient": [
          {
            "identifier": {
              "system": "https://gematik.de/fhir/NamingSystem/TelematikID",
              "value": "1-2-ARZT-BerndClaudius01"
            }
          }
        ],
        "sender": {
          "identifier": {
            "system": "http://fhir.de/NamingSystem/gkv/kvid-10",
            "value": "X110498565"
          }
        },
        "payload": [
          {
            "extension": [
              {
                "url": "https://gematik.de/fhir/StructureDefinition/InsuranceProvider",
                "valueIdentifier": {
                  "system": "http://fhir.de/NamingSystem/arge-ik/iknr",
                  "value": "993741135"
                }
              },
              {
                "url": "https://gematik.de/fhir/StructureDefinition/SubstitutionAllowedType",
                "valueBoolean": true
              },
              {
                "url": "https://gematik.de/fhir/StructureDefinition/PrescriptionType",
                "valueCoding": {
                  "system": "https://gematik.de/fhir/CodeSystem/Flowtype",
                  "code": "160",
                  "display": "Muster 16 (Apothekenpflichtige Arzneimittel)"
                }
              }
            ],
            "contentString": "There's only one life-form as intelligent as me within thirty parsecs of here and that's me."
          }
        ]
      },
      "search": {
        "mode": "match"
      }
    },
    {
      "fullUrl": "https://erp-test.zentral.erp.splitdns.ti-dienste.de/Communication/01eb9ea3-19a6-3950-b759-8593d8cedffc",
      "resource": {
        "resourceType": "Communication",
        "id": "01eb9ea3-19a6-3950-b759-8593d8cedffc",
        "meta": {
          "profile": [
            "https://gematik.de/fhir/StructureDefinition/ErxCommunicationInfoReq"
          ]
        },
        "contained": [
          {
            "resourceType": "Medication",
            "id": "3db2bb72-d15e-4c1b-9943-9db57d722156",
            "meta": {
              "profile": [
                "https://fhir.kbv.de/StructureDefinition/KBV_PR_ERP_Medication_PZN|1.0.2"
              ]
            },
            "extension": [
              {
                "url": "https://fhir.kbv.de/StructureDefinition/KBV_EX_ERP_Medication_Category",
                "valueCoding": {
                  "system": "https://fhir.kbv.de/CodeSystem/KBV_CS_ERP_Medication_Category",
                  "code": "00"
                }
              },
              {
                "url": "https://fhir.kbv.de/StructureDefinition/KBV_EX_ERP_Medication_Vaccine",
                "valueBoolean": false
              },
              {
                "url": "http://fhir.de/StructureDefinition/normgroesse",
                "valueCode": "NB"
              }
            ],
            "code": {
              "coding": [
                {
                  "system": "http://fhir.de/CodeSystem/ifa/pzn",
                  "code": "12345678"
                }
              ],
              "text": "Schmerzmittel"
            },
            "form": {
              "coding": [
                {
                  "system": "https://fhir.kbv.de/CodeSystem/KBV_CS_SFHIR_KBV_DARREICHUNGSFORM",
                  "code": "TAB"
                }
              ]
            },
            "amount": {
              "numerator": {
                "value": 1,
                "unit": "Stk"
              },
              "denominator": {
                "value": 1
              }
            }
          }
        ],
        "basedOn": [
          {
            "reference": "Task/160.000.006.292.473.02"
          }
        ],
        "status": "unknown",
        "about": [
          {
            "reference": "#3db2bb72-d15e-4c1b-9943-9db57d722156"
          }
        ],
        "sent": "2023-02-15T23:15:12.114+00:00",
        "recipient": [
          {
            "identifier": {
              "system": "https://gematik.de/fhir/NamingSystem/TelematikID",
              "value": "1-2-ARZT-BerndClaudius01"
            }
          }
        ],
        "sender": {
          "identifier": {
            "system": "http://fhir.de/NamingSystem/gkv/kvid-10",
            "value": "X110498565"
          }
        },
        "payload": [
          {
            "extension": [
              {
                "url": "https://gematik.de/fhir/StructureDefinition/InsuranceProvider",
                "valueIdentifier": {
                  "system": "http://fhir.de/NamingSystem/arge-ik/iknr",
                  "value": "365949318"
                }
              },
              {
                "url": "https://gematik.de/fhir/StructureDefinition/SubstitutionAllowedType",
                "valueBoolean": true
              },
              {
                "url": "https://gematik.de/fhir/StructureDefinition/PrescriptionType",
                "valueCoding": {
                  "system": "https://gematik.de/fhir/CodeSystem/Flowtype",
                  "code": "160",
                  "display": "Muster 16 (Apothekenpflichtige Arzneimittel)"
                }
              }
            ],
            "contentString": "I wish you'd just tell me rather trying to engage my enthusiasm, because I haven't got one."
          }
        ]
      },
      "search": {
        "mode": "match"
      }
    },
    {
      "fullUrl": "https://erp-test.zentral.erp.splitdns.ti-dienste.de/Communication/01eb9e8f-3a78-2b70-e168-43a8a58f394e",
      "resource": {
        "resourceType": "Communication",
        "id": "01eb9e8f-3a78-2b70-e168-43a8a58f394e",
        "meta": {
          "profile": [
            "https://gematik.de/fhir/StructureDefinition/ErxCommunicationInfoReq"
          ]
        },
        "contained": [
          {
            "resourceType": "Medication",
            "id": "d729560e-484c-49c1-a764-6c16fbe297ed",
            "meta": {
              "profile": [
                "https://fhir.kbv.de/StructureDefinition/KBV_PR_ERP_Medication_PZN|1.0.2"
              ]
            },
            "extension": [
              {
                "url": "https://fhir.kbv.de/StructureDefinition/KBV_EX_ERP_Medication_Category",
                "valueCoding": {
                  "system": "https://fhir.kbv.de/CodeSystem/KBV_CS_ERP_Medication_Category",
                  "code": "00"
                }
              },
              {
                "url": "https://fhir.kbv.de/StructureDefinition/KBV_EX_ERP_Medication_Vaccine",
                "valueBoolean": false
              },
              {
                "url": "http://fhir.de/StructureDefinition/normgroesse",
                "valueCode": "NB"
              }
            ],
            "code": {
              "coding": [
                {
                  "system": "http://fhir.de/CodeSystem/ifa/pzn",
                  "code": "12345678"
                }
              ],
              "text": "Schmerzmittel"
            },
            "form": {
              "coding": [
                {
                  "system": "https://fhir.kbv.de/CodeSystem/KBV_CS_SFHIR_KBV_DARREICHUNGSFORM",
                  "code": "TAB"
                }
              ]
            },
            "amount": {
              "numerator": {
                "value": 1,
                "unit": "Stk"
              },
              "denominator": {
                "value": 1
              }
            }
          }
        ],
        "basedOn": [
          {
            "reference": "Task/160.000.006.292.180.08"
          }
        ],
        "status": "unknown",
        "about": [
          {
            "reference": "#d729560e-484c-49c1-a764-6c16fbe297ed"
          }
        ],
        "sent": "2023-02-14T23:32:43.398+00:00",
        "recipient": [
          {
            "identifier": {
              "system": "https://gematik.de/fhir/NamingSystem/TelematikID",
              "value": "1-2-ARZT-BerndClaudius01"
            }
          }
        ],
        "sender": {
          "identifier": {
            "system": "http://fhir.de/NamingSystem/gkv/kvid-10",
            "value": "X110498565"
          }
        },
        "payload": [
          {
            "extension": [
              {
                "url": "https://gematik.de/fhir/StructureDefinition/InsuranceProvider",
                "valueIdentifier": {
                  "system": "http://fhir.de/NamingSystem/arge-ik/iknr",
                  "value": "121669515"
                }
              },
              {
                "url": "https://gematik.de/fhir/StructureDefinition/SubstitutionAllowedType",
                "valueBoolean": true
              },
              {
                "url": "https://gematik.de/fhir/StructureDefinition/PrescriptionType",
                "valueCoding": {
                  "system": "https://gematik.de/fhir/CodeSystem/Flowtype",
                  "code": "160",
                  "display": "Muster 16 (Apothekenpflichtige Arzneimittel)"
                }
              }
            ],
            "contentString": "I wish you'd just tell me rather trying to engage my enthusiasm, because I haven't got one."
          }
        ]
      },
      "search": {
        "mode": "match"
      }
    },
    {
      "fullUrl": "https://erp-test.zentral.erp.splitdns.ti-dienste.de/Communication/01eb9e7b-2ff3-4068-d85a-49ebb2a13f6e",
      "resource": {
        "resourceType": "Communication",
        "id": "01eb9e7b-2ff3-4068-d85a-49ebb2a13f6e",
        "meta": {
          "profile": [
            "https://gematik.de/fhir/StructureDefinition/ErxCommunicationInfoReq"
          ]
        },
        "contained": [
          {
            "resourceType": "Medication",
            "id": "e6376b42-b1c6-4fbb-a1e4-92ff05ed27bb",
            "meta": {
              "profile": [
                "https://fhir.kbv.de/StructureDefinition/KBV_PR_ERP_Medication_PZN|1.0.2"
              ]
            },
            "extension": [
              {
                "url": "https://fhir.kbv.de/StructureDefinition/KBV_EX_ERP_Medication_Category",
                "valueCoding": {
                  "system": "https://fhir.kbv.de/CodeSystem/KBV_CS_ERP_Medication_Category",
                  "code": "00"
                }
              },
              {
                "url": "https://fhir.kbv.de/StructureDefinition/KBV_EX_ERP_Medication_Vaccine",
                "valueBoolean": false
              },
              {
                "url": "http://fhir.de/StructureDefinition/normgroesse",
                "valueCode": "NB"
              }
            ],
            "code": {
              "coding": [
                {
                  "system": "http://fhir.de/CodeSystem/ifa/pzn",
                  "code": "12345678"
                }
              ],
              "text": "Schmerzmittel"
            },
            "form": {
              "coding": [
                {
                  "system": "https://fhir.kbv.de/CodeSystem/KBV_CS_SFHIR_KBV_DARREICHUNGSFORM",
                  "code": "TAB"
                }
              ]
            },
            "amount": {
              "numerator": {
                "value": 1,
                "unit": "Stk"
              },
              "denominator": {
                "value": 1
              }
            }
          }
        ],
        "basedOn": [
          {
            "reference": "Task/160.000.006.291.876.47"
          }
        ],
        "status": "unknown",
        "about": [
          {
            "reference": "#e6376b42-b1c6-4fbb-a1e4-92ff05ed27bb"
          }
        ],
        "sent": "2023-02-13T23:38:07.569+00:00",
        "recipient": [
          {
            "identifier": {
              "system": "https://gematik.de/fhir/NamingSystem/TelematikID",
              "value": "1-2-ARZT-BerndClaudius01"
            }
          }
        ],
        "sender": {
          "identifier": {
            "system": "http://fhir.de/NamingSystem/gkv/kvid-10",
            "value": "X110498565"
          }
        },
        "payload": [
          {
            "extension": [
              {
                "url": "https://gematik.de/fhir/StructureDefinition/InsuranceProvider",
                "valueIdentifier": {
                  "system": "http://fhir.de/NamingSystem/arge-ik/iknr",
                  "value": "171187661"
                }
              },
              {
                "url": "https://gematik.de/fhir/StructureDefinition/SubstitutionAllowedType",
                "valueBoolean": true
              },
              {
                "url": "https://gematik.de/fhir/StructureDefinition/PrescriptionType",
                "valueCoding": {
                  "system": "https://gematik.de/fhir/CodeSystem/Flowtype",
                  "code": "160",
                  "display": "Muster 16 (Apothekenpflichtige Arzneimittel)"
                }
              }
            ],
            "contentString": "I won't enjoy it."
          }
        ]
      },
      "search": {
        "mode": "match"
      }
    },
    {
      "fullUrl": "https://erp-test.zentral.erp.splitdns.ti-dienste.de/Communication/01eb9e66-fed8-7ae8-b879-fa10f3f0f8cb",
      "resource": {
        "resourceType": "Communication",
        "id": "01eb9e66-fed8-7ae8-b879-fa10f3f0f8cb",
        "meta": {
          "profile": [
            "https://gematik.de/fhir/StructureDefinition/ErxCommunicationInfoReq"
          ]
        },
        "contained": [
          {
            "resourceType": "Medication",
            "id": "adb2a140-6806-4696-9057-b538180ae58d",
            "meta": {
              "profile": [
                "https://fhir.kbv.de/StructureDefinition/KBV_PR_ERP_Medication_PZN|1.0.2"
              ]
            },
            "extension": [
              {
                "url": "https://fhir.kbv.de/StructureDefinition/KBV_EX_ERP_Medication_Category",
                "valueCoding": {
                  "system": "https://fhir.kbv.de/CodeSystem/KBV_CS_ERP_Medication_Category",
                  "code": "00"
                }
              },
              {
                "url": "https://fhir.kbv.de/StructureDefinition/KBV_EX_ERP_Medication_Vaccine",
                "valueBoolean": false
              },
              {
                "url": "http://fhir.de/StructureDefinition/normgroesse",
                "valueCode": "NB"
              }
            ],
            "code": {
              "coding": [
                {
                  "system": "http://fhir.de/CodeSystem/ifa/pzn",
                  "code": "12345678"
                }
              ],
              "text": "Schmerzmittel"
            },
            "form": {
              "coding": [
                {
                  "system": "https://fhir.kbv.de/CodeSystem/KBV_CS_SFHIR_KBV_DARREICHUNGSFORM",
                  "code": "TAB"
                }
              ]
            },
            "amount": {
              "numerator": {
                "value": 1,
                "unit": "Stk"
              },
              "denominator": {
                "value": 1
              }
            }
          }
        ],
        "basedOn": [
          {
            "reference": "Task/160.000.006.291.508.84"
          }
        ],
        "status": "unknown",
        "about": [
          {
            "reference": "#adb2a140-6806-4696-9057-b538180ae58d"
          }
        ],
        "sent": "2023-02-12T23:32:44.385+00:00",
        "recipient": [
          {
            "identifier": {
              "system": "https://gematik.de/fhir/NamingSystem/TelematikID",
              "value": "1-2-ARZT-BerndClaudius01"
            }
          }
        ],
        "sender": {
          "identifier": {
            "system": "http://fhir.de/NamingSystem/gkv/kvid-10",
            "value": "X110498565"
          }
        },
        "payload": [
          {
            "extension": [
              {
                "url": "https://gematik.de/fhir/StructureDefinition/InsuranceProvider",
                "valueIdentifier": {
                  "system": "http://fhir.de/NamingSystem/arge-ik/iknr",
                  "value": "160462205"
                }
              },
              {
                "url": "https://gematik.de/fhir/StructureDefinition/SubstitutionAllowedType",
                "valueBoolean": true
              },
              {
                "url": "https://gematik.de/fhir/StructureDefinition/PrescriptionType",
                "valueCoding": {
                  "system": "https://gematik.de/fhir/CodeSystem/Flowtype",
                  "code": "160",
                  "display": "Muster 16 (Apothekenpflichtige Arzneimittel)"
                }
              }
            ],
            "contentString": "And then of course I've got this terrible pain in all the diodes down my left side."
          }
        ]
      },
      "search": {
        "mode": "match"
      }
    },
    {
      "fullUrl": "https://erp-test.zentral.erp.splitdns.ti-dienste.de/Communication/01eb9e52-8e83-e700-1a26-6c66e2f30f70",
      "resource": {
        "resourceType": "Communication",
        "id": "01eb9e52-8e83-e700-1a26-6c66e2f30f70",
        "meta": {
          "profile": [
            "https://gematik.de/fhir/StructureDefinition/ErxCommunicationInfoReq"
          ]
        },
        "contained": [
          {
            "resourceType": "Medication",
            "id": "d479dc51-9a6f-413d-8deb-e54838e4aa25",
            "meta": {
              "profile": [
                "https://fhir.kbv.de/StructureDefinition/KBV_PR_ERP_Medication_PZN|1.0.2"
              ]
            },
            "extension": [
              {
                "url": "https://fhir.kbv.de/StructureDefinition/KBV_EX_ERP_Medication_Category",
                "valueCoding": {
                  "system": "https://fhir.kbv.de/CodeSystem/KBV_CS_ERP_Medication_Category",
                  "code": "00"
                }
              },
              {
                "url": "https://fhir.kbv.de/StructureDefinition/KBV_EX_ERP_Medication_Vaccine",
                "valueBoolean": false
              },
              {
                "url": "http://fhir.de/StructureDefinition/normgroesse",
                "valueCode": "NB"
              }
            ],
            "code": {
              "coding": [
                {
                  "system": "http://fhir.de/CodeSystem/ifa/pzn",
                  "code": "12345678"
                }
              ],
              "text": "Schmerzmittel"
            },
            "form": {
              "coding": [
                {
                  "system": "https://fhir.kbv.de/CodeSystem/KBV_CS_SFHIR_KBV_DARREICHUNGSFORM",
                  "code": "TAB"
                }
              ]
            },
            "amount": {
              "numerator": {
                "value": 1,
                "unit": "Stk"
              },
              "denominator": {
                "value": 1
              }
            }
          }
        ],
        "basedOn": [
          {
            "reference": "Task/160.000.006.291.222.69"
          }
        ],
        "status": "unknown",
        "about": [
          {
            "reference": "#d479dc51-9a6f-413d-8deb-e54838e4aa25"
          }
        ],
        "sent": "2023-02-11T23:09:40.448+00:00",
        "recipient": [
          {
            "identifier": {
              "system": "https://gematik.de/fhir/NamingSystem/TelematikID",
              "value": "1-2-ARZT-BerndClaudius01"
            }
          }
        ],
        "sender": {
          "identifier": {
            "system": "http://fhir.de/NamingSystem/gkv/kvid-10",
            "value": "X110498565"
          }
        },
        "payload": [
          {
            "extension": [
              {
                "url": "https://gematik.de/fhir/StructureDefinition/InsuranceProvider",
                "valueIdentifier": {
                  "system": "http://fhir.de/NamingSystem/arge-ik/iknr",
                  "value": "822313838"
                }
              },
              {
                "url": "https://gematik.de/fhir/StructureDefinition/SubstitutionAllowedType",
                "valueBoolean": true
              },
              {
                "url": "https://gematik.de/fhir/StructureDefinition/PrescriptionType",
                "valueCoding": {
                  "system": "https://gematik.de/fhir/CodeSystem/Flowtype",
                  "code": "160",
                  "display": "Muster 16 (Apothekenpflichtige Arzneimittel)"
                }
              }
            ],
            "contentString": "I wish you'd just tell me rather trying to engage my enthusiasm, because I haven't got one."
          }
        ]
      },
      "search": {
        "mode": "match"
      }
    },
    {
      "fullUrl": "https://erp-test.zentral.erp.splitdns.ti-dienste.de/Communication/01eb9e3e-bbbd-b0c0-a67d-f8adde153138",
      "resource": {
        "resourceType": "Communication",
        "id": "01eb9e3e-bbbd-b0c0-a67d-f8adde153138",
        "meta": {
          "profile": [
            "https://gematik.de/fhir/StructureDefinition/ErxCommunicationInfoReq"
          ]
        },
        "contained": [
          {
            "resourceType": "Medication",
            "id": "c6ab60b5-5e41-4259-9dc8-9ebd955e76a7",
            "meta": {
              "profile": [
                "https://fhir.kbv.de/StructureDefinition/KBV_PR_ERP_Medication_PZN|1.0.2"
              ]
            },
            "extension": [
              {
                "url": "https://fhir.kbv.de/StructureDefinition/KBV_EX_ERP_Medication_Category",
                "valueCoding": {
                  "system": "https://fhir.kbv.de/CodeSystem/KBV_CS_ERP_Medication_Category",
                  "code": "00"
                }
              },
              {
                "url": "https://fhir.kbv.de/StructureDefinition/KBV_EX_ERP_Medication_Vaccine",
                "valueBoolean": false
              },
              {
                "url": "http://fhir.de/StructureDefinition/normgroesse",
                "valueCode": "NB"
              }
            ],
            "code": {
              "coding": [
                {
                  "system": "http://fhir.de/CodeSystem/ifa/pzn",
                  "code": "12345678"
                }
              ],
              "text": "Schmerzmittel"
            },
            "form": {
              "coding": [
                {
                  "system": "https://fhir.kbv.de/CodeSystem/KBV_CS_SFHIR_KBV_DARREICHUNGSFORM",
                  "code": "TAB"
                }
              ]
            },
            "amount": {
              "numerator": {
                "value": 1,
                "unit": "Stk"
              },
              "denominator": {
                "value": 1
              }
            }
          }
        ],
        "basedOn": [
          {
            "reference": "Task/160.000.006.290.936.54"
          }
        ],
        "status": "unknown",
        "about": [
          {
            "reference": "#c6ab60b5-5e41-4259-9dc8-9ebd955e76a7"
          }
        ],
        "sent": "2023-02-10T23:30:39.864+00:00",
        "recipient": [
          {
            "identifier": {
              "system": "https://gematik.de/fhir/NamingSystem/TelematikID",
              "value": "1-2-ARZT-BerndClaudius01"
            }
          }
        ],
        "sender": {
          "identifier": {
            "system": "http://fhir.de/NamingSystem/gkv/kvid-10",
            "value": "X110498565"
          }
        },
        "payload": [
          {
            "extension": [
              {
                "url": "https://gematik.de/fhir/StructureDefinition/InsuranceProvider",
                "valueIdentifier": {
                  "system": "http://fhir.de/NamingSystem/arge-ik/iknr",
                  "value": "933385325"
                }
              },
              {
                "url": "https://gematik.de/fhir/StructureDefinition/SubstitutionAllowedType",
                "valueBoolean": true
              },
              {
                "url": "https://gematik.de/fhir/StructureDefinition/PrescriptionType",
                "valueCoding": {
                  "system": "https://gematik.de/fhir/CodeSystem/Flowtype",
                  "code": "160",
                  "display": "Muster 16 (Apothekenpflichtige Arzneimittel)"
                }
              }
            ],
            "contentString": "Life? Don't talk to me about life."
          }
        ]
      },
      "search": {
        "mode": "match"
      }
    },
    {
      "fullUrl": "https://erp-test.zentral.erp.splitdns.ti-dienste.de/Communication/01eb9e37-497a-68e8-c1a5-184d74e3b457",
      "resource": {
        "resourceType": "Communication",
        "id": "01eb9e37-497a-68e8-c1a5-184d74e3b457",
        "meta": {
          "profile": [
            "https://gematik.de/fhir/StructureDefinition/ErxCommunicationInfoReq"
          ]
        },
        "contained": [
          {
            "resourceType": "Medication",
            "id": "4d47c2d0-40bc-4fc8-ba90-262f444c944f",
            "meta": {
              "profile": [
                "https://fhir.kbv.de/StructureDefinition/KBV_PR_ERP_Medication_PZN|1.0.2"
              ]
            },
            "extension": [
              {
                "url": "https://fhir.kbv.de/StructureDefinition/KBV_EX_ERP_Medication_Category",
                "valueCoding": {
                  "system": "https://fhir.kbv.de/CodeSystem/KBV_CS_ERP_Medication_Category",
                  "code": "00"
                }
              },
              {
                "url": "https://fhir.kbv.de/StructureDefinition/KBV_EX_ERP_Medication_Vaccine",
                "valueBoolean": false
              },
              {
                "url": "http://fhir.de/StructureDefinition/normgroesse",
                "valueCode": "NB"
              }
            ],
            "code": {
              "coding": [
                {
                  "system": "http://fhir.de/CodeSystem/ifa/pzn",
                  "code": "12345678"
                }
              ],
              "text": "Schmerzmittel"
            },
            "form": {
              "coding": [
                {
                  "system": "https://fhir.kbv.de/CodeSystem/KBV_CS_SFHIR_KBV_DARREICHUNGSFORM",
                  "code": "TAB"
                }
              ]
            },
            "amount": {
              "numerator": {
                "value": 1,
                "unit": "Stk"
              },
              "denominator": {
                "value": 1
              }
            }
          }
        ],
        "basedOn": [
          {
            "reference": "Task/160.000.006.290.867.67"
          }
        ],
        "status": "unknown",
        "about": [
          {
            "reference": "#4d47c2d0-40bc-4fc8-ba90-262f444c944f"
          }
        ],
        "sent": "2023-02-10T14:37:38.081+00:00",
        "recipient": [
          {
            "identifier": {
              "system": "https://gematik.de/fhir/NamingSystem/TelematikID",
              "value": "1-2-ARZT-BerndClaudius01"
            }
          }
        ],
        "sender": {
          "identifier": {
            "system": "http://fhir.de/NamingSystem/gkv/kvid-10",
            "value": "X110498565"
          }
        },
        "payload": [
          {
            "extension": [
              {
                "url": "https://gematik.de/fhir/StructureDefinition/InsuranceProvider",
                "valueIdentifier": {
                  "system": "http://fhir.de/NamingSystem/arge-ik/iknr",
                  "value": "148924974"
                }
              },
              {
                "url": "https://gematik.de/fhir/StructureDefinition/SubstitutionAllowedType",
                "valueBoolean": true
              },
              {
                "url": "https://gematik.de/fhir/StructureDefinition/PrescriptionType",
                "valueCoding": {
                  "system": "https://gematik.de/fhir/CodeSystem/Flowtype",
                  "code": "160",
                  "display": "Muster 16 (Apothekenpflichtige Arzneimittel)"
                }
              }
            ],
            "contentString": "And then of course I've got this terrible pain in all the diodes down my left side."
          }
        ]
      },
      "search": {
        "mode": "match"
      }
    },
    {
      "fullUrl": "https://erp-test.zentral.erp.splitdns.ti-dienste.de/Communication/01eb9e36-56a0-6190-c8e1-d664d59f9796",
      "resource": {
        "resourceType": "Communication",
        "id": "01eb9e36-56a0-6190-c8e1-d664d59f9796",
        "meta": {
          "profile": [
            "https://gematik.de/fhir/StructureDefinition/ErxCommunicationInfoReq"
          ]
        },
        "contained": [
          {
            "resourceType": "Medication",
            "id": "af734a4b-0d1c-4f3e-b1e5-e1ef9d5021c5",
            "meta": {
              "profile": [
                "https://fhir.kbv.de/StructureDefinition/KBV_PR_ERP_Medication_PZN|1.0.2"
              ]
            },
            "extension": [
              {
                "url": "https://fhir.kbv.de/StructureDefinition/KBV_EX_ERP_Medication_Category",
                "valueCoding": {
                  "system": "https://fhir.kbv.de/CodeSystem/KBV_CS_ERP_Medication_Category",
                  "code": "00"
                }
              },
              {
                "url": "https://fhir.kbv.de/StructureDefinition/KBV_EX_ERP_Medication_Vaccine",
                "valueBoolean": false
              },
              {
                "url": "http://fhir.de/StructureDefinition/normgroesse",
                "valueCode": "NB"
              }
            ],
            "code": {
              "coding": [
                {
                  "system": "http://fhir.de/CodeSystem/ifa/pzn",
                  "code": "12345678"
                }
              ],
              "text": "Schmerzmittel"
            },
            "form": {
              "coding": [
                {
                  "system": "https://fhir.kbv.de/CodeSystem/KBV_CS_SFHIR_KBV_DARREICHUNGSFORM",
                  "code": "TAB"
                }
              ]
            },
            "amount": {
              "numerator": {
                "value": 1,
                "unit": "Stk"
              },
              "denominator": {
                "value": 1
              }
            }
          }
        ],
        "basedOn": [
          {
            "reference": "Task/160.000.006.290.737.69"
          }
        ],
        "status": "unknown",
        "about": [
          {
            "reference": "#af734a4b-0d1c-4f3e-b1e5-e1ef9d5021c5"
          }
        ],
        "sent": "2023-02-10T13:29:43.706+00:00",
        "recipient": [
          {
            "identifier": {
              "system": "https://gematik.de/fhir/NamingSystem/TelematikID",
              "value": "1-2-ARZT-BerndClaudius01"
            }
          }
        ],
        "sender": {
          "identifier": {
            "system": "http://fhir.de/NamingSystem/gkv/kvid-10",
            "value": "X110498565"
          }
        },
        "payload": [
          {
            "extension": [
              {
                "url": "https://gematik.de/fhir/StructureDefinition/InsuranceProvider",
                "valueIdentifier": {
                  "system": "http://fhir.de/NamingSystem/arge-ik/iknr",
                  "value": "688760374"
                }
              },
              {
                "url": "https://gematik.de/fhir/StructureDefinition/SubstitutionAllowedType",
                "valueBoolean": true
              },
              {
                "url": "https://gematik.de/fhir/StructureDefinition/PrescriptionType",
                "valueCoding": {
                  "system": "https://gematik.de/fhir/CodeSystem/Flowtype",
                  "code": "160",
                  "display": "Muster 16 (Apothekenpflichtige Arzneimittel)"
                }
              }
            ],
            "contentString": "There's only one life-form as intelligent as me within thirty parsecs of here and that's me."
          }
        ]
      },
      "search": {
        "mode": "match"
      }
    },
    {
      "fullUrl": "https://erp-test.zentral.erp.splitdns.ti-dienste.de/Communication/01eb9e2a-e9cf-c598-4013-2e999fc80498",
      "resource": {
        "resourceType": "Communication",
        "id": "01eb9e2a-e9cf-c598-4013-2e999fc80498",
        "meta": {
          "profile": [
            "https://gematik.de/fhir/StructureDefinition/ErxCommunicationInfoReq"
          ]
        },
        "contained": [
          {
            "resourceType": "Medication",
            "id": "064de5e0-9b4a-45b9-bc7f-bec5d654a637",
            "meta": {
              "profile": [
                "https://fhir.kbv.de/StructureDefinition/KBV_PR_ERP_Medication_PZN|1.0.2"
              ]
            },
            "extension": [
              {
                "url": "https://fhir.kbv.de/StructureDefinition/KBV_EX_ERP_Medication_Category",
                "valueCoding": {
                  "system": "https://fhir.kbv.de/CodeSystem/KBV_CS_ERP_Medication_Category",
                  "code": "00"
                }
              },
              {
                "url": "https://fhir.kbv.de/StructureDefinition/KBV_EX_ERP_Medication_Vaccine",
                "valueBoolean": false
              },
              {
                "url": "http://fhir.de/StructureDefinition/normgroesse",
                "valueCode": "NB"
              }
            ],
            "code": {
              "coding": [
                {
                  "system": "http://fhir.de/CodeSystem/ifa/pzn",
                  "code": "12345678"
                }
              ],
              "text": "Schmerzmittel"
            },
            "form": {
              "coding": [
                {
                  "system": "https://fhir.kbv.de/CodeSystem/KBV_CS_SFHIR_KBV_DARREICHUNGSFORM",
                  "code": "TAB"
                }
              ]
            },
            "amount": {
              "numerator": {
                "value": 1,
                "unit": "Stk"
              },
              "denominator": {
                "value": 1
              }
            }
          }
        ],
        "basedOn": [
          {
            "reference": "Task/160.000.006.290.443.78"
          }
        ],
        "status": "unknown",
        "about": [
          {
            "reference": "#064de5e0-9b4a-45b9-bc7f-bec5d654a637"
          }
        ],
        "sent": "2023-02-09T23:51:53.455+00:00",
        "recipient": [
          {
            "identifier": {
              "system": "https://gematik.de/fhir/NamingSystem/TelematikID",
              "value": "1-2-ARZT-BerndClaudius01"
            }
          }
        ],
        "sender": {
          "identifier": {
            "system": "http://fhir.de/NamingSystem/gkv/kvid-10",
            "value": "X110498565"
          }
        },
        "payload": [
          {
            "extension": [
              {
                "url": "https://gematik.de/fhir/StructureDefinition/InsuranceProvider",
                "valueIdentifier": {
                  "system": "http://fhir.de/NamingSystem/arge-ik/iknr",
                  "value": "055095503"
                }
              },
              {
                "url": "https://gematik.de/fhir/StructureDefinition/SubstitutionAllowedType",
                "valueBoolean": true
              },
              {
                "url": "https://gematik.de/fhir/StructureDefinition/PrescriptionType",
                "valueCoding": {
                  "system": "https://gematik.de/fhir/CodeSystem/Flowtype",
                  "code": "160",
                  "display": "Muster 16 (Apothekenpflichtige Arzneimittel)"
                }
              }
            ],
            "contentString": "I won't enjoy it."
          }
        ]
      },
      "search": {
        "mode": "match"
      }
    },
    {
      "fullUrl": "https://erp-test.zentral.erp.splitdns.ti-dienste.de/Communication/01eb9e22-0862-a3f8-f6b6-f460517e5323",
      "resource": {
        "resourceType": "Communication",
        "id": "01eb9e22-0862-a3f8-f6b6-f460517e5323",
        "meta": {
          "profile": [
            "https://gematik.de/fhir/StructureDefinition/ErxCommunicationInfoReq"
          ]
        },
        "contained": [
          {
            "resourceType": "Medication",
            "id": "34ed9f11-934d-42e0-a050-955b45a2654c",
            "meta": {
              "profile": [
                "https://fhir.kbv.de/StructureDefinition/KBV_PR_ERP_Medication_PZN|1.0.2"
              ]
            },
            "extension": [
              {
                "url": "https://fhir.kbv.de/StructureDefinition/KBV_EX_ERP_Medication_Category",
                "valueCoding": {
                  "system": "https://fhir.kbv.de/CodeSystem/KBV_CS_ERP_Medication_Category",
                  "code": "00"
                }
              },
              {
                "url": "https://fhir.kbv.de/StructureDefinition/KBV_EX_ERP_Medication_Vaccine",
                "valueBoolean": false
              },
              {
                "url": "http://fhir.de/StructureDefinition/normgroesse",
                "valueCode": "NB"
              }
            ],
            "code": {
              "coding": [
                {
                  "system": "http://fhir.de/CodeSystem/ifa/pzn",
                  "code": "12345678"
                }
              ],
              "text": "Schmerzmittel"
            },
            "form": {
              "coding": [
                {
                  "system": "https://fhir.kbv.de/CodeSystem/KBV_CS_SFHIR_KBV_DARREICHUNGSFORM",
                  "code": "TAB"
                }
              ]
            },
            "amount": {
              "numerator": {
                "value": 1,
                "unit": "Stk"
              },
              "denominator": {
                "value": 1
              }
            }
          }
        ],
        "basedOn": [
          {
            "reference": "Task/160.000.006.290.372.97"
          }
        ],
        "status": "unknown",
        "about": [
          {
            "reference": "#34ed9f11-934d-42e0-a050-955b45a2654c"
          }
        ],
        "sent": "2023-02-09T13:16:11.691+00:00",
        "recipient": [
          {
            "identifier": {
              "system": "https://gematik.de/fhir/NamingSystem/TelematikID",
              "value": "1-2-ARZT-BerndClaudius01"
            }
          }
        ],
        "sender": {
          "identifier": {
            "system": "http://fhir.de/NamingSystem/gkv/kvid-10",
            "value": "X110498565"
          }
        },
        "payload": [
          {
            "extension": [
              {
                "url": "https://gematik.de/fhir/StructureDefinition/InsuranceProvider",
                "valueIdentifier": {
                  "system": "http://fhir.de/NamingSystem/arge-ik/iknr",
                  "value": "728019750"
                }
              },
              {
                "url": "https://gematik.de/fhir/StructureDefinition/SubstitutionAllowedType",
                "valueBoolean": true
              },
              {
                "url": "https://gematik.de/fhir/StructureDefinition/PrescriptionType",
                "valueCoding": {
                  "system": "https://gematik.de/fhir/CodeSystem/Flowtype",
                  "code": "160",
                  "display": "Muster 16 (Apothekenpflichtige Arzneimittel)"
                }
              }
            ],
            "contentString": "You think you've got problems? What are you supposed to do if you are a manically depressed robot? No, don't try to answer that. I'm fifty thousand times more intelligent than you and even I don't know the answer. It gives me a headache just trying to think down to your level."
          }
        ]
      },
      "search": {
        "mode": "match"
      }
    },
    {
      "fullUrl": "https://erp-test.zentral.erp.splitdns.ti-dienste.de/Communication/01eb9e21-6105-9bd8-f6d7-ee1e6ee5b893",
      "resource": {
        "resourceType": "Communication",
        "id": "01eb9e21-6105-9bd8-f6d7-ee1e6ee5b893",
        "meta": {
          "profile": [
            "https://gematik.de/fhir/StructureDefinition/ErxCommunicationInfoReq"
          ]
        },
        "contained": [
          {
            "resourceType": "Medication",
            "id": "1a61c617-ae01-4b18-a5bf-5d08a59ebe7b",
            "meta": {
              "profile": [
                "https://fhir.kbv.de/StructureDefinition/KBV_PR_ERP_Medication_PZN|1.0.2"
              ]
            },
            "extension": [
              {
                "url": "https://fhir.kbv.de/StructureDefinition/KBV_EX_ERP_Medication_Category",
                "valueCoding": {
                  "system": "https://fhir.kbv.de/CodeSystem/KBV_CS_ERP_Medication_Category",
                  "code": "00"
                }
              },
              {
                "url": "https://fhir.kbv.de/StructureDefinition/KBV_EX_ERP_Medication_Vaccine",
                "valueBoolean": false
              },
              {
                "url": "http://fhir.de/StructureDefinition/normgroesse",
                "valueCode": "NB"
              }
            ],
            "code": {
              "coding": [
                {
                  "system": "http://fhir.de/CodeSystem/ifa/pzn",
                  "code": "12345678"
                }
              ],
              "text": "Schmerzmittel"
            },
            "form": {
              "coding": [
                {
                  "system": "https://fhir.kbv.de/CodeSystem/KBV_CS_SFHIR_KBV_DARREICHUNGSFORM",
                  "code": "TAB"
                }
              ]
            },
            "amount": {
              "numerator": {
                "value": 1,
                "unit": "Stk"
              },
              "denominator": {
                "value": 1
              }
            }
          }
        ],
        "basedOn": [
          {
            "reference": "Task/160.000.006.290.308.95"
          }
        ],
        "status": "unknown",
        "about": [
          {
            "reference": "#1a61c617-ae01-4b18-a5bf-5d08a59ebe7b"
          }
        ],
        "sent": "2023-02-09T12:29:23.799+00:00",
        "recipient": [
          {
            "identifier": {
              "system": "https://gematik.de/fhir/NamingSystem/TelematikID",
              "value": "1-2-ARZT-BerndClaudius01"
            }
          }
        ],
        "sender": {
          "identifier": {
            "system": "http://fhir.de/NamingSystem/gkv/kvid-10",
            "value": "X110498565"
          }
        },
        "payload": [
          {
            "extension": [
              {
                "url": "https://gematik.de/fhir/StructureDefinition/InsuranceProvider",
                "valueIdentifier": {
                  "system": "http://fhir.de/NamingSystem/arge-ik/iknr",
                  "value": "064578487"
                }
              },
              {
                "url": "https://gematik.de/fhir/StructureDefinition/SubstitutionAllowedType",
                "valueBoolean": true
              },
              {
                "url": "https://gematik.de/fhir/StructureDefinition/PrescriptionType",
                "valueCoding": {
                  "system": "https://gematik.de/fhir/CodeSystem/Flowtype",
                  "code": "160",
                  "display": "Muster 16 (Apothekenpflichtige Arzneimittel)"
                }
              }
            ],
            "contentString": "I wish you'd just tell me rather trying to engage my enthusiasm, because I haven't got one."
          }
        ]
      },
      "search": {
        "mode": "match"
      }
    },
    {
      "fullUrl": "https://erp-test.zentral.erp.splitdns.ti-dienste.de/Communication/01eb9e21-029c-8e80-02dc-bab466ffaeb2",
      "resource": {
        "resourceType": "Communication",
        "id": "01eb9e21-029c-8e80-02dc-bab466ffaeb2",
        "meta": {
          "profile": [
            "https://gematik.de/fhir/StructureDefinition/ErxCommunicationInfoReq"
          ]
        },
        "contained": [
          {
            "resourceType": "Medication",
            "id": "62a09508-6404-4886-bbf4-f216e776eeaf",
            "meta": {
              "profile": [
                "https://fhir.kbv.de/StructureDefinition/KBV_PR_ERP_Medication_PZN|1.0.2"
              ]
            },
            "extension": [
              {
                "url": "https://fhir.kbv.de/StructureDefinition/KBV_EX_ERP_Medication_Category",
                "valueCoding": {
                  "system": "https://fhir.kbv.de/CodeSystem/KBV_CS_ERP_Medication_Category",
                  "code": "00"
                }
              },
              {
                "url": "https://fhir.kbv.de/StructureDefinition/KBV_EX_ERP_Medication_Vaccine",
                "valueBoolean": false
              },
              {
                "url": "http://fhir.de/StructureDefinition/normgroesse",
                "valueCode": "NB"
              }
            ],
            "code": {
              "coding": [
                {
                  "system": "http://fhir.de/CodeSystem/ifa/pzn",
                  "code": "12345678"
                }
              ],
              "text": "Schmerzmittel"
            },
            "form": {
              "coding": [
                {
                  "system": "https://fhir.kbv.de/CodeSystem/KBV_CS_SFHIR_KBV_DARREICHUNGSFORM",
                  "code": "TAB"
                }
              ]
            },
            "amount": {
              "numerator": {
                "value": 1,
                "unit": "Stk"
              },
              "denominator": {
                "value": 1
              }
            }
          }
        ],
        "basedOn": [
          {
            "reference": "Task/160.000.006.290.264.33"
          }
        ],
        "status": "unknown",
        "about": [
          {
            "reference": "#62a09508-6404-4886-bbf4-f216e776eeaf"
          }
        ],
        "sent": "2023-02-09T12:02:59.856+00:00",
        "recipient": [
          {
            "identifier": {
              "system": "https://gematik.de/fhir/NamingSystem/TelematikID",
              "value": "1-2-ARZT-BerndClaudius01"
            }
          }
        ],
        "sender": {
          "identifier": {
            "system": "http://fhir.de/NamingSystem/gkv/kvid-10",
            "value": "X110498565"
          }
        },
        "payload": [
          {
            "extension": [
              {
                "url": "https://gematik.de/fhir/StructureDefinition/InsuranceProvider",
                "valueIdentifier": {
                  "system": "http://fhir.de/NamingSystem/arge-ik/iknr",
                  "value": "264093302"
                }
              },
              {
                "url": "https://gematik.de/fhir/StructureDefinition/SubstitutionAllowedType",
                "valueBoolean": true
              },
              {
                "url": "https://gematik.de/fhir/StructureDefinition/PrescriptionType",
                "valueCoding": {
                  "system": "https://gematik.de/fhir/CodeSystem/Flowtype",
                  "code": "160",
                  "display": "Muster 16 (Apothekenpflichtige Arzneimittel)"
                }
              }
            ],
            "contentString": "Pardon me for breathing, which I never do anyway so I don't know why I bother to say it, Oh God, I'm so depressed."
          }
        ]
      },
      "search": {
        "mode": "match"
      }
    },
    {
      "fullUrl": "https://erp-test.zentral.erp.splitdns.ti-dienste.de/Communication/01eb9e16-91dd-d6e0-dbad-0a483b11c8aa",
      "resource": {
        "resourceType": "Communication",
        "id": "01eb9e16-91dd-d6e0-dbad-0a483b11c8aa",
        "meta": {
          "profile": [
            "https://gematik.de/fhir/StructureDefinition/ErxCommunicationInfoReq"
          ]
        },
        "contained": [
          {
            "resourceType": "Medication",
            "id": "1b298d0e-2223-4b31-82cd-c382c6dd1ae1",
            "meta": {
              "profile": [
                "https://fhir.kbv.de/StructureDefinition/KBV_PR_ERP_Medication_PZN|1.0.2"
              ]
            },
            "extension": [
              {
                "url": "https://fhir.kbv.de/StructureDefinition/KBV_EX_ERP_Medication_Category",
                "valueCoding": {
                  "system": "https://fhir.kbv.de/CodeSystem/KBV_CS_ERP_Medication_Category",
                  "code": "00"
                }
              },
              {
                "url": "https://fhir.kbv.de/StructureDefinition/KBV_EX_ERP_Medication_Vaccine",
                "valueBoolean": false
              },
              {
                "url": "http://fhir.de/StructureDefinition/normgroesse",
                "valueCode": "NB"
              }
            ],
            "code": {
              "coding": [
                {
                  "system": "http://fhir.de/CodeSystem/ifa/pzn",
                  "code": "12345678"
                }
              ],
              "text": "Schmerzmittel"
            },
            "form": {
              "coding": [
                {
                  "system": "https://fhir.kbv.de/CodeSystem/KBV_CS_SFHIR_KBV_DARREICHUNGSFORM",
                  "code": "TAB"
                }
              ]
            },
            "amount": {
              "numerator": {
                "value": 1,
                "unit": "Stk"
              },
              "denominator": {
                "value": 1
              }
            }
          }
        ],
        "basedOn": [
          {
            "reference": "Task/160.000.006.289.846.26"
          }
        ],
        "status": "unknown",
        "about": [
          {
            "reference": "#1b298d0e-2223-4b31-82cd-c382c6dd1ae1"
          }
        ],
        "sent": "2023-02-08T23:35:38.636+00:00",
        "recipient": [
          {
            "identifier": {
              "system": "https://gematik.de/fhir/NamingSystem/TelematikID",
              "value": "1-2-ARZT-BerndClaudius01"
            }
          }
        ],
        "sender": {
          "identifier": {
            "system": "http://fhir.de/NamingSystem/gkv/kvid-10",
            "value": "X110498565"
          }
        },
        "payload": [
          {
            "extension": [
              {
                "url": "https://gematik.de/fhir/StructureDefinition/InsuranceProvider",
                "valueIdentifier": {
                  "system": "http://fhir.de/NamingSystem/arge-ik/iknr",
                  "value": "877204185"
                }
              },
              {
                "url": "https://gematik.de/fhir/StructureDefinition/SubstitutionAllowedType",
                "valueBoolean": true
              },
              {
                "url": "https://gematik.de/fhir/StructureDefinition/PrescriptionType",
                "valueCoding": {
                  "system": "https://gematik.de/fhir/CodeSystem/Flowtype",
                  "code": "160",
                  "display": "Muster 16 (Apothekenpflichtige Arzneimittel)"
                }
              }
            ],
            "contentString": "You think you've got problems? What are you supposed to do if you are a manically depressed robot? No, don't try to answer that. I'm fifty thousand times more intelligent than you and even I don't know the answer. It gives me a headache just trying to think down to your level."
          }
        ]
      },
      "search": {
        "mode": "match"
      }
    },
    {
      "fullUrl": "https://erp-test.zentral.erp.splitdns.ti-dienste.de/Communication/01eb9e0b-9764-1e90-5730-a6b234aa98f7",
      "resource": {
        "resourceType": "Communication",
        "id": "01eb9e0b-9764-1e90-5730-a6b234aa98f7",
        "meta": {
          "profile": [
            "https://gematik.de/fhir/StructureDefinition/ErxCommunicationInfoReq"
          ]
        },
        "contained": [
          {
            "resourceType": "Medication",
            "id": "b090eed1-4844-46f7-a79a-84fd2a6092e8",
            "meta": {
              "profile": [
                "https://fhir.kbv.de/StructureDefinition/KBV_PR_ERP_Medication_PZN|1.0.2"
              ]
            },
            "extension": [
              {
                "url": "https://fhir.kbv.de/StructureDefinition/KBV_EX_ERP_Medication_Category",
                "valueCoding": {
                  "system": "https://fhir.kbv.de/CodeSystem/KBV_CS_ERP_Medication_Category",
                  "code": "00"
                }
              },
              {
                "url": "https://fhir.kbv.de/StructureDefinition/KBV_EX_ERP_Medication_Vaccine",
                "valueBoolean": false
              },
              {
                "url": "http://fhir.de/StructureDefinition/normgroesse",
                "valueCode": "NB"
              }
            ],
            "code": {
              "coding": [
                {
                  "system": "http://fhir.de/CodeSystem/ifa/pzn",
                  "code": "12345678"
                }
              ],
              "text": "Schmerzmittel"
            },
            "form": {
              "coding": [
                {
                  "system": "https://fhir.kbv.de/CodeSystem/KBV_CS_SFHIR_KBV_DARREICHUNGSFORM",
                  "code": "TAB"
                }
              ]
            },
            "amount": {
              "numerator": {
                "value": 1,
                "unit": "Stk"
              },
              "denominator": {
                "value": 1
              }
            }
          }
        ],
        "basedOn": [
          {
            "reference": "Task/160.000.006.289.648.38"
          }
        ],
        "status": "unknown",
        "about": [
          {
            "reference": "#b090eed1-4844-46f7-a79a-84fd2a6092e8"
          }
        ],
        "sent": "2023-02-08T10:29:46.682+00:00",
        "recipient": [
          {
            "identifier": {
              "system": "https://gematik.de/fhir/NamingSystem/TelematikID",
              "value": "1-2-ARZT-BerndClaudius01"
            }
          }
        ],
        "sender": {
          "identifier": {
            "system": "http://fhir.de/NamingSystem/gkv/kvid-10",
            "value": "X110498565"
          }
        },
        "payload": [
          {
            "extension": [
              {
                "url": "https://gematik.de/fhir/StructureDefinition/InsuranceProvider",
                "valueIdentifier": {
                  "system": "http://fhir.de/NamingSystem/arge-ik/iknr",
                  "value": "292821637"
                }
              },
              {
                "url": "https://gematik.de/fhir/StructureDefinition/SubstitutionAllowedType",
                "valueBoolean": true
              },
              {
                "url": "https://gematik.de/fhir/StructureDefinition/PrescriptionType",
                "valueCoding": {
                  "system": "https://gematik.de/fhir/CodeSystem/Flowtype",
                  "code": "160",
                  "display": "Muster 16 (Apothekenpflichtige Arzneimittel)"
                }
              }
            ],
            "contentString": "Here I am, brain the size of a planet, and they tell me to take you up to the bridge. Call that job satisfaction? 'Cos I don't."
          }
        ]
      },
      "search": {
        "mode": "match"
      }
    },
    {
      "fullUrl": "https://erp-test.zentral.erp.splitdns.ti-dienste.de/Communication/01eb9e02-23a1-f968-3308-80ef3e14374e",
      "resource": {
        "resourceType": "Communication",
        "id": "01eb9e02-23a1-f968-3308-80ef3e14374e",
        "meta": {
          "profile": [
            "https://gematik.de/fhir/StructureDefinition/ErxCommunicationInfoReq"
          ]
        },
        "contained": [
          {
            "resourceType": "Medication",
            "id": "bc9a434b-f264-4634-8f32-9b5ca97b51a9",
            "meta": {
              "profile": [
                "https://fhir.kbv.de/StructureDefinition/KBV_PR_ERP_Medication_PZN|1.0.2"
              ]
            },
            "extension": [
              {
                "url": "https://fhir.kbv.de/StructureDefinition/KBV_EX_ERP_Medication_Category",
                "valueCoding": {
                  "system": "https://fhir.kbv.de/CodeSystem/KBV_CS_ERP_Medication_Category",
                  "code": "00"
                }
              },
              {
                "url": "https://fhir.kbv.de/StructureDefinition/KBV_EX_ERP_Medication_Vaccine",
                "valueBoolean": false
              },
              {
                "url": "http://fhir.de/StructureDefinition/normgroesse",
                "valueCode": "NB"
              }
            ],
            "code": {
              "coding": [
                {
                  "system": "http://fhir.de/CodeSystem/ifa/pzn",
                  "code": "12345678"
                }
              ],
              "text": "Schmerzmittel"
            },
            "form": {
              "coding": [
                {
                  "system": "https://fhir.kbv.de/CodeSystem/KBV_CS_SFHIR_KBV_DARREICHUNGSFORM",
                  "code": "TAB"
                }
              ]
            },
            "amount": {
              "numerator": {
                "value": 1,
                "unit": "Stk"
              },
              "denominator": {
                "value": 1
              }
            }
          }
        ],
        "basedOn": [
          {
            "reference": "Task/160.000.006.289.368.05"
          }
        ],
        "status": "unknown",
        "about": [
          {
            "reference": "#bc9a434b-f264-4634-8f32-9b5ca97b51a9"
          }
        ],
        "sent": "2023-02-07T23:13:09.873+00:00",
        "recipient": [
          {
            "identifier": {
              "system": "https://gematik.de/fhir/NamingSystem/TelematikID",
              "value": "1-2-ARZT-BerndClaudius01"
            }
          }
        ],
        "sender": {
          "identifier": {
            "system": "http://fhir.de/NamingSystem/gkv/kvid-10",
            "value": "X110498565"
          }
        },
        "payload": [
          {
            "extension": [
              {
                "url": "https://gematik.de/fhir/StructureDefinition/InsuranceProvider",
                "valueIdentifier": {
                  "system": "http://fhir.de/NamingSystem/arge-ik/iknr",
                  "value": "647855657"
                }
              },
              {
                "url": "https://gematik.de/fhir/StructureDefinition/SubstitutionAllowedType",
                "valueBoolean": true
              },
              {
                "url": "https://gematik.de/fhir/StructureDefinition/PrescriptionType",
                "valueCoding": {
                  "system": "https://gematik.de/fhir/CodeSystem/Flowtype",
                  "code": "160",
                  "display": "Muster 16 (Apothekenpflichtige Arzneimittel)"
                }
              }
            ],
            "contentString": "Life? Don't talk to me about life."
          }
        ]
      },
      "search": {
        "mode": "match"
      }
    },
    {
      "fullUrl": "https://erp-test.zentral.erp.splitdns.ti-dienste.de/Communication/01eb9dfc-33b2-fe20-4cae-feb4fc323bab",
      "resource": {
        "resourceType": "Communication",
        "id": "01eb9dfc-33b2-fe20-4cae-feb4fc323bab",
        "meta": {
          "profile": [
            "https://gematik.de/fhir/StructureDefinition/ErxCommunicationInfoReq"
          ]
        },
        "contained": [
          {
            "resourceType": "Medication",
            "id": "7af2bf63-9437-468e-9d0e-7dfa12192a51",
            "meta": {
              "profile": [
                "https://fhir.kbv.de/StructureDefinition/KBV_PR_ERP_Medication_PZN|1.0.2"
              ]
            },
            "extension": [
              {
                "url": "https://fhir.kbv.de/StructureDefinition/KBV_EX_ERP_Medication_Category",
                "valueCoding": {
                  "system": "https://fhir.kbv.de/CodeSystem/KBV_CS_ERP_Medication_Category",
                  "code": "00"
                }
              },
              {
                "url": "https://fhir.kbv.de/StructureDefinition/KBV_EX_ERP_Medication_Vaccine",
                "valueBoolean": false
              },
              {
                "url": "http://fhir.de/StructureDefinition/normgroesse",
                "valueCode": "NB"
              }
            ],
            "code": {
              "coding": [
                {
                  "system": "http://fhir.de/CodeSystem/ifa/pzn",
                  "code": "12345678"
                }
              ],
              "text": "Schmerzmittel"
            },
            "form": {
              "coding": [
                {
                  "system": "https://fhir.kbv.de/CodeSystem/KBV_CS_SFHIR_KBV_DARREICHUNGSFORM",
                  "code": "TAB"
                }
              ]
            },
            "amount": {
              "numerator": {
                "value": 1,
                "unit": "Stk"
              },
              "denominator": {
                "value": 1
              }
            }
          }
        ],
        "basedOn": [
          {
            "reference": "Task/160.000.006.289.295.30"
          }
        ],
        "status": "unknown",
        "about": [
          {
            "reference": "#7af2bf63-9437-468e-9d0e-7dfa12192a51"
          }
        ],
        "sent": "2023-02-07T16:08:09.620+00:00",
        "recipient": [
          {
            "identifier": {
              "system": "https://gematik.de/fhir/NamingSystem/TelematikID",
              "value": "1-2-ARZT-BerndClaudius01"
            }
          }
        ],
        "sender": {
          "identifier": {
            "system": "http://fhir.de/NamingSystem/gkv/kvid-10",
            "value": "X110498565"
          }
        },
        "payload": [
          {
            "extension": [
              {
                "url": "https://gematik.de/fhir/StructureDefinition/InsuranceProvider",
                "valueIdentifier": {
                  "system": "http://fhir.de/NamingSystem/arge-ik/iknr",
                  "value": "298860462"
                }
              },
              {
                "url": "https://gematik.de/fhir/StructureDefinition/SubstitutionAllowedType",
                "valueBoolean": true
              },
              {
                "url": "https://gematik.de/fhir/StructureDefinition/PrescriptionType",
                "valueCoding": {
                  "system": "https://gematik.de/fhir/CodeSystem/Flowtype",
                  "code": "160",
                  "display": "Muster 16 (Apothekenpflichtige Arzneimittel)"
                }
              }
            ],
            "contentString": "I won't enjoy it."
          }
        ]
      },
      "search": {
        "mode": "match"
      }
    },
    {
      "fullUrl": "https://erp-test.zentral.erp.splitdns.ti-dienste.de/Communication/01eb9dfa-7893-4ba0-229a-930b2a8f394f",
      "resource": {
        "resourceType": "Communication",
        "id": "01eb9dfa-7893-4ba0-229a-930b2a8f394f",
        "meta": {
          "profile": [
            "https://gematik.de/fhir/StructureDefinition/ErxCommunicationInfoReq"
          ]
        },
        "contained": [
          {
            "resourceType": "Medication",
            "id": "2a1aa28d-35e2-43c0-9496-57e42f717246",
            "meta": {
              "profile": [
                "https://fhir.kbv.de/StructureDefinition/KBV_PR_ERP_Medication_PZN|1.0.2"
              ]
            },
            "extension": [
              {
                "url": "https://fhir.kbv.de/StructureDefinition/KBV_EX_ERP_Medication_Category",
                "valueCoding": {
                  "system": "https://fhir.kbv.de/CodeSystem/KBV_CS_ERP_Medication_Category",
                  "code": "00"
                }
              },
              {
                "url": "https://fhir.kbv.de/StructureDefinition/KBV_EX_ERP_Medication_Vaccine",
                "valueBoolean": false
              },
              {
                "url": "http://fhir.de/StructureDefinition/normgroesse",
                "valueCode": "NB"
              }
            ],
            "code": {
              "coding": [
                {
                  "system": "http://fhir.de/CodeSystem/ifa/pzn",
                  "code": "12345678"
                }
              ],
              "text": "Schmerzmittel"
            },
            "form": {
              "coding": [
                {
                  "system": "https://fhir.kbv.de/CodeSystem/KBV_CS_SFHIR_KBV_DARREICHUNGSFORM",
                  "code": "TAB"
                }
              ]
            },
            "amount": {
              "numerator": {
                "value": 1,
                "unit": "Stk"
              },
              "denominator": {
                "value": 1
              }
            }
          }
        ],
        "basedOn": [
          {
            "reference": "Task/160.000.006.289.225.46"
          }
        ],
        "status": "unknown",
        "about": [
          {
            "reference": "#2a1aa28d-35e2-43c0-9496-57e42f717246"
          }
        ],
        "sent": "2023-02-07T14:04:15.236+00:00",
        "recipient": [
          {
            "identifier": {
              "system": "https://gematik.de/fhir/NamingSystem/TelematikID",
              "value": "1-2-ARZT-BerndClaudius01"
            }
          }
        ],
        "sender": {
          "identifier": {
            "system": "http://fhir.de/NamingSystem/gkv/kvid-10",
            "value": "X110498565"
          }
        },
        "payload": [
          {
            "extension": [
              {
                "url": "https://gematik.de/fhir/StructureDefinition/InsuranceProvider",
                "valueIdentifier": {
                  "system": "http://fhir.de/NamingSystem/arge-ik/iknr",
                  "value": "657364783"
                }
              },
              {
                "url": "https://gematik.de/fhir/StructureDefinition/SubstitutionAllowedType",
                "valueBoolean": true
              },
              {
                "url": "https://gematik.de/fhir/StructureDefinition/PrescriptionType",
                "valueCoding": {
                  "system": "https://gematik.de/fhir/CodeSystem/Flowtype",
                  "code": "160",
                  "display": "Muster 16 (Apothekenpflichtige Arzneimittel)"
                }
              }
            ],
            "contentString": "I wish you'd just tell me rather trying to engage my enthusiasm, because I haven't got one."
          }
        ]
      },
      "search": {
        "mode": "match"
      }
    },
    {
      "fullUrl": "https://erp-test.zentral.erp.splitdns.ti-dienste.de/Communication/01eb9dfa-3e79-8420-a5db-d4da829a66de",
      "resource": {
        "resourceType": "Communication",
        "id": "01eb9dfa-3e79-8420-a5db-d4da829a66de",
        "meta": {
          "profile": [
            "https://gematik.de/fhir/StructureDefinition/ErxCommunicationInfoReq"
          ]
        },
        "contained": [
          {
            "resourceType": "Medication",
            "id": "80f2d126-1cbe-4f1c-b4ab-82af5a2f0937",
            "meta": {
              "profile": [
                "https://fhir.kbv.de/StructureDefinition/KBV_PR_ERP_Medication_PZN|1.0.2"
              ]
            },
            "extension": [
              {
                "url": "https://fhir.kbv.de/StructureDefinition/KBV_EX_ERP_Medication_Category",
                "valueCoding": {
                  "system": "https://fhir.kbv.de/CodeSystem/KBV_CS_ERP_Medication_Category",
                  "code": "00"
                }
              },
              {
                "url": "https://fhir.kbv.de/StructureDefinition/KBV_EX_ERP_Medication_Vaccine",
                "valueBoolean": false
              },
              {
                "url": "http://fhir.de/StructureDefinition/normgroesse",
                "valueCode": "NB"
              }
            ],
            "code": {
              "coding": [
                {
                  "system": "http://fhir.de/CodeSystem/ifa/pzn",
                  "code": "12345678"
                }
              ],
              "text": "Schmerzmittel"
            },
            "form": {
              "coding": [
                {
                  "system": "https://fhir.kbv.de/CodeSystem/KBV_CS_SFHIR_KBV_DARREICHUNGSFORM",
                  "code": "TAB"
                }
              ]
            },
            "amount": {
              "numerator": {
                "value": 1,
                "unit": "Stk"
              },
              "denominator": {
                "value": 1
              }
            }
          }
        ],
        "basedOn": [
          {
            "reference": "Task/160.000.006.289.182.78"
          }
        ],
        "status": "unknown",
        "about": [
          {
            "reference": "#80f2d126-1cbe-4f1c-b4ab-82af5a2f0937"
          }
        ],
        "sent": "2023-02-07T13:48:00.468+00:00",
        "recipient": [
          {
            "identifier": {
              "system": "https://gematik.de/fhir/NamingSystem/TelematikID",
              "value": "1-2-ARZT-BerndClaudius01"
            }
          }
        ],
        "sender": {
          "identifier": {
            "system": "http://fhir.de/NamingSystem/gkv/kvid-10",
            "value": "X110498565"
          }
        },
        "payload": [
          {
            "extension": [
              {
                "url": "https://gematik.de/fhir/StructureDefinition/InsuranceProvider",
                "valueIdentifier": {
                  "system": "http://fhir.de/NamingSystem/arge-ik/iknr",
                  "value": "377902409"
                }
              },
              {
                "url": "https://gematik.de/fhir/StructureDefinition/SubstitutionAllowedType",
                "valueBoolean": true
              },
              {
                "url": "https://gematik.de/fhir/StructureDefinition/PrescriptionType",
                "valueCoding": {
                  "system": "https://gematik.de/fhir/CodeSystem/Flowtype",
                  "code": "160",
                  "display": "Muster 16 (Apothekenpflichtige Arzneimittel)"
                }
              }
            ],
            "contentString": "You think you've got problems? What are you supposed to do if you are a manically depressed robot? No, don't try to answer that. I'm fifty thousand times more intelligent than you and even I don't know the answer. It gives me a headache just trying to think down to your level."
          }
        ]
      },
      "search": {
        "mode": "match"
      }
    }
  ]
}
