<Bundle xmlns="http://hl7.org/fhir"><id value="af828720-45ee-4772-8e60-4d02cf5fd785"/><meta><lastUpdated value="2023-04-21T09:39:23.559+02:00"/><profile value="https://fhir.kbv.de/StructureDefinition/KBV_PR_ERP_Bundle|1.0.2"/></meta><identifier><system value="https://gematik.de/fhir/NamingSystem/PrescriptionID"/><value value="209.000.000.003.638.29"/></identifier><type value="document"/><timestamp value="2023-04-21T09:39:23.559+02:00"/><entry><fullUrl value="https://pvs.gematik.de/fhir/Composition/44098091-bcf5-46e3-aaaf-baf477c9c5b5"/><resource><Composition xmlns="http://hl7.org/fhir"><id value="44098091-bcf5-46e3-aaaf-baf477c9c5b5"/><meta><profile value="https://fhir.kbv.de/StructureDefinition/KBV_PR_ERP_Composition|1.0.2"/></meta><extension url="https://fhir.kbv.de/StructureDefinition/KBV_EX_FOR_PKV_Tariff"><valueCoding><system value="https://fhir.kbv.de/CodeSystem/KBV_CS_SFHIR_KBV_PKV_TARIFF"/><code value="03"/></valueCoding></extension><extension url="https://fhir.kbv.de/StructureDefinition/KBV_EX_FOR_Legal_basis"><valueCoding><system value="https://fhir.kbv.de/CodeSystem/KBV_CS_SFHIR_KBV_STATUSKENNZEICHEN"/><code value="00"/></valueCoding></extension><status value="final"/><type><coding><system value="https://fhir.kbv.de/CodeSystem/KBV_CS_SFHIR_KBV_FORMULAR_ART"/><code value="e16A"/></coding></type><subject><reference value="Patient/3baa8823-8180-4991-869f-190016c1fb77"/></subject><date value="2023-04-21T09:39:23+02:00"/><author><reference value="Practitioner/69828396-551c-4f3c-8c39-c982d547d39e"/><type value="Practitioner"/></author><author><type value="Device"/><identifier><system value="https://fhir.kbv.de/NamingSystem/KBV_NS_FOR_Pruefnummer"/><value value="GEMATIK/410/2109/36/123"/></identifier></author><title value="elektronische Arzneimittelverordnung"/><custodian><reference value="Organization/0b4219af-3206-4a96-b46b-aab4789ca0b0"/></custodian><section><code><coding><system value="https://fhir.kbv.de/CodeSystem/KBV_CS_ERP_Section_Type"/><code value="Coverage"/></coding></code><entry><reference value="Coverage/1592f95e-247d-4a98-b0e2-247e22f21f2f"/></entry></section><section><code><coding><system value="https://fhir.kbv.de/CodeSystem/KBV_CS_ERP_Section_Type"/><code value="Prescription"/></coding></code><entry><reference value="MedicationRequest/9f139a57-f5bc-42cd-ac71-251a604a3a9b"/></entry></section></Composition></resource></entry><entry><fullUrl value="https://pvs.gematik.de/fhir/MedicationRequest/9f139a57-f5bc-42cd-ac71-251a604a3a9b"/><resource><MedicationRequest xmlns="http://hl7.org/fhir"><id value="9f139a57-f5bc-42cd-ac71-251a604a3a9b"/><meta><profile value="https://fhir.kbv.de/StructureDefinition/KBV_PR_ERP_Prescription|1.0.2"/></meta><extension url="https://fhir.kbv.de/StructureDefinition/KBV_EX_ERP_BVG"><valueBoolean value="false"/></extension><extension url="https://fhir.kbv.de/StructureDefinition/KBV_EX_ERP_EmergencyServicesFee"><valueBoolean value="false"/></extension><extension url="https://fhir.kbv.de/StructureDefinition/KBV_EX_ERP_Multiple_Prescription"><extension url="Kennzeichen"><valueBoolean value="false"/></extension></extension><extension url="https://fhir.kbv.de/StructureDefinition/KBV_EX_ERP_StatusCoPayment"><valueCoding><system value="https://fhir.kbv.de/CodeSystem/KBV_CS_ERP_StatusCoPayment"/><code value="0"/></valueCoding></extension><status value="active"/><intent value="order"/><medicationReference><reference value="Medication/d2be1b86-14cb-445b-bf29-d000eaa86086"/></medicationReference><subject><reference value="Patient/3baa8823-8180-4991-869f-190016c1fb77"/></subject><authoredOn value="2023-04-21"/><requester><reference value="Practitioner/69828396-551c-4f3c-8c39-c982d547d39e"/></requester><insurance><reference value="Coverage/1592f95e-247d-4a98-b0e2-247e22f21f2f"/></insurance><dosageInstruction><extension url="https://fhir.kbv.de/StructureDefinition/KBV_EX_ERP_DosageFlag"><valueBoolean value="true"/></extension><text value="1-0-0-0"/></dosageInstruction><dispenseRequest><quantity><value value="1"/><system value="http://unitsofmeasure.org"/><code value="{Package}"/></quantity></dispenseRequest><substitution><allowedBoolean value="true"/></substitution></MedicationRequest></resource></entry><entry><fullUrl value="https://pvs.gematik.de/fhir/Medication/d2be1b86-14cb-445b-bf29-d000eaa86086"/><resource><Medication xmlns="http://hl7.org/fhir"><id value="d2be1b86-14cb-445b-bf29-d000eaa86086"/><meta><profile value="https://fhir.kbv.de/StructureDefinition/KBV_PR_ERP_Medication_PZN|1.0.2"/></meta><extension url="https://fhir.kbv.de/StructureDefinition/KBV_EX_ERP_Medication_Category"><valueCoding><system value="https://fhir.kbv.de/CodeSystem/KBV_CS_ERP_Medication_Category"/><code value="00"/></valueCoding></extension><extension url="https://fhir.kbv.de/StructureDefinition/KBV_EX_ERP_Medication_Vaccine"><valueBoolean value="false"/></extension><extension url="http://fhir.de/StructureDefinition/normgroesse"><valueCode value="NB"/></extension><code><coding><system value="http://fhir.de/CodeSystem/ifa/pzn"/><code value="16793381"/></coding><text value="Zytostatika_WF209"/></code><form><coding><system value="https://fhir.kbv.de/CodeSystem/KBV_CS_SFHIR_KBV_DARREICHUNGSFORM"/><code value="TAB"/></coding></form><amount><numerator><value value="1"/><unit value="Stk"/></numerator><denominator><value value="1"/></denominator></amount></Medication></resource></entry><entry><fullUrl value="https://pvs.gematik.de/fhir/Patient/3baa8823-8180-4991-869f-190016c1fb77"/><resource><Patient xmlns="http://hl7.org/fhir"><id value="3baa8823-8180-4991-869f-190016c1fb77"/><meta><profile value="https://fhir.kbv.de/StructureDefinition/KBV_PR_FOR_Patient|1.0.3"/></meta><identifier><type><coding><system value="http://fhir.de/CodeSystem/identifier-type-de-basis"/><code value="PKV"/></coding></type><system value="http://www.acme.com/identifiers/patient"/><value value="X110465770"/><assigner><reference value="Organization/cf889a99-f073-4e1e-bf4f-3469c1ce49be"/><display value="KOA Pfalz"/></assigner></identifier><name><use value="official"/><family value="Angermänn"/><given value="Günther"/></name><birthDate value="1975-03-01"/><address><type value="both"/><line value="Esmarchstr. 20b"><extension url="http://hl7.org/fhir/StructureDefinition/iso21090-ADXP-houseNumber"><valueString value="20b"/></extension><extension url="http://hl7.org/fhir/StructureDefinition/iso21090-ADXP-streetName"><valueString value="Esmarchstr."/></extension></line><city value="Heinrichbrunn"/><postalCode value="00910"/><country value="D"/></address></Patient></resource></entry><entry><fullUrl value="https://pvs.gematik.de/fhir/Organization/0b4219af-3206-4a96-b46b-aab4789ca0b0"/><resource><Organization xmlns="http://hl7.org/fhir"><id value="0b4219af-3206-4a96-b46b-aab4789ca0b0"/><meta><profile value="https://fhir.kbv.de/StructureDefinition/KBV_PR_FOR_Organization|1.0.3"/></meta><identifier><type><coding><system value="http://terminology.hl7.org/CodeSystem/v2-0203"/><code value="BSNR"/></coding></type><system value="https://fhir.kbv.de/NamingSystem/KBV_NS_Base_BSNR"/><value value="618082478"/></identifier><name value="Arztpraxis Schraßer"/><telecom><system value="phone"/><value value="(0537) 633508924"/></telecom><telecom><system value="email"/><value value="alia.dauer@bultmann.org"/></telecom><address><type value="both"/><line value="Heinrich-Brüning-Str. 28c"><extension url="http://hl7.org/fhir/StructureDefinition/iso21090-ADXP-houseNumber"><valueString value="28c"/></extension><extension url="http://hl7.org/fhir/StructureDefinition/iso21090-ADXP-streetName"><valueString value="Heinrich-Brüning-Str."/></extension></line><city value="Süd Magnus"/><postalCode value="64782"/><country value="D"/></address></Organization></resource></entry><entry><fullUrl value="https://pvs.gematik.de/fhir/Coverage/1592f95e-247d-4a98-b0e2-247e22f21f2f"/><resource><Coverage xmlns="http://hl7.org/fhir"><id value="1592f95e-247d-4a98-b0e2-247e22f21f2f"/><meta><profile value="https://fhir.kbv.de/StructureDefinition/KBV_PR_FOR_Coverage|1.0.3"/></meta><extension url="http://fhir.de/StructureDefinition/gkv/besondere-personengruppe"><valueCoding><system value="https://fhir.kbv.de/CodeSystem/KBV_CS_SFHIR_KBV_PERSONENGRUPPE"/><code value="00"/></valueCoding></extension><extension url="http://fhir.de/StructureDefinition/gkv/dmp-kennzeichen"><valueCoding><system value="https://fhir.kbv.de/CodeSystem/KBV_CS_SFHIR_KBV_DMP"/><code value="00"/></valueCoding></extension><extension url="http://fhir.de/StructureDefinition/gkv/wop"><valueCoding><system value="https://fhir.kbv.de/CodeSystem/KBV_CS_SFHIR_ITA_WOP"/><code value="61"/></valueCoding></extension><extension url="http://fhir.de/StructureDefinition/gkv/versichertenart"><valueCoding><system value="https://fhir.kbv.de/CodeSystem/KBV_CS_SFHIR_KBV_VERSICHERTENSTATUS"/><code value="1"/></valueCoding></extension><status value="active"/><type><coding><system value="http://fhir.de/CodeSystem/versicherungsart-de-basis"/><code value="PKV"/></coding></type><beneficiary><reference value="Patient/d8194c92-33f3-4192-a842-d0a7b1c76545"/></beneficiary><payor><identifier><system value="http://fhir.de/NamingSystem/arge-ik/iknr"/><value value="670033730"/></identifier><display value="Künstler-Krankenkasse Hessen"/></payor></Coverage></resource></entry><entry><fullUrl value="https://pvs.gematik.de/fhir/Practitioner/69828396-551c-4f3c-8c39-c982d547d39e"/><resource><Practitioner xmlns="http://hl7.org/fhir"><id value="69828396-551c-4f3c-8c39-c982d547d39e"/><meta><profile value="https://fhir.kbv.de/StructureDefinition/KBV_PR_FOR_Practitioner|1.0.3"/></meta><identifier><type><coding><system value="http://terminology.hl7.org/CodeSystem/v2-0203"/><code value="LANR"/></coding></type><system value="https://fhir.kbv.de/NamingSystem/KBV_NS_Base_ANR"/><value value="426922544"/></identifier><name><use value="official"/><family value="Schraßer"/><given value="Dr."/><prefix value="Dr."><extension url="http://hl7.org/fhir/StructureDefinition/iso21090-EN-qualifier"><valueCode value="AC"/></extension></prefix></name><qualification><code><coding><system value="https://fhir.kbv.de/CodeSystem/KBV_CS_FOR_Qualification_Type"/><code value="00"/></coding></code></qualification><qualification><code><text value="Super-Facharzt für alles Mögliche"/></code></qualification></Practitioner></resource></entry><entry><fullUrl value="https://pvs.gematik.de/fhir/Organization/cf889a99-f073-4e1e-bf4f-3469c1ce49be"/><resource><Organization xmlns="http://hl7.org/fhir"><id value="cf889a99-f073-4e1e-bf4f-3469c1ce49be"/><meta><profile value="https://fhir.kbv.de/StructureDefinition/KBV_PR_FOR_Organization|1.0.3"/></meta><identifier><type><coding><system value="http://terminology.hl7.org/CodeSystem/v2-0203"/><code value="XX"/></coding></type><system value="http://fhir.de/NamingSystem/arge-ik/iknr"/><value value="516213199"/></identifier><name value="KOA Pfalz"/><telecom><system value="phone"/><value value="+49-571-2317828"/></telecom><address><type value="both"/><line value="Thomas-Morus-Str. 11c"><extension url="http://hl7.org/fhir/StructureDefinition/iso21090-ADXP-houseNumber"><valueString value="11c"/></extension><extension url="http://hl7.org/fhir/StructureDefinition/iso21090-ADXP-streetName"><valueString value="Thomas-Morus-Str."/></extension></line><city value="Alt Marit"/><postalCode value="73927"/><country value="D"/></address></Organization></resource></entry></Bundle>