{
  "resourceType": "Bundle",
  "id": "dffbfd6a-5712-4798-bdc8-07201eb77ab8",
  "meta": {
    "profile": [
      "https://gematik.de/fhir/erp/StructureDefinition/GEM_ERP_PR_Bundle|1.4"
    ],
    "tag": [
      {
        "display": "Receipt Bundle 'Quittung' for completed dispensation of a prescription"
      }
    ]
  },
  "type": "document",
  "identifier": {
    "system": "https://gematik.de/fhir/erp/NamingSystem/GEM_ERP_NS_PrescriptionId",
    "value": "160.000.033.491.280.78"
  },
  "signature": {
    "type": [
      {
        "system": "urn:iso-astm:E1762-95:2013",
        "code": "1.2.840.10065.1.12.1.1"
      }
    ],
    "when": "2022-03-18T15:28:00+00:00",
    "who": {
      "reference": "urn:uuid:1413b38d-81a6-432a-a801-98d7307a422b"
    },
    "sigFormat": "application/pkcs7-mime",
    "data": "dGhpcyBibG9iIGlzIHNuaXBwZWQ="
  },
  "timestamp": "2022-03-18T15:28:00+00:00",
  "entry": [
    {
      "fullUrl": "urn:uuid:c624cf47-e235-4624-af71-0a09dc9254dc",
      "resource": {
        "resourceType": "Composition",
        "id": "c624cf47-e235-4624-af71-0a09dc9254dc",
        "meta": {
          "profile": [
            "https://gematik.de/fhir/erp/StructureDefinition/GEM_ERP_PR_Composition|1.4"
          ]
        },
        "status": "final",
        "title": "Quittung",
        "extension": [
          {
            "url": "https://gematik.de/fhir/erp/StructureDefinition/GEM_ERP_EX_Beneficiary",
            "valueIdentifier": {
              "system": "https://gematik.de/fhir/sid/telematik-id",
              "value": "3-SMC-B-Testkarte-883110000129070"
            }
          }
        ],
        "type": {
          "coding": [
            {
              "code": "3",
              "system": "https://gematik.de/fhir/erp/CodeSystem/GEM_ERP_CS_DocumentType",
              "display": "Receipt"
            }
          ]
        },
        "date": "2022-03-18T15:29:00+00:00",
        "author": [
          {
            "reference": "urn:uuid:1413b38d-81a6-432a-a801-98d7307a422b"
          }
        ],
        "event": [
          {
            "period": {
              "start": "2022-03-18T15:28:00+00:00",
              "end": "2022-03-18T15:29:00+00:00"
            }
          }
        ],
        "section": [
          {
            "entry": [
              {
                "reference": "urn:uuid:b939a82a-9c23-4b6d-a139-f468d1b9d652"
              }
            ]
          }
        ]
      }
    },
    {
      "fullUrl": "urn:uuid:1413b38d-81a6-432a-a801-98d7307a422b",
      "resource": {
        "resourceType": "Device",
        "id": "1",
        "meta": {
          "profile": [
            "https://gematik.de/fhir/erp/StructureDefinition/GEM_ERP_PR_Device|1.4"
          ]
        },
        "status": "active",
        "serialNumber": "1.4.0",
        "deviceName": [
          {
            "name": "E-Rezept-Fachdienst",
            "type": "user-friendly-name"
          }
        ],
        "version": [
          {
            "value": "1.4.0"
          }
        ],
        "contact": [
          {
            "system": "email",
            "value": "betrieb@gematik.de"
          }
        ]
      }
    },
    {
      "fullUrl": "urn:uuid:b939a82a-9c23-4b6d-a139-f468d1b9d652",
      "resource": {
        "resourceType": "Binary",
        "id": "b939a82a-9c23-4b6d-a139-f468d1b9d652",
        "meta": {
          "profile": [
            "https://gematik.de/fhir/erp/StructureDefinition/GEM_ERP_PR_Digest|1.4"
          ]
        },
        "contentType": "application/octet-stream",
        "data": "tJg8c5ZtdhzEEhJ0ZpAsUVFx5dKuYgQFs5oKgthi17M="
      }
    }
  ]
}
