<Bundle xmlns="http://hl7.org/fhir">
	<id value="5669c7b1-9585-4eca-8bc6-35f08aeb4f42" />
	<meta>
		<profile value="https://fhir.kbv.de/StructureDefinition/KBV_PR_ERP_Bundle|1.1.0" />
	</meta>
	<identifier>
		<system value="https://gematik.de/fhir/erp/NamingSystem/GEM_ERP_NS_PrescriptionId" />
		<value value="160.000.239.761.366.59" />
	</identifier>
	<type value="document" />
	<timestamp value="2025-03-28T09:02:56.429+01:00" />
	<entry>
		<fullUrl value="https://pvs.gematik.de/fhir/Composition/deb40e05-4cab-4e0c-ace4-10d158a92026" />
		<resource>
			<Composition xmlns="http://hl7.org/fhir">
				<id value="deb40e05-4cab-4e0c-ace4-10d158a92026" />
				<meta>
					<profile value="https://fhir.kbv.de/StructureDefinition/KBV_PR_ERP_Composition|1.1.0" />
				</meta>
				<extension url="https://fhir.kbv.de/StructureDefinition/KBV_EX_FOR_Legal_basis">
					<valueCoding>
						<system value="https://fhir.kbv.de/CodeSystem/KBV_CS_SFHIR_KBV_STATUSKENNZEICHEN" />
						<code value="00" />
					</valueCoding>
				</extension>
				<status value="final" />
				<type>
					<coding>
						<system value="https://fhir.kbv.de/CodeSystem/KBV_CS_SFHIR_KBV_FORMULAR_ART" />
						<code value="e16A" />
					</coding>
				</type>
				<subject>
					<reference value="Patient/1ff1a672-dbd4-4838-9662-0df40bac5917" />
				</subject>
				<date value="2025-03-28T09:02:56+01:00" />
				<author>
					<type value="Device" />
					<identifier>
						<system value="https://fhir.kbv.de/NamingSystem/KBV_NS_FOR_Pruefnummer" />
						<value value="GEMATIK/410/2109/36/123" />
					</identifier>
				</author>
				<author>
					<reference value="Practitioner/2d8fa0e8-5bdb-4c65-baf0-22fd6defb00b" />
					<type value="Practitioner" />
				</author>
				<title value="elektronische Arzneimittelverordnung" />
				<custodian>
					<reference value="Organization/ccffd302-9852-41ba-9b1c-1aaa4a6d9a2c" />
				</custodian>
				<section>
					<code>
						<coding>
							<system value="https://fhir.kbv.de/CodeSystem/KBV_CS_ERP_Section_Type" />
							<code value="Coverage" />
						</coding>
					</code>
					<entry>
						<reference value="Coverage/764a5021-6ec5-470d-be67-d5fc7cc468b9" />
					</entry>
				</section>
				<section>
					<code>
						<coding>
							<system value="https://fhir.kbv.de/CodeSystem/KBV_CS_ERP_Section_Type" />
							<code value="Prescription" />
						</coding>
					</code>
					<entry>
						<reference value="MedicationRequest/88913641-78d1-4bc7-883a-d911f4861883" />
					</entry>
				</section>
			</Composition>
		</resource>
	</entry>
	<entry>
		<fullUrl value="https://pvs.gematik.de/fhir/Coverage/764a5021-6ec5-470d-be67-d5fc7cc468b9" />
		<resource>
			<Coverage xmlns="http://hl7.org/fhir">
				<id value="764a5021-6ec5-470d-be67-d5fc7cc468b9" />
				<meta>
					<profile value="https://fhir.kbv.de/StructureDefinition/KBV_PR_FOR_Coverage|1.1.0" />
				</meta>
				<extension url="http://fhir.de/StructureDefinition/gkv/besondere-personengruppe">
					<valueCoding>
						<system value="https://fhir.kbv.de/CodeSystem/KBV_CS_SFHIR_KBV_PERSONENGRUPPE" />
						<code value="00" />
					</valueCoding>
				</extension>
				<extension url="http://fhir.de/StructureDefinition/gkv/dmp-kennzeichen">
					<valueCoding>
						<system value="https://fhir.kbv.de/CodeSystem/KBV_CS_SFHIR_KBV_DMP" />
						<code value="00" />
					</valueCoding>
				</extension>
				<extension url="http://fhir.de/StructureDefinition/gkv/wop">
					<valueCoding>
						<system value="https://fhir.kbv.de/CodeSystem/KBV_CS_SFHIR_ITA_WOP" />
						<code value="48" />
					</valueCoding>
				</extension>
				<extension url="http://fhir.de/StructureDefinition/gkv/versichertenart">
					<valueCoding>
						<system value="https://fhir.kbv.de/CodeSystem/KBV_CS_SFHIR_KBV_VERSICHERTENSTATUS" />
						<code value="1" />
					</valueCoding>
				</extension>
				<status value="active" />
				<type>
					<coding>
						<system value="http://fhir.de/CodeSystem/versicherungsart-de-basis" />
						<code value="GKV" />
					</coding>
				</type>
				<beneficiary>
					<reference value="Patient/b8dc910f-f09f-48c2-88f2-8a2743179dba" />
				</beneficiary>
				<payor>
					<identifier>
						<system value="http://fhir.de/sid/arge-ik/iknr" />
						<value value="100820488" />
					</identifier>
					<display value="Brandenburgische BKK" />
				</payor>
			</Coverage>
		</resource>
	</entry>
	<entry>
		<fullUrl value="https://pvs.gematik.de/fhir/Patient/1ff1a672-dbd4-4838-9662-0df40bac5917" />
		<resource>
			<Patient xmlns="http://hl7.org/fhir">
				<id value="1ff1a672-dbd4-4838-9662-0df40bac5917" />
				<meta>
					<profile value="https://fhir.kbv.de/StructureDefinition/KBV_PR_FOR_Patient|1.1.0" />
				</meta>
				<identifier>
					<type>
						<coding>
							<system value="http://fhir.de/CodeSystem/identifier-type-de-basis" />
							<code value="GKV" />
						</coding>
					</type>
					<system value="http://fhir.de/sid/gkv/kvid-10" />
					<value value="X110614233" />
				</identifier>
				<name>
					<use value="official" />
					<family value="Hüllmann">
						<extension url="http://hl7.org/fhir/StructureDefinition/humanname-own-name">
							<valueString value="Hüllmann" />
						</extension>
					</family>
					<given value="Sina" />
				</name>
				<birthDate value="1983-03-05" />
				<address>
					<type value="both" />
					<line value="Klief 984">
						<extension url="http://hl7.org/fhir/StructureDefinition/iso21090-ADXP-houseNumber">
							<valueString value="984" />
						</extension>
						<extension url="http://hl7.org/fhir/StructureDefinition/iso21090-ADXP-streetName">
							<valueString value="Klief" />
						</extension>
					</line>
					<city value="Giehlscheid" />
					<postalCode value="83456" />
					<country value="D" />
				</address>
			</Patient>
		</resource>
	</entry>
	<entry>
		<fullUrl value="https://pvs.gematik.de/fhir/Practitioner/2d8fa0e8-5bdb-4c65-baf0-22fd6defb00b" />
		<resource>
			<Practitioner xmlns="http://hl7.org/fhir">
				<id value="2d8fa0e8-5bdb-4c65-baf0-22fd6defb00b" />
				<meta>
					<profile value="https://fhir.kbv.de/StructureDefinition/KBV_PR_FOR_Practitioner|1.1.0" />
				</meta>
				<identifier>
					<type>
						<coding>
							<system value="http://terminology.hl7.org/CodeSystem/v2-0203" />
							<code value="LANR" />
						</coding>
					</type>
					<system value="https://fhir.kbv.de/NamingSystem/KBV_NS_Base_ANR" />
					<value value="021649797" />
				</identifier>
				<name>
					<use value="official" />
					<family value="Schraßer">
						<extension url="http://hl7.org/fhir/StructureDefinition/humanname-own-name">
							<valueString value="Schraßer" />
						</extension>
					</family>
					<given value="Dr." />
					<prefix value="Dr.">
						<extension url="http://hl7.org/fhir/StructureDefinition/iso21090-EN-qualifier">
							<valueCode value="AC" />
						</extension>
					</prefix>
				</name>
				<qualification>
					<code>
						<coding>
							<system value="https://fhir.kbv.de/CodeSystem/KBV_CS_FOR_Qualification_Type" />
							<code value="00" />
						</coding>
					</code>
				</qualification>
				<qualification>
					<code>
						<coding>
							<system value="https://fhir.kbv.de/CodeSystem/KBV_CS_FOR_Berufsbezeichnung" />
							<code value="Berufsbezeichnung" />
						</coding>
						<text value="Super-Facharzt für alles Mögliche" />
					</code>
				</qualification>
			</Practitioner>
		</resource>
	</entry>
	<entry>
		<fullUrl value="https://pvs.gematik.de/fhir/Organization/ccffd302-9852-41ba-9b1c-1aaa4a6d9a2c" />
		<resource>
			<Organization xmlns="http://hl7.org/fhir">
				<id value="ccffd302-9852-41ba-9b1c-1aaa4a6d9a2c" />
				<meta>
					<profile value="https://fhir.kbv.de/StructureDefinition/KBV_PR_FOR_Organization|1.1.0" />
				</meta>
				<identifier>
					<type>
						<coding>
							<system value="http://terminology.hl7.org/CodeSystem/v2-0203" />
							<code value="BSNR" />
						</coding>
					</type>
					<system value="https://fhir.kbv.de/NamingSystem/KBV_NS_Base_BSNR" />
					<value value="031647691" />
				</identifier>
				<name value="Arztpraxis Schraßer" />
				<telecom>
					<system value="phone" />
					<value value="(0198) 668468164" />
				</telecom>
				<telecom>
					<system value="email" />
					<value value="ilyas.winkelmann@xn--rntsch-bua.com" />
				</telecom>
				<address>
					<type value="both" />
					<line value="Am Kiesberg 43a">
						<extension url="http://hl7.org/fhir/StructureDefinition/iso21090-ADXP-houseNumber">
							<valueString value="43a" />
						</extension>
						<extension url="http://hl7.org/fhir/StructureDefinition/iso21090-ADXP-streetName">
							<valueString value="Am Kiesberg" />
						</extension>
					</line>
					<city value="Neu Leyla" />
					<postalCode value="03025" />
					<country value="D" />
				</address>
			</Organization>
		</resource>
	</entry>
	<entry>
		<fullUrl value="https://pvs.gematik.de/fhir/Medication/b4dc1e7e-6892-43c2-ac73-3c2b232b6b1d" />
		<resource>
			<Medication xmlns="http://hl7.org/fhir">
				<id value="b4dc1e7e-6892-43c2-ac73-3c2b232b6b1d" />
				<meta>
					<profile value="https://fhir.kbv.de/StructureDefinition/KBV_PR_ERP_Medication_PZN|1.1.0" />
				</meta>
				<extension url="https://fhir.kbv.de/StructureDefinition/KBV_EX_Base_Medication_Type">
					<valueCodeableConcept>
						<coding>
							<system value="http://snomed.info/sct" />
							<version value="http://snomed.info/sct/900000000000207008/version/20220331" />
							<code value="763158003" />
							<display value="Medicinal product (product)" />
						</coding>
					</valueCodeableConcept>
				</extension>
				<extension url="https://fhir.kbv.de/StructureDefinition/KBV_EX_ERP_Medication_Category">
					<valueCoding>
						<system value="https://fhir.kbv.de/CodeSystem/KBV_CS_ERP_Medication_Category" />
						<code value="00" />
					</valueCoding>
				</extension>
				<extension url="https://fhir.kbv.de/StructureDefinition/KBV_EX_ERP_Medication_Vaccine">
					<valueBoolean value="false" />
				</extension>
				<extension url="http://fhir.de/StructureDefinition/normgroesse">
					<valueCode value="NB" />
				</extension>
				<code>
					<coding>
						<system value="http://fhir.de/CodeSystem/ifa/pzn" />
						<code value="12345678" />
					</coding>
					<text value="Schmerzmittel" />
				</code>
				<form>
					<coding>
						<system value="https://fhir.kbv.de/CodeSystem/KBV_CS_SFHIR_KBV_DARREICHUNGSFORM" />
						<code value="TAB" />
					</coding>
				</form>
				<amount>
					<numerator>
						<extension url="https://fhir.kbv.de/StructureDefinition/KBV_EX_ERP_Medication_PackagingSize">
							<valueString value="1" />
						</extension>
						<unit value="Stk" />
					</numerator>
					<denominator>
						<value value="1" />
					</denominator>
				</amount>
			</Medication>
		</resource>
	</entry>
	<entry>
		<fullUrl value="https://pvs.gematik.de/fhir/MedicationRequest/88913641-78d1-4bc7-883a-d911f4861883" />
		<resource>
			<MedicationRequest xmlns="http://hl7.org/fhir">
				<id value="88913641-78d1-4bc7-883a-d911f4861883" />
				<meta>
					<profile value="https://fhir.kbv.de/StructureDefinition/KBV_PR_ERP_Prescription|1.1.0" />
				</meta>
				<extension url="https://fhir.kbv.de/StructureDefinition/KBV_EX_ERP_BVG">
					<valueBoolean value="false" />
				</extension>
				<extension url="https://fhir.kbv.de/StructureDefinition/KBV_EX_ERP_EmergencyServicesFee">
					<valueBoolean value="false" />
				</extension>
				<extension url="https://fhir.kbv.de/StructureDefinition/KBV_EX_ERP_Multiple_Prescription">
					<extension url="Kennzeichen">
						<valueBoolean value="false" />
					</extension>
				</extension>
				<extension url="https://fhir.kbv.de/StructureDefinition/KBV_EX_FOR_StatusCoPayment">
					<valueCoding>
						<system value="https://fhir.kbv.de/CodeSystem/KBV_CS_FOR_StatusCoPayment" />
						<code value="0" />
					</valueCoding>
				</extension>
				<status value="active" />
				<intent value="order" />
				<medicationReference>
					<reference value="Medication/b4dc1e7e-6892-43c2-ac73-3c2b232b6b1d" />
				</medicationReference>
				<subject>
					<reference value="Patient/1ff1a672-dbd4-4838-9662-0df40bac5917" />
				</subject>
				<authoredOn value="2025-03-28" />
				<requester>
					<reference value="Practitioner/2d8fa0e8-5bdb-4c65-baf0-22fd6defb00b" />
				</requester>
				<insurance>
					<reference value="Coverage/764a5021-6ec5-470d-be67-d5fc7cc468b9" />
				</insurance>
				<dosageInstruction>
					<extension url="https://fhir.kbv.de/StructureDefinition/KBV_EX_ERP_DosageFlag">
						<valueBoolean value="true" />
					</extension>
					<text value="0-0-1-2-3" />
				</dosageInstruction>
				<dispenseRequest>
					<quantity>
						<value value="1" />
						<system value="http://unitsofmeasure.org" />
						<code value="{Package}" />
					</quantity>
				</dispenseRequest>
				<substitution>
					<allowedBoolean value="false" />
				</substitution>
			</MedicationRequest>
		</resource>
	</entry>
</Bundle>
