<?xml version="1.0" ?>
<Parameters xmlns="http://hl7.org/fhir">
    <id value="erp-eml-epa-notes-02-Parameters-ExampleInputMultipleDispenses"/>
    <meta>
        <profile value="https://gematik.de/fhir/erp/StructureDefinition/GEM_ERP_PR_DispenseOperation_Input|1.3"/>
    </meta>
    <parameter>
        <part>
            <resource>
                <MedicationDispense xmlns="http://hl7.org/fhir">
                    <meta>
                        <profile value="https://gematik.de/fhir/erp/StructureDefinition/GEM_ERP_PR_MedicationDispense|1.3"/>
                    </meta>
                    <id value="Example-MedicationDispense"/>
                    <identifier>
                        <system value="https://gematik.de/fhir/erp/NamingSystem/GEM_ERP_NS_PrescriptionId"/>
                        <value value="160.000.033.491.280.78"/>
                    </identifier>
                    <status value="completed"/>
                    <medicationReference>
                        <reference value="SumatripanMedication"/>
                    </medicationReference>
                    <subject>
                        <identifier>
                            <system value="http://fhir.de/sid/gkv/kvid-10"/>
                            <value value="X123456789"/>
                        </identifier>
                    </subject>
                    <performer>
                        <actor>
                            <identifier>
                                <system value="https://gematik.de/fhir/sid/telematik-id"/>
                                <value value="3-SMC-B-Testkarte-883110000095957"/>
                            </identifier>
                        </actor>
                    </performer>
                    <whenPrepared value="2024-04-03"/>
                    <whenHandedOver value="2024-04-03"/>
                </MedicationDispense>
            </resource>
            <name value="medicationDispense"/>
        </part>
        <part>
            <resource>
                <Medication xmlns="http://hl7.org/fhir">
                    <meta>
                        <profile value="https://gematik.de/fhir/erp/StructureDefinition/GEM_ERP_PR_Medication|1.3"/>
                    </meta>
                    <id value="SumatripanMedication"/>
                    <extension url="https://gematik.de/fhir/dev-epa-medication/StructureDefinition/drug-category-extension">
                        <valueCoding>
                            <code value="00"/>
                        </valueCoding>
                    </extension>
                    <extension url="https://gematik.de/fhir/dev-epa-medication/StructureDefinition/medication-id-vaccine-extension">
                        <valueBoolean value="False"/>
                    </extension>
                    <extension url="http://fhir.de/StructureDefinition/normgroesse">
                        <valueCode value="N1"/>
                    </extension>
                    <code>
                        <coding>
                            <system value="http://fhir.de/CodeSystem/ifa/pzn"/>
                            <code value="06313728"/>
                        </coding>
                        <text value="Sumatriptan-1a Pharma 100 mg Tabletten"/>
                    </code>
                    <form>
                        <coding>
                            <system value="https://fhir.kbv.de/CodeSystem/KBV_CS_SFHIR_KBV_DARREICHUNGSFORM"/>
                            <code value="TAB"/>
                        </coding>
                    </form>
                    <amount>
                        <numerator>
                            <extension url="https://gematik.de/fhir/dev-epa-medication/StructureDefinition/medication-total-quantity-formulation-extension">
                                <valueString value="20 St."/>
                            </extension>
                            <value value="20"/>
                            <unit value="St"/>
                        </numerator>
                        <denominator>
                            <value value="1"/>
                        </denominator>
                    </amount>
                </Medication>
            </resource>
            <name value="medication"/>
        </part>
        <name value="rxDispensation"/>
    </parameter>
    <parameter>
        <part>
            <resource>
                <MedicationDispense xmlns="http://hl7.org/fhir">
                    <meta>
                        <profile value="https://gematik.de/fhir/erp/StructureDefinition/GEM_ERP_PR_MedicationDispense|1.3"/>
                    </meta>
                    <id value="Example-MedicationDispense-2"/>
                    <identifier>
                        <system value="https://gematik.de/fhir/erp/NamingSystem/GEM_ERP_NS_PrescriptionId"/>
                        <value value="160.153.303.257.459"/>
                    </identifier>
                    <status value="completed"/>
                    <medicationReference>
                        <reference value="Medication-Without-Strength-Code"/>
                    </medicationReference>
                    <subject>
                        <identifier>
                            <system value="http://fhir.de/sid/gkv/kvid-10"/>
                            <value value="X123456789"/>
                        </identifier>
                    </subject>
                    <performer>
                        <actor>
                            <identifier>
                                <system value="https://gematik.de/fhir/sid/telematik-id"/>
                                <value value="3-SMC-B-Testkarte-883110000095957"/>
                            </identifier>
                        </actor>
                    </performer>
                    <whenPrepared value="2024-04-03"/>
                    <whenHandedOver value="2024-04-03"/>
                </MedicationDispense>
            </resource>
            <name value="medicationDispense"/>
        </part>
        <part>
            <resource>
                <Medication xmlns="http://hl7.org/fhir">
                    <meta>
                        <profile value="https://gematik.de/fhir/erp/StructureDefinition/GEM_ERP_PR_Medication|1.3"/>
                    </meta>
                    <id value="Medication-Without-Strength-Code"/>
                    <code>
                        <text value="Infusion bestehend aus 85mg Doxorubicin aufgeloest zur Verabreichung in 250ml 5-%iger (50 mg/ml) Glucose-Infusionsloesung"/>
                    </code>
                    <form>
                        <coding>
                            <system value="http://standardterms.edqm.eu"/>
                            <code value="11210000"/>
                            <display value="Solution for infusion"/>
                        </coding>
                    </form>
                    <ingredient>
                        <itemCodeableConcept>
                            <coding>
                                <system value="http://fhir.de/CodeSystem/bfarm/atc"/>
                                <code value="L01DB01"/>
                                <display value="Doxorubicin"/>
                            </coding>
                        </itemCodeableConcept>
                        <isActive value="True"/>
                        <strength>
                            <numerator>
                                <value value="85"/>
                                <unit value="mg"/>
                                <_system>
                                    <extension url="http://hl7.org/fhir/StructureDefinition/data-absent-reason">
                                        <valueCode value="unknown"/>
                                    </extension>
                                </_system>
                                <_code>
                                    <extension url="http://hl7.org/fhir/StructureDefinition/data-absent-reason">
                                        <valueCode value="unknown"/>
                                    </extension>
                                </_code>
                            </numerator>
                            <denominator>
                                <value value="250"/>
                                <unit value="Milliliter"/>
                                <_system>
                                    <extension url="http://hl7.org/fhir/StructureDefinition/data-absent-reason">
                                        <valueCode value="unknown"/>
                                    </extension>
                                </_system>
                                <_code>
                                    <extension url="http://hl7.org/fhir/StructureDefinition/data-absent-reason">
                                        <valueCode value="unknown"/>
                                    </extension>
                                </_code>
                            </denominator>
                        </strength>
                    </ingredient>
                </Medication>
            </resource>
            <name value="medication"/>
        </part>
        <name value="rxDispensation"/>
    </parameter>
</Parameters>
