<?xml version="1.0" ?>
<Medication xmlns="http://hl7.org/fhir">
    <id value="erp-eml-epa-notes-03-Medication-Medication-Rezeptur"/>
    <meta>
        <profile value="https://gematik.de/fhir/erp/StructureDefinition/GEM_ERP_PR_Medication|1.3"/>
    </meta>
    <resource>
        <Medication xmlns="http://hl7.org/fhir">
            <id value="MedicationHydrocortison"/>
            <meta>
                <profile value="https://gematik.de/fhir/dev-epa-medication/StructureDefinition/epa-medication-pzn-ingredient"/>
            </meta>
            <extension url="https://gematik.de/fhir/dev-epa-medication/StructureDefinition/epa-medication-type-extension">
                <valueCoding>
                    <version value="http://snomed.info/sct/900000000000207008/version/20240201"/>
                    <code value="781405001"/>
                    <system value="http://snomed.info/sct"/>
                    <display value="Medicinal product package (product)"/>
                </valueCoding>
            </extension>
            <batch>
                <lotNumber value="56498416854"/>
            </batch>
            <code>
                <coding>
                    <code value="03424249"/>
                    <system value="http://fhir.de/CodeSystem/ifa/pzn"/>
                    <display value="Hydrocortison 1% Creme"/>
                </coding>
            </code>
        </Medication>
    </resource>
    <resource>
        <Medication xmlns="http://hl7.org/fhir">
            <id value="MedicationDexpanthenol"/>
            <meta>
                <profile value="https://gematik.de/fhir/dev-epa-medication/StructureDefinition/epa-medication-pzn-ingredient"/>
            </meta>
            <extension url="https://gematik.de/fhir/dev-epa-medication/StructureDefinition/epa-medication-type-extension">
                <valueCoding>
                    <version value="http://snomed.info/sct/900000000000207008/version/20240201"/>
                    <code value="781405001"/>
                    <system value="http://snomed.info/sct"/>
                    <display value="Medicinal product package (product)"/>
                </valueCoding>
            </extension>
            <batch>
                <lotNumber value="0132456"/>
            </batch>
            <code>
                <coding>
                    <code value="16667195"/>
                    <system value="http://fhir.de/CodeSystem/ifa/pzn"/>
                    <display value="Dexpanthenol 5% Creme"/>
                </coding>
            </code>
        </Medication>
    </resource>
    <extension url="https://gematik.de/fhir/dev-epa-medication/StructureDefinition/drug-category-extension">
        <valueCoding>
            <code value="00"/>
            <system value="https://gematik.de/fhir/dev-epa-medication/CodeSystem/epa-drug-category-cs"/>
        </valueCoding>
    </extension>
    <extension url="https://gematik.de/fhir/dev-epa-medication/StructureDefinition/epa-medication-type-extension">
        <valueCoding>
            <version value="http://snomed.info/sct/900000000000207008/version/20240201"/>
            <code value="1208954007"/>
            <system value="http://snomed.info/sct"/>
            <display value="Extemporaneous preparation (product)"/>
        </valueCoding>
    </extension>
    <extension url="https://gematik.de/fhir/dev-epa-medication/StructureDefinition/medication-id-vaccine-extension">
        <valueBoolean value="False"/>
    </extension>
    <code>
        <text value="Hydrocortison-Dexpanthenol-Salbe"/>
    </code>
    <amount>
        <numerator>
            <extension url="https://gematik.de/fhir/dev-epa-medication/StructureDefinition/medication-total-quantity-formulation-extension">
                <valueString value="100 ml"/>
            </extension>
            <value value="20"/>
            <unit value="ml"/>
        </numerator>
        <denominator>
            <value value="1"/>
        </denominator>
    </amount>
    <ingredient>
        <strength>
            <numerator>
                <value value="50"/>
                <code value="g"/>
                <system value="http://unitsofmeasure.org"/>
            </numerator>
            <denominator>
                <value value="100"/>
                <code value="g"/>
                <system value="http://unitsofmeasure.org"/>
            </denominator>
        </strength>
        <itemReference>
            <reference value="#MedicationHydrocortison"/>
        </itemReference>
        <isActive value="True"/>
    </ingredient>
    <ingredient>
        <strength>
            <numerator>
                <value value="50"/>
                <code value="g"/>
                <system value="http://unitsofmeasure.org"/>
            </numerator>
            <denominator>
                <value value="100"/>
                <code value="g"/>
                <system value="http://unitsofmeasure.org"/>
            </denominator>
        </strength>
        <itemReference>
            <reference value="#MedicationDexpanthenol"/>
        </itemReference>
        <isActive value="True"/>
    </ingredient>
    <form>
        <coding>
            <code value="SAL"/>
            <system value="https://fhir.kbv.de/CodeSystem/KBV_CS_SFHIR_KBV_DARREICHUNGSFORM"/>
        </coding>
    </form>
</Medication>
