<?xml version="1.0" ?>
<Medication xmlns="http://hl7.org/fhir">
    <id value="erp-eml-epa-notes-04-Medication-Medication-Kombipackung"/>
    <meta>
        <profile value="https://gematik.de/fhir/erp/StructureDefinition/GEM_ERP_PR_Medication|1.3"/>
    </meta>
    <resource>
        <Medication xmlns="http://hl7.org/fhir">
            <id value="Augentropfen"/>
            <meta>
                <profile value="https://gematik.de/fhir/dev-epa-medication/StructureDefinition/epa-medication-pharmaceutical-product"/>
            </meta>
            <extension url="https://gematik.de/fhir/dev-epa-medication/StructureDefinition/epa-medication-type-extension">
                <valueCoding>
                    <code value="373873005"/>
                    <system value="http://snomed.info/sct"/>
                    <display value="Pharmaceutical / biologic product (product)"/>
                </valueCoding>
            </extension>
            <ingredient>
                <strength>
                    <numerator>
                        <value value="20"/>
                        <code value="mg"/>
                        <system value="http://unitsofmeasure.org"/>
                        <unit value="mg"/>
                    </numerator>
                    <denominator>
                        <value value="1"/>
                        <code value="ml"/>
                        <system value="http://unitsofmeasure.org"/>
                        <unit value="ml"/>
                    </denominator>
                </strength>
                <itemCodeableConcept>
                    <coding>
                        <code value="R01AC01"/>
                        <system value="http://fhir.de/CodeSystem/bfarm/atc"/>
                        <display value="Natriumcromoglicat"/>
                    </coding>
                </itemCodeableConcept>
            </ingredient>
            <batch>
                <lotNumber value="0132456"/>
            </batch>
            <code>
                <coding>
                    <code value="01746517-1"/>
                    <system value="http://fhir.de/CodeSystem/abdata/Komponentennummer"/>
                    <display value="Augentropfen"/>
                </coding>
            </code>
        </Medication>
    </resource>
    <resource>
        <Medication xmlns="http://hl7.org/fhir">
            <id value="NasenSpray"/>
            <meta>
                <profile value="https://gematik.de/fhir/dev-epa-medication/StructureDefinition/epa-medication-pharmaceutical-product"/>
            </meta>
            <extension url="https://gematik.de/fhir/dev-epa-medication/StructureDefinition/epa-medication-type-extension">
                <valueCoding>
                    <code value="373873005"/>
                    <system value="http://snomed.info/sct"/>
                    <display value="Pharmaceutical / biologic product (product)"/>
                </valueCoding>
            </extension>
            <ingredient>
                <strength>
                    <numerator>
                        <value value="2.8"/>
                        <code value="mg"/>
                        <system value="http://unitsofmeasure.org"/>
                        <unit value="mg"/>
                    </numerator>
                    <denominator>
                        <value value="1"/>
                        <code value="1"/>
                        <system value="http://unitsofmeasure.org"/>
                        <unit value="Sprühstoß"/>
                    </denominator>
                </strength>
                <itemCodeableConcept>
                    <coding>
                        <code value="R01AC01"/>
                        <system value="http://fhir.de/CodeSystem/bfarm/atc"/>
                        <display value="Natriumcromoglicat"/>
                    </coding>
                </itemCodeableConcept>
            </ingredient>
            <batch>
                <lotNumber value="56498416854"/>
            </batch>
            <code>
                <coding>
                    <code value="01746517-2"/>
                    <system value="http://fhir.de/CodeSystem/abdata/Komponentennummer"/>
                    <display value="Nasenspray, Lösung"/>
                </coding>
            </code>
        </Medication>
    </resource>
    <extension url="https://gematik.de/fhir/dev-epa-medication/StructureDefinition/epa-medication-type-extension">
        <valueCoding>
            <code value="781405001"/>
            <system value="http://snomed.info/sct"/>
            <display value="Medicinal product package"/>
        </valueCoding>
    </extension>
    <extension url="https://gematik.de/fhir/dev-epa-medication/StructureDefinition/medication-id-vaccine-extension">
        <valueBoolean value="False"/>
    </extension>
    <extension url="https://gematik.de/fhir/dev-epa-medication/StructureDefinition/drug-category-extension">
        <valueCoding>
            <code value="00"/>
            <display value="Arzneimittel oder in die Arzneimittelversorgung nach § 31 SGB V einbezogenes Produkt"/>
        </valueCoding>
    </extension>
    <form>
        <coding>
            <code value="KPG"/>
            <system value="https://fhir.kbv.de/CodeSystem/KBV_CS_SFHIR_KBV_DARREICHUNGSFORM"/>
        </coding>
        <text value="Kombipackung"/>
    </form>
    <ingredient>
        <itemReference>
            <reference value="#NasenSpray"/>
        </itemReference>
    </ingredient>
    <ingredient>
        <itemReference>
            <reference value="#Augentropfen"/>
        </itemReference>
    </ingredient>
    <code>
        <coding>
            <code value="1746517"/>
            <system value="http://fhir.de/CodeSystem/ifa/pzn"/>
            <display value="CROMO-RATIOPHARM Kombipackung"/>
        </coding>
    </code>
    <status value="active"/>
</Medication>
