<Bundle xmlns="http://hl7.org/fhir"><id value="7896c1ef-43bd-4606-8b17-dfb86bf90ee7"/><meta><lastUpdated value="2023-11-27T08:31:54.130+01:00"/><profile value="https://fhir.kbv.de/StructureDefinition/KBV_PR_ERP_Bundle|1.1.0"/></meta><identifier><system value="https://gematik.de/fhir/erp/NamingSystem/GEM_ERP_NS_PrescriptionId"/><value value="160.000.006.420.735.15"/></identifier><type value="document"/><timestamp value="2023-11-27T08:31:54.130+01:00"/><entry><fullUrl value="https://pvs.gematik.de/fhir/Composition/b6115269-1f0c-46a8-8414-e2935ac815d6"/><resource><Composition xmlns="http://hl7.org/fhir"><id value="b6115269-1f0c-46a8-8414-e2935ac815d6"/><meta><profile value="https://fhir.kbv.de/StructureDefinition/KBV_PR_ERP_Composition|1.1.0"/></meta><extension url="https://fhir.kbv.de/StructureDefinition/KBV_EX_FOR_Legal_basis"><valueCoding><system value="https://fhir.kbv.de/CodeSystem/KBV_CS_SFHIR_KBV_STATUSKENNZEICHEN"/><code value="00"/></valueCoding></extension><status value="final"/><type><coding><system value="https://fhir.kbv.de/CodeSystem/KBV_CS_SFHIR_KBV_FORMULAR_ART"/><code value="e16A"/></coding></type><subject><reference value="Patient/913aa0f0-6d22-406f-b9e6-0e0a3cbd2b4f"/></subject><date value="2023-11-27T08:31:54+01:00"/><author><reference value="Practitioner/1f1f12f3-077f-4fa7-8ea9-5de6622a82c5"/><type value="Practitioner"/></author><author><type value="Device"/><identifier><system value="https://fhir.kbv.de/NamingSystem/KBV_NS_FOR_Pruefnummer"/><value value="GEMATIK/410/2109/36/123"/></identifier></author><title value="elektronische Arzneimittelverordnung"/><custodian><reference value="Organization/b35aec1b-1dbf-45b1-86b1-3f091dcf1f72"/></custodian><section><code><coding><system value="https://fhir.kbv.de/CodeSystem/KBV_CS_ERP_Section_Type"/><code value="Coverage"/></coding></code><entry><reference value="Coverage/03649180-c714-48c1-9d2f-a1dfd0c64e65"/></entry></section><section><code><coding><system value="https://fhir.kbv.de/CodeSystem/KBV_CS_ERP_Section_Type"/><code value="Prescription"/></coding></code><entry><reference value="MedicationRequest/65cecc7d-990a-4ed3-9bf5-101c07da6fce"/></entry></section></Composition></resource></entry><entry><fullUrl value="https://pvs.gematik.de/fhir/Medication/bbc3632d-90f7-423b-aff5-5a5fccaf5caf"/><resource><Medication xmlns="http://hl7.org/fhir"><id value="bbc3632d-90f7-423b-aff5-5a5fccaf5caf"/><meta><profile value="https://fhir.kbv.de/StructureDefinition/KBV_PR_ERP_Medication_PZN|1.1.0"/></meta><extension url="https://fhir.kbv.de/StructureDefinition/KBV_EX_Base_Medication_Type"><valueCodeableConcept><coding><system value="http://snomed.info/sct"/><version value="http://snomed.info/sct/900000000000207008/version/20220331"/><code value="763158003"/><display value="Medicinal product (product)"/></coding></valueCodeableConcept></extension><extension url="https://fhir.kbv.de/StructureDefinition/KBV_EX_ERP_Medication_Category"><valueCoding><system value="https://fhir.kbv.de/CodeSystem/KBV_CS_ERP_Medication_Category"/><code value="00"/></valueCoding></extension><extension url="https://fhir.kbv.de/StructureDefinition/KBV_EX_ERP_Medication_Vaccine"><valueBoolean value="false"/></extension><extension url="http://fhir.de/StructureDefinition/normgroesse"><valueCode value="NB"/></extension><code><coding><system value="http://fhir.de/CodeSystem/ifa/pzn"/><code value="06131341"/></coding><text value="Dabvomilproston"/></code><form><coding><system value="https://fhir.kbv.de/CodeSystem/KBV_CS_SFHIR_KBV_DARREICHUNGSFORM"/><code value="TAB"/></coding></form><amount><numerator><extension url="https://fhir.kbv.de/StructureDefinition/KBV_EX_ERP_Medication_PackagingSize"><valueString value="1"/></extension><unit value="Stk"/></numerator><denominator><value value="1"/></denominator></amount></Medication></resource></entry><entry><fullUrl value="https://pvs.gematik.de/fhir/Patient/913aa0f0-6d22-406f-b9e6-0e0a3cbd2b4f"/><resource><Patient xmlns="http://hl7.org/fhir"><id value="913aa0f0-6d22-406f-b9e6-0e0a3cbd2b4f"/><meta><profile value="https://fhir.kbv.de/StructureDefinition/KBV_PR_FOR_Patient|1.1.0"/></meta><identifier><type><coding><system value="http://fhir.de/CodeSystem/identifier-type-de-basis"/><code value="GKV"/></coding></type><system value="http://fhir.de/sid/gkv/kvid-10"/><value value="X110498565"/></identifier><name><use value="official"/><family value="Hüllmann"><extension url="http://hl7.org/fhir/StructureDefinition/humanname-own-name"><valueString value="Hüllmann"/></extension></family><given value="Sina"/></name><birthDate value="1974-05-21"/><address><type value="both"/><line value="Von-Pettenkofer-Str. 073"><extension url="http://hl7.org/fhir/StructureDefinition/iso21090-ADXP-houseNumber"><valueString value="073"/></extension><extension url="http://hl7.org/fhir/StructureDefinition/iso21090-ADXP-streetName"><valueString value="Von-Pettenkofer-Str."/></extension></line><city value="Schön Brandonberg"/><postalCode value="06880"/><country value="D"/></address></Patient></resource></entry><entry><fullUrl value="https://pvs.gematik.de/fhir/Organization/b35aec1b-1dbf-45b1-86b1-3f091dcf1f72"/><resource><Organization xmlns="http://hl7.org/fhir"><id value="b35aec1b-1dbf-45b1-86b1-3f091dcf1f72"/><meta><profile value="https://fhir.kbv.de/StructureDefinition/KBV_PR_FOR_Organization|1.1.0"/></meta><identifier><type><coding><system value="http://terminology.hl7.org/CodeSystem/v2-0203"/><code value="BSNR"/></coding></type><system value="https://fhir.kbv.de/NamingSystem/KBV_NS_Base_BSNR"/><value value="011508174"/></identifier><name value="Arztpraxis Schraßer"/><telecom><system value="phone"/><value value="+49-7795-63298961"/></telecom><telecom><system value="email"/><value value="klara.moede@roleder.net"/></telecom><address><type value="both"/><line value="Weyerweg 372"><extension url="http://hl7.org/fhir/StructureDefinition/iso21090-ADXP-houseNumber"><valueString value="372"/></extension><extension url="http://hl7.org/fhir/StructureDefinition/iso21090-ADXP-streetName"><valueString value="Weyerweg"/></extension></line><city value="Schön Renéberg"/><postalCode value="33579"/><country value="D"/></address></Organization></resource></entry><entry><fullUrl value="https://pvs.gematik.de/fhir/Coverage/03649180-c714-48c1-9d2f-a1dfd0c64e65"/><resource><Coverage xmlns="http://hl7.org/fhir"><id value="03649180-c714-48c1-9d2f-a1dfd0c64e65"/><meta><profile value="https://fhir.kbv.de/StructureDefinition/KBV_PR_FOR_Coverage|1.1.0"/></meta><extension url="http://fhir.de/StructureDefinition/gkv/besondere-personengruppe"><valueCoding><system value="https://fhir.kbv.de/CodeSystem/KBV_CS_SFHIR_KBV_PERSONENGRUPPE"/><code value="00"/></valueCoding></extension><extension url="http://fhir.de/StructureDefinition/gkv/dmp-kennzeichen"><valueCoding><system value="https://fhir.kbv.de/CodeSystem/KBV_CS_SFHIR_KBV_DMP"/><code value="00"/></valueCoding></extension><extension url="http://fhir.de/StructureDefinition/gkv/wop"><valueCoding><system value="https://fhir.kbv.de/CodeSystem/KBV_CS_SFHIR_ITA_WOP"/><code value="50"/></valueCoding></extension><extension url="http://fhir.de/StructureDefinition/gkv/versichertenart"><valueCoding><system value="https://fhir.kbv.de/CodeSystem/KBV_CS_SFHIR_KBV_VERSICHERTENSTATUS"/><code value="1"/></valueCoding></extension><status value="active"/><type><coding><system value="http://fhir.de/CodeSystem/versicherungsart-de-basis"/><code value="GKV"/></coding></type><beneficiary><reference value="Patient/5f2ebca7-26a8-41ab-b732-59bfdddd292a"/></beneficiary><payor><identifier><system value="http://fhir.de/sid/arge-ik/iknr"/><value value="105830517"/></identifier><display value="BKK Linde"/></payor></Coverage></resource></entry><entry><fullUrl value="https://pvs.gematik.de/fhir/Practitioner/1f1f12f3-077f-4fa7-8ea9-5de6622a82c5"/><resource><Practitioner xmlns="http://hl7.org/fhir"><id value="1f1f12f3-077f-4fa7-8ea9-5de6622a82c5"/><meta><profile value="https://fhir.kbv.de/StructureDefinition/KBV_PR_FOR_Practitioner|1.1.0"/></meta><identifier><type><coding><system value="http://terminology.hl7.org/CodeSystem/v2-0203"/><code value="LANR"/></coding></type><system value="https://fhir.kbv.de/NamingSystem/KBV_NS_Base_ANR"/><value value="311538642"/></identifier><name><use value="official"/><family value="Schraßer"><extension url="http://hl7.org/fhir/StructureDefinition/humanname-own-name"><valueString value="Schraßer"/></extension></family><given value="Dr."/><prefix value="Dr."><extension url="http://hl7.org/fhir/StructureDefinition/iso21090-EN-qualifier"><valueCode value="AC"/></extension></prefix></name><qualification><code><coding><system value="https://fhir.kbv.de/CodeSystem/KBV_CS_FOR_Qualification_Type"/><code value="00"/></coding></code></qualification><qualification><code><coding><system value="https://fhir.kbv.de/CodeSystem/KBV_CS_FOR_Berufsbezeichnung"/><code value="Berufsbezeichnung"/></coding><text value="Super-Facharzt für alles Mögliche"/></code></qualification></Practitioner></resource></entry><entry><fullUrl value="https://pvs.gematik.de/fhir/MedicationRequest/65cecc7d-990a-4ed3-9bf5-101c07da6fce"/><resource><MedicationRequest xmlns="http://hl7.org/fhir"><id value="65cecc7d-990a-4ed3-9bf5-101c07da6fce"/><meta><profile value="https://fhir.kbv.de/StructureDefinition/KBV_PR_ERP_Prescription|1.1.0"/></meta><extension url="https://fhir.kbv.de/StructureDefinition/KBV_EX_ERP_BVG"><valueBoolean value="false"/></extension><extension url="https://fhir.kbv.de/StructureDefinition/KBV_EX_ERP_EmergencyServicesFee"><valueBoolean value="false"/></extension><extension url="https://fhir.kbv.de/StructureDefinition/KBV_EX_ERP_Multiple_Prescription"><extension url="Kennzeichen"><valueBoolean value="true"/></extension><extension url="Nummerierung"><valueRatio><numerator><value value="1"/></numerator><denominator><value value="4"/></denominator></valueRatio></extension><extension url="Zeitraum"><valuePeriod><start value="2023-11-27"/><end value="2024-02-25"/></valuePeriod></extension><extension url="ID"><valueIdentifier><system value="urn:ietf:rfc:3986"/><value value="urn:uuid:06c3ef51-4c7e-4b88-98f0-d3d21f64209f"/></valueIdentifier></extension></extension><extension url="https://fhir.kbv.de/StructureDefinition/KBV_EX_FOR_StatusCoPayment"><valueCoding><system value="https://fhir.kbv.de/CodeSystem/KBV_CS_FOR_StatusCoPayment"/><code value="2"/></valueCoding></extension><status value="active"/><intent value="order"/><medicationReference><reference value="Medication/bbc3632d-90f7-423b-aff5-5a5fccaf5caf"/></medicationReference><subject><reference value="Patient/913aa0f0-6d22-406f-b9e6-0e0a3cbd2b4f"/></subject><authoredOn value="2023-11-27"/><requester><reference value="Practitioner/1f1f12f3-077f-4fa7-8ea9-5de6622a82c5"/></requester><insurance><reference value="Coverage/03649180-c714-48c1-9d2f-a1dfd0c64e65"/></insurance><dosageInstruction><extension url="https://fhir.kbv.de/StructureDefinition/KBV_EX_ERP_DosageFlag"><valueBoolean value="true"/></extension><text value="2-2-2-3-1"/></dosageInstruction><dispenseRequest><quantity><value value="1"/><system value="http://unitsofmeasure.org"/><code value="{Package}"/></quantity></dispenseRequest><substitution><allowedBoolean value="false"/></substitution></MedicationRequest></resource></entry></Bundle>