{
  "resourceType": "Parameters",
  "id": "c882728b-9c8f-4325-b317-ac44db7e492d",
  "meta": {
    "profile": [ "https://gematik.de/fhir/epa-medication/StructureDefinition/epa-op-provide-dispensation-input-parameters" ]
  },
  "parameter": [ {
    "name": "dispensation",
    "part": [ {
      "name": "medicationDispense",
      "resource": {
        "resourceType": "MedicationDispense",
        "id": "784d8470-4d5f-4ea7-935b-95b32dd79a34",
        "meta": {
          "profile": [ "https://gematik.de/fhir/epa-medication/StructureDefinition/epa-medication-dispense" ]
        },
        "identifier": [ {
          "system": "https://gematik.de/fhir/erp/NamingSystem/GEM_ERP_NS_PrescriptionId",
          "value": "160.100.000.000.012.06"
        } ],
        "status": "completed",
        "category": {
          "coding": [ {
            "system": "https://gematik.de/fhir/epa-medication/CodeSystem/EPAMedicationDispenseCategoryCS",
            "code": "prescription",
            "display": "prescription dispense"
          } ]
        },
        "medicationReference": {
          "reference": "Medication/4db80efc-21f6-4c22-bf47-4fb7cbcf1f4e"
        },
        "subject": {
          "identifier": {
            "system": "http://fhir.de/sid/gkv/kvid-10",
            "value": "K220635158"
          }
        },
        "performer": [ {
          "actor": {
            "reference": "Organization/eee9e62d-5a9d-4a65-832b-531967b81764"
          }
        } ],
        "whenHandedOver": "2024-11-27"
      }
    }, {
      "name": "medication",
      "resource": {
        "resourceType": "Medication",
        "id": "4db80efc-21f6-4c22-bf47-4fb7cbcf1f4e",
        "meta": {
          "profile": [ "https://gematik.de/fhir/epa-medication/StructureDefinition/epa-medication" ]
        },
        "extension": [ {
          "url": "https://gematik.de/fhir/epa-medication/StructureDefinition/drug-category-extension",
          "valueCoding": {
            "system": "https://gematik.de/fhir/epa-medication/CodeSystem/epa-drug-category-cs",
            "code": "00"
          }
        }, {
          "url": "https://gematik.de/fhir/epa-medication/StructureDefinition/medication-id-vaccine-extension",
          "valueBoolean": false
        }, {
          "url": "http://fhir.de/StructureDefinition/normgroesse",
          "valueCode": "N3"
        } ],
        "code": {
          "coding": [ {
            "system": "http://fhir.de/CodeSystem/ifa/pzn",
            "code": "00629028"
          } ],
          "text": "Losartan Atid 100 mg Filmtabletten, 98 St."
        },
        "form": {
          "coding": [ {
            "system": "https://fhir.kbv.de/CodeSystem/KBV_CS_SFHIR_KBV_DARREICHUNGSFORM",
            "code": "FTA"
          } ]
        },
        "amount": {
          "numerator": {
            "extension": [ {
              "url": "https://gematik.de/fhir/epa-medication/StructureDefinition/medication-packaging-size-extension",
              "valueString": "98"
            } ],
            "unit": "Tabletten"
          },
          "denominator": {
            "value": 1
          }
        },
        "batch": {
          "lotNumber": "A123456789-1",
          "expirationDate": "2025-12-31"
        }
      }
    } ]
  }, {
    "name": "performerInstitution",
    "resource": {
      "resourceType": "Organization",
      "id": "eee9e62d-5a9d-4a65-832b-531967b81764",
      "meta": {
        "profile": [ "https://gematik.de/fhir/directory/StructureDefinition/OrganizationDirectory" ],
        "tag": [ {
          "system": "https://gematik.de/fhir/directory/CodeSystem/Origin",
          "code": "ldap"
        } ]
      },
      "identifier": [ {
        "system": "https://gematik.de/fhir/sid/telematik-id",
        "value": "3-07.2.1234560000.10.789"
      } ],
      "type": [ {
        "coding": [ {
          "system": "https://gematik.de/fhir/directory/CodeSystem/OrganizationProfessionOID",
          "code": "1.2.276.0.76.4.58"
        } ]
      } ],
      "name": "Marsha Mellow"
    }
  } ]
}