<Bundle xmlns="http://hl7.org/fhir"><id value="0d15cc76-8d2c-4029-b0d1-3693acc83e82"/><meta><lastUpdated value="2023-04-21T09:32:17.907+02:00"/><profile value="https://fhir.kbv.de/StructureDefinition/KBV_PR_ERP_Bundle|1.0.2"/></meta><identifier><system value="https://gematik.de/fhir/NamingSystem/PrescriptionID"/><value value="160.000.006.315.523.13"/></identifier><type value="document"/><timestamp value="2023-04-21T09:32:17.907+02:00"/><entry><fullUrl value="https://pvs.gematik.de/fhir/Composition/7004662c-efbb-449b-94f3-5faf1503d614"/><resource><Composition xmlns="http://hl7.org/fhir"><id value="7004662c-efbb-449b-94f3-5faf1503d614"/><meta><profile value="https://fhir.kbv.de/StructureDefinition/KBV_PR_ERP_Composition|1.0.2"/></meta><extension url="https://fhir.kbv.de/StructureDefinition/KBV_EX_FOR_Legal_basis"><valueCoding><system value="https://fhir.kbv.de/CodeSystem/KBV_CS_SFHIR_KBV_STATUSKENNZEICHEN"/><code value="00"/></valueCoding></extension><status value="final"/><type><coding><system value="https://fhir.kbv.de/CodeSystem/KBV_CS_SFHIR_KBV_FORMULAR_ART"/><code value="e16A"/></coding></type><subject><reference value="Patient/f2031483-b52c-4aca-85f8-203c241ea421"/></subject><date value="2023-04-21T09:32:17+02:00"/><author><reference value="Practitioner/0a2fa0f1-7079-45a8-8af0-93fda9df8531"/><type value="Practitioner"/></author><author><type value="Device"/><identifier><system value="https://fhir.kbv.de/NamingSystem/KBV_NS_FOR_Pruefnummer"/><value value="GEMATIK/410/2109/36/123"/></identifier></author><title value="elektronische Arzneimittelverordnung"/><custodian><reference value="Organization/12b3a3b0-d019-4f61-b4d3-388db977d714"/></custodian><section><code><coding><system value="https://fhir.kbv.de/CodeSystem/KBV_CS_ERP_Section_Type"/><code value="Coverage"/></coding></code><entry><reference value="Coverage/99af8007-f3f6-47a2-a9c9-238124c3e4cf"/></entry></section><section><code><coding><system value="https://fhir.kbv.de/CodeSystem/KBV_CS_ERP_Section_Type"/><code value="Prescription"/></coding></code><entry><reference value="MedicationRequest/b70acd75-8d56-4810-854c-d7c1afbb61dc"/></entry></section></Composition></resource></entry><entry><fullUrl value="https://pvs.gematik.de/fhir/MedicationRequest/b70acd75-8d56-4810-854c-d7c1afbb61dc"/><resource><MedicationRequest xmlns="http://hl7.org/fhir"><id value="b70acd75-8d56-4810-854c-d7c1afbb61dc"/><meta><profile value="https://fhir.kbv.de/StructureDefinition/KBV_PR_ERP_Prescription|1.0.2"/></meta><extension url="https://fhir.kbv.de/StructureDefinition/KBV_EX_ERP_BVG"><valueBoolean value="false"/></extension><extension url="https://fhir.kbv.de/StructureDefinition/KBV_EX_ERP_EmergencyServicesFee"><valueBoolean value="false"/></extension><extension url="https://fhir.kbv.de/StructureDefinition/KBV_EX_ERP_Multiple_Prescription"><extension url="Kennzeichen"><valueBoolean value="false"/></extension></extension><extension url="https://fhir.kbv.de/StructureDefinition/KBV_EX_ERP_StatusCoPayment"><valueCoding><system value="https://fhir.kbv.de/CodeSystem/KBV_CS_ERP_StatusCoPayment"/><code value="0"/></valueCoding></extension><status value="active"/><intent value="order"/><medicationReference><reference value="Medication/4e09a3b9-ea33-42e5-8e84-0033c0797dea"/></medicationReference><subject><reference value="Patient/f2031483-b52c-4aca-85f8-203c241ea421"/></subject><authoredOn value="2023-04-21"/><requester><reference value="Practitioner/0a2fa0f1-7079-45a8-8af0-93fda9df8531"/></requester><insurance><reference value="Coverage/99af8007-f3f6-47a2-a9c9-238124c3e4cf"/></insurance><dosageInstruction><extension url="https://fhir.kbv.de/StructureDefinition/KBV_EX_ERP_DosageFlag"><valueBoolean value="true"/></extension><text value="1-0-0-0"/></dosageInstruction><dispenseRequest><quantity><value value="1"/><system value="http://unitsofmeasure.org"/><code value="{Package}"/></quantity></dispenseRequest><substitution><allowedBoolean value="true"/></substitution></MedicationRequest></resource></entry><entry><fullUrl value="https://pvs.gematik.de/fhir/Medication/4e09a3b9-ea33-42e5-8e84-0033c0797dea"/><resource><Medication xmlns="http://hl7.org/fhir"><id value="4e09a3b9-ea33-42e5-8e84-0033c0797dea"/><meta><profile value="https://fhir.kbv.de/StructureDefinition/KBV_PR_ERP_Medication_PZN|1.0.2"/></meta><extension url="https://fhir.kbv.de/StructureDefinition/KBV_EX_ERP_Medication_Category"><valueCoding><system value="https://fhir.kbv.de/CodeSystem/KBV_CS_ERP_Medication_Category"/><code value="00"/></valueCoding></extension><extension url="https://fhir.kbv.de/StructureDefinition/KBV_EX_ERP_Medication_Vaccine"><valueBoolean value="false"/></extension><extension url="http://fhir.de/StructureDefinition/normgroesse"><valueCode value="NB"/></extension><code><coding><system value="http://fhir.de/CodeSystem/ifa/pzn"/><code value="12345678"/></coding><text value="Schmerzmittel"/></code><form><coding><system value="https://fhir.kbv.de/CodeSystem/KBV_CS_SFHIR_KBV_DARREICHUNGSFORM"/><code value="TAB"/></coding></form><amount><numerator><value value="1"/><unit value="Stk"/></numerator><denominator><value value="1"/></denominator></amount></Medication></resource></entry><entry><fullUrl value="https://pvs.gematik.de/fhir/Patient/f2031483-b52c-4aca-85f8-203c241ea421"/><resource><Patient xmlns="http://hl7.org/fhir"><id value="f2031483-b52c-4aca-85f8-203c241ea421"/><meta><profile value="https://fhir.kbv.de/StructureDefinition/KBV_PR_FOR_Patient|1.0.3"/></meta><identifier><type><coding><system value="http://fhir.de/CodeSystem/identifier-type-de-basis"/><code value="GKV"/></coding></type><system value="http://fhir.de/NamingSystem/gkv/kvid-10"/><value value="X110498565"/></identifier><name><use value="official"/><family value="Hüllmann"/><given value="Sina"/></name><birthDate value="1989-09-05"/><address><type value="both"/><line value="Am Junkernkamp 84b"><extension url="http://hl7.org/fhir/StructureDefinition/iso21090-ADXP-houseNumber"><valueString value="84b"/></extension><extension url="http://hl7.org/fhir/StructureDefinition/iso21090-ADXP-streetName"><valueString value="Am Junkernkamp"/></extension></line><city value="Alt Shawnbrunn"/><postalCode value="45271"/><country value="D"/></address></Patient></resource></entry><entry><fullUrl value="https://pvs.gematik.de/fhir/Organization/12b3a3b0-d019-4f61-b4d3-388db977d714"/><resource><Organization xmlns="http://hl7.org/fhir"><id value="12b3a3b0-d019-4f61-b4d3-388db977d714"/><meta><profile value="https://fhir.kbv.de/StructureDefinition/KBV_PR_FOR_Organization|1.0.3"/></meta><identifier><type><coding><system value="http://terminology.hl7.org/CodeSystem/v2-0203"/><code value="BSNR"/></coding></type><system value="https://fhir.kbv.de/NamingSystem/KBV_NS_Base_BSNR"/><value value="016042668"/></identifier><name value="Arztpraxis Schraßer"/><telecom><system value="phone"/><value value="(0186) 771994445"/></telecom><telecom><system value="email"/><value value="andre.jungton@leberer.com"/></telecom><address><type value="both"/><line value="Drosselweg 87a"><extension url="http://hl7.org/fhir/StructureDefinition/iso21090-ADXP-houseNumber"><valueString value="87a"/></extension><extension url="http://hl7.org/fhir/StructureDefinition/iso21090-ADXP-streetName"><valueString value="Drosselweg"/></extension></line><city value="Neu Lenjaburg"/><postalCode value="58568"/><country value="D"/></address></Organization></resource></entry><entry><fullUrl value="https://pvs.gematik.de/fhir/Coverage/99af8007-f3f6-47a2-a9c9-238124c3e4cf"/><resource><Coverage xmlns="http://hl7.org/fhir"><id value="99af8007-f3f6-47a2-a9c9-238124c3e4cf"/><meta><profile value="https://fhir.kbv.de/StructureDefinition/KBV_PR_FOR_Coverage|1.0.3"/></meta><extension url="http://fhir.de/StructureDefinition/gkv/besondere-personengruppe"><valueCoding><system value="https://fhir.kbv.de/CodeSystem/KBV_CS_SFHIR_KBV_PERSONENGRUPPE"/><code value="00"/></valueCoding></extension><extension url="http://fhir.de/StructureDefinition/gkv/dmp-kennzeichen"><valueCoding><system value="https://fhir.kbv.de/CodeSystem/KBV_CS_SFHIR_KBV_DMP"/><code value="00"/></valueCoding></extension><extension url="http://fhir.de/StructureDefinition/gkv/wop"><valueCoding><system value="https://fhir.kbv.de/CodeSystem/KBV_CS_SFHIR_ITA_WOP"/><code value="78"/></valueCoding></extension><extension url="http://fhir.de/StructureDefinition/gkv/versichertenart"><valueCoding><system value="https://fhir.kbv.de/CodeSystem/KBV_CS_SFHIR_KBV_VERSICHERTENSTATUS"/><code value="1"/></valueCoding></extension><status value="active"/><type><coding><system value="http://fhir.de/CodeSystem/versicherungsart-de-basis"/><code value="GKV"/></coding></type><beneficiary><reference value="Patient/d28f5699-dc5c-4f5d-889f-82d861d53d86"/></beneficiary><payor><identifier><system value="http://fhir.de/NamingSystem/arge-ik/iknr"/><value value="249272231"/></identifier><display value="KOA Bremen"/></payor></Coverage></resource></entry><entry><fullUrl value="https://pvs.gematik.de/fhir/Practitioner/0a2fa0f1-7079-45a8-8af0-93fda9df8531"/><resource><Practitioner xmlns="http://hl7.org/fhir"><id value="0a2fa0f1-7079-45a8-8af0-93fda9df8531"/><meta><profile value="https://fhir.kbv.de/StructureDefinition/KBV_PR_FOR_Practitioner|1.0.3"/></meta><identifier><type><coding><system value="http://terminology.hl7.org/CodeSystem/v2-0203"/><code value="LANR"/></coding></type><system value="https://fhir.kbv.de/NamingSystem/KBV_NS_Base_ANR"/><value value="564263190"/></identifier><name><use value="official"/><family value="Schraßer"/><given value="Dr."/><prefix value="Dr."><extension url="http://hl7.org/fhir/StructureDefinition/iso21090-EN-qualifier"><valueCode value="AC"/></extension></prefix></name><qualification><code><coding><system value="https://fhir.kbv.de/CodeSystem/KBV_CS_FOR_Qualification_Type"/><code value="00"/></coding></code></qualification><qualification><code><text value="Super-Facharzt für alles Mögliche"/></code></qualification></Practitioner></resource></entry></Bundle>