<Bundle xmlns="http://hl7.org/fhir"><id value="d1e43d06-c509-4d66-ad4e-37e4c8414145"/><meta><lastUpdated value="2023-03-16T12:50:20.654+01:00"/><profile value="https://fhir.kbv.de/StructureDefinition/KBV_PR_ERP_Bundle|1.0.2"/></meta><identifier><system value="https://gematik.de/fhir/NamingSystem/PrescriptionID"/><value value="160.000.006.300.822.78"/></identifier><type value="document"/><timestamp value="2023-03-16T12:50:20.654+01:00"/><entry><fullUrl value="https://pvs.gematik.de/fhir/Composition/15e2d20b-6945-4202-ab12-996466a025b1"/><resource><Composition xmlns="http://hl7.org/fhir"><id value="15e2d20b-6945-4202-ab12-996466a025b1"/><meta><profile value="https://fhir.kbv.de/StructureDefinition/KBV_PR_ERP_Composition|1.0.2"/></meta><extension url="https://fhir.kbv.de/StructureDefinition/KBV_EX_FOR_Legal_basis"><valueCoding><system value="https://fhir.kbv.de/CodeSystem/KBV_CS_SFHIR_KBV_STATUSKENNZEICHEN"/><code value="00"/></valueCoding></extension><status value="final"/><type><coding><system value="https://fhir.kbv.de/CodeSystem/KBV_CS_SFHIR_KBV_FORMULAR_ART"/><code value="e16A"/></coding></type><subject><reference value="Patient/2e7af512-c956-4268-90f0-baa1660cabd5"/></subject><date value="2023-03-16T12:50:20+01:00"/><author><reference value="Practitioner/ccc4fdd9-db1d-4573-bcc2-de7091ce9a97"/><type value="Practitioner"/></author><author><type value="Device"/><identifier><system value="https://fhir.kbv.de/NamingSystem/KBV_NS_FOR_Pruefnummer"/><value value="GEMATIK/410/2109/36/123"/></identifier></author><title value="elektronische Arzneimittelverordnung"/><custodian><reference value="Organization/13f7f75d-21ca-4d22-8d30-488c9ec60ac9"/></custodian><section><code><coding><system value="https://fhir.kbv.de/CodeSystem/KBV_CS_ERP_Section_Type"/><code value="Coverage"/></coding></code><entry><reference value="Coverage/80488903-c088-4a0d-85d9-f64e0de72e85"/></entry></section><section><code><coding><system value="https://fhir.kbv.de/CodeSystem/KBV_CS_ERP_Section_Type"/><code value="Prescription"/></coding></code><entry><reference value="MedicationRequest/4d6f4142-257b-4796-8622-4bb7af321aff"/></entry></section></Composition></resource></entry><entry><fullUrl value="https://pvs.gematik.de/fhir/MedicationRequest/4d6f4142-257b-4796-8622-4bb7af321aff"/><resource><MedicationRequest xmlns="http://hl7.org/fhir"><id value="4d6f4142-257b-4796-8622-4bb7af321aff"/><meta><profile value="https://fhir.kbv.de/StructureDefinition/KBV_PR_ERP_Prescription|1.0.2"/></meta><extension url="https://fhir.kbv.de/StructureDefinition/KBV_EX_ERP_BVG"><valueBoolean value="false"/></extension><extension url="https://fhir.kbv.de/StructureDefinition/KBV_EX_ERP_EmergencyServicesFee"><valueBoolean value="false"/></extension><extension url="https://fhir.kbv.de/StructureDefinition/KBV_EX_ERP_Multiple_Prescription"><extension url="Kennzeichen"><valueBoolean value="false"/></extension></extension><extension url="https://fhir.kbv.de/StructureDefinition/KBV_EX_ERP_StatusCoPayment"><valueCoding><system value="https://fhir.kbv.de/CodeSystem/KBV_CS_ERP_StatusCoPayment"/><code value="0"/></valueCoding></extension><status value="active"/><intent value="order"/><medicationReference><reference value="Medication/0d38adca-4ca0-477e-bf68-425872b18bb4"/></medicationReference><subject><reference value="Patient/2e7af512-c956-4268-90f0-baa1660cabd5"/></subject><authoredOn value="2023-03-16"/><requester><reference value="Practitioner/ccc4fdd9-db1d-4573-bcc2-de7091ce9a97"/></requester><insurance><reference value="Coverage/80488903-c088-4a0d-85d9-f64e0de72e85"/></insurance><dosageInstruction><extension url="https://fhir.kbv.de/StructureDefinition/KBV_EX_ERP_DosageFlag"><valueBoolean value="true"/></extension><text value="1-0-0-0"/></dosageInstruction><dispenseRequest><quantity><value value="1"/><system value="http://unitsofmeasure.org"/><code value="{Package}"/></quantity></dispenseRequest><substitution><allowedBoolean value="true"/></substitution></MedicationRequest></resource></entry><entry><fullUrl value="https://pvs.gematik.de/fhir/Medication/0d38adca-4ca0-477e-bf68-425872b18bb4"/><resource><Medication xmlns="http://hl7.org/fhir"><id value="0d38adca-4ca0-477e-bf68-425872b18bb4"/><meta><profile value="https://fhir.kbv.de/StructureDefinition/KBV_PR_ERP_Medication_PZN|1.0.2"/></meta><extension url="https://fhir.kbv.de/StructureDefinition/KBV_EX_ERP_Medication_Category"><valueCoding><system value="https://fhir.kbv.de/CodeSystem/KBV_CS_ERP_Medication_Category"/><code value="00"/></valueCoding></extension><extension url="https://fhir.kbv.de/StructureDefinition/KBV_EX_ERP_Medication_Vaccine"><valueBoolean value="false"/></extension><extension url="http://fhir.de/StructureDefinition/normgroesse"><valueCode value="NB"/></extension><code><coding><system value="http://fhir.de/CodeSystem/ifa/pzn"/><code value="12345678"/></coding><text value="Schmerzmittel"/></code><form><coding><system value="https://fhir.kbv.de/CodeSystem/KBV_CS_SFHIR_KBV_DARREICHUNGSFORM"/><code value="TAB"/></coding></form><amount><numerator><value value="1"/><unit value="Stk"/></numerator><denominator><value value="1"/></denominator></amount></Medication></resource></entry><entry><fullUrl value="https://pvs.gematik.de/fhir/Patient/2e7af512-c956-4268-90f0-baa1660cabd5"/><resource><Patient xmlns="http://hl7.org/fhir"><id value="2e7af512-c956-4268-90f0-baa1660cabd5"/><meta><profile value="https://fhir.kbv.de/StructureDefinition/KBV_PR_FOR_Patient|1.0.3"/></meta><identifier><type><coding><system value="http://fhir.de/CodeSystem/identifier-type-de-basis"/><code value="GKV"/></coding></type><system value="http://fhir.de/NamingSystem/gkv/kvid-10"/><value value="X110498565"/></identifier><name><use value="official"/><family value="Hüllmann"/><given value="Sina"/></name><birthDate value="1982-09-12"/><address><type value="both"/><line value="Am Schokker 06"><extension url="http://hl7.org/fhir/StructureDefinition/iso21090-ADXP-houseNumber"><valueString value="06"/></extension><extension url="http://hl7.org/fhir/StructureDefinition/iso21090-ADXP-streetName"><valueString value="Am Schokker"/></extension></line><city value="Gauderberg"/><postalCode value="34136"/><country value="D"/></address></Patient></resource></entry><entry><fullUrl value="https://pvs.gematik.de/fhir/Organization/13f7f75d-21ca-4d22-8d30-488c9ec60ac9"/><resource><Organization xmlns="http://hl7.org/fhir"><id value="13f7f75d-21ca-4d22-8d30-488c9ec60ac9"/><meta><profile value="https://fhir.kbv.de/StructureDefinition/KBV_PR_FOR_Organization|1.0.3"/></meta><identifier><type><coding><system value="http://terminology.hl7.org/CodeSystem/v2-0203"/><code value="BSNR"/></coding></type><system value="https://fhir.kbv.de/NamingSystem/KBV_NS_Base_BSNR"/><value value="731101147"/></identifier><name value="Arztpraxis Schraßer"/><telecom><system value="phone"/><value value="+49-6192-63619075"/></telecom><telecom><system value="email"/><value value="freya.seeger@tang.name"/></telecom><address><type value="both"/><line value="Friedlieb-Ferdinand-Runge-Str. 13b"><extension url="http://hl7.org/fhir/StructureDefinition/iso21090-ADXP-houseNumber"><valueString value="13b"/></extension><extension url="http://hl7.org/fhir/StructureDefinition/iso21090-ADXP-streetName"><valueString value="Friedlieb-Ferdinand-Runge-Str."/></extension></line><city value="Thiekefeld"/><postalCode value="99189"/><country value="D"/></address></Organization></resource></entry><entry><fullUrl value="https://pvs.gematik.de/fhir/Coverage/80488903-c088-4a0d-85d9-f64e0de72e85"/><resource><Coverage xmlns="http://hl7.org/fhir"><id value="80488903-c088-4a0d-85d9-f64e0de72e85"/><meta><profile value="https://fhir.kbv.de/StructureDefinition/KBV_PR_FOR_Coverage|1.0.3"/></meta><extension url="http://fhir.de/StructureDefinition/gkv/besondere-personengruppe"><valueCoding><system value="https://fhir.kbv.de/CodeSystem/KBV_CS_SFHIR_KBV_PERSONENGRUPPE"/><code value="00"/></valueCoding></extension><extension url="http://fhir.de/StructureDefinition/gkv/dmp-kennzeichen"><valueCoding><system value="https://fhir.kbv.de/CodeSystem/KBV_CS_SFHIR_KBV_DMP"/><code value="00"/></valueCoding></extension><extension url="http://fhir.de/StructureDefinition/gkv/wop"><valueCoding><system value="https://fhir.kbv.de/CodeSystem/KBV_CS_SFHIR_ITA_WOP"/><code value="88"/></valueCoding></extension><extension url="http://fhir.de/StructureDefinition/gkv/versichertenart"><valueCoding><system value="https://fhir.kbv.de/CodeSystem/KBV_CS_SFHIR_KBV_VERSICHERTENSTATUS"/><code value="1"/></valueCoding></extension><status value="active"/><type><coding><system value="http://fhir.de/CodeSystem/versicherungsart-de-basis"/><code value="GKV"/></coding></type><beneficiary><reference value="Patient/b2bf7bbe-8844-46a0-b636-f6039ecdc62e"/></beneficiary><payor><identifier><system value="http://fhir.de/NamingSystem/arge-ik/iknr"/><value value="319324767"/></identifier><display value="Künstler-Krankenkasse Sachsen"/></payor></Coverage></resource></entry><entry><fullUrl value="https://pvs.gematik.de/fhir/Practitioner/ccc4fdd9-db1d-4573-bcc2-de7091ce9a97"/><resource><Practitioner xmlns="http://hl7.org/fhir"><id value="ccc4fdd9-db1d-4573-bcc2-de7091ce9a97"/><meta><profile value="https://fhir.kbv.de/StructureDefinition/KBV_PR_FOR_Practitioner|1.0.3"/></meta><identifier><type><coding><system value="http://terminology.hl7.org/CodeSystem/v2-0203"/><code value="LANR"/></coding></type><system value="https://fhir.kbv.de/NamingSystem/KBV_NS_Base_ANR"/><value value="753249019"/></identifier><name><use value="official"/><family value="Schraßer"/><given value="Dr."/><prefix value="Dr."><extension url="http://hl7.org/fhir/StructureDefinition/iso21090-EN-qualifier"><valueCode value="AC"/></extension></prefix></name><qualification><code><coding><system value="https://fhir.kbv.de/CodeSystem/KBV_CS_FOR_Qualification_Type"/><code value="00"/></coding></code></qualification><qualification><code><text value="Super-Facharzt für alles Mögliche"/></code></qualification></Practitioner></resource></entry></Bundle>