<Bundle xmlns="http://hl7.org/fhir">
	<id value="f4f1ab22-6858-4322-83e6-0c66d15fd76e" />
	<meta>
		<profile value="https://fhir.kbv.de/StructureDefinition/KBV_PR_ERP_Bundle|1.1.0" />
	</meta>
	<identifier>
		<system value="https://gematik.de/fhir/erp/NamingSystem/GEM_ERP_NS_PrescriptionId" />
		<value value="160.000.239.761.377.26" />
	</identifier>
	<type value="document" />
	<timestamp value="2025-03-28T09:03:49.310+01:00" />
	<entry>
		<fullUrl value="https://pvs.gematik.de/fhir/Composition/2f153b0c-1b89-49a9-ae55-902857cae3da" />
		<resource>
			<Composition xmlns="http://hl7.org/fhir">
				<id value="2f153b0c-1b89-49a9-ae55-902857cae3da" />
				<meta>
					<profile value="https://fhir.kbv.de/StructureDefinition/KBV_PR_ERP_Composition|1.1.0" />
				</meta>
				<extension url="https://fhir.kbv.de/StructureDefinition/KBV_EX_FOR_Legal_basis">
					<valueCoding>
						<system value="https://fhir.kbv.de/CodeSystem/KBV_CS_SFHIR_KBV_STATUSKENNZEICHEN" />
						<code value="00" />
					</valueCoding>
				</extension>
				<status value="final" />
				<type>
					<coding>
						<system value="https://fhir.kbv.de/CodeSystem/KBV_CS_SFHIR_KBV_FORMULAR_ART" />
						<code value="e16A" />
					</coding>
				</type>
				<subject>
					<reference value="Patient/f1c554f4-d306-4946-aa80-780cace7a721" />
				</subject>
				<date value="2025-03-28T09:03:49+01:00" />
				<author>
					<type value="Device" />
					<identifier>
						<system value="https://fhir.kbv.de/NamingSystem/KBV_NS_FOR_Pruefnummer" />
						<value value="GEMATIK/410/2109/36/123" />
					</identifier>
				</author>
				<author>
					<reference value="Practitioner/a3d9bd7b-ba81-4d23-b30f-7e6525b675af" />
					<type value="Practitioner" />
				</author>
				<title value="elektronische Arzneimittelverordnung" />
				<custodian>
					<reference value="Organization/34555697-132e-49e5-9a7c-3640ca76ae55" />
				</custodian>
				<section>
					<code>
						<coding>
							<system value="https://fhir.kbv.de/CodeSystem/KBV_CS_ERP_Section_Type" />
							<code value="Coverage" />
						</coding>
					</code>
					<entry>
						<reference value="Coverage/0f7fbb44-6b67-4c2a-98d0-fdc474ea38a0" />
					</entry>
				</section>
				<section>
					<code>
						<coding>
							<system value="https://fhir.kbv.de/CodeSystem/KBV_CS_ERP_Section_Type" />
							<code value="Prescription" />
						</coding>
					</code>
					<entry>
						<reference value="MedicationRequest/def4aed0-fedd-4b7a-8a5d-d8f7e96d2455" />
					</entry>
				</section>
			</Composition>
		</resource>
	</entry>
	<entry>
		<fullUrl value="https://pvs.gematik.de/fhir/Coverage/0f7fbb44-6b67-4c2a-98d0-fdc474ea38a0" />
		<resource>
			<Coverage xmlns="http://hl7.org/fhir">
				<id value="0f7fbb44-6b67-4c2a-98d0-fdc474ea38a0" />
				<meta>
					<profile value="https://fhir.kbv.de/StructureDefinition/KBV_PR_FOR_Coverage|1.1.0" />
				</meta>
				<extension url="http://fhir.de/StructureDefinition/gkv/besondere-personengruppe">
					<valueCoding>
						<system value="https://fhir.kbv.de/CodeSystem/KBV_CS_SFHIR_KBV_PERSONENGRUPPE" />
						<code value="00" />
					</valueCoding>
				</extension>
				<extension url="http://fhir.de/StructureDefinition/gkv/dmp-kennzeichen">
					<valueCoding>
						<system value="https://fhir.kbv.de/CodeSystem/KBV_CS_SFHIR_KBV_DMP" />
						<code value="00" />
					</valueCoding>
				</extension>
				<extension url="http://fhir.de/StructureDefinition/gkv/wop">
					<valueCoding>
						<system value="https://fhir.kbv.de/CodeSystem/KBV_CS_SFHIR_ITA_WOP" />
						<code value="46" />
					</valueCoding>
				</extension>
				<extension url="http://fhir.de/StructureDefinition/gkv/versichertenart">
					<valueCoding>
						<system value="https://fhir.kbv.de/CodeSystem/KBV_CS_SFHIR_KBV_VERSICHERTENSTATUS" />
						<code value="1" />
					</valueCoding>
				</extension>
				<status value="active" />
				<type>
					<coding>
						<system value="http://fhir.de/CodeSystem/versicherungsart-de-basis" />
						<code value="GKV" />
					</coding>
				</type>
				<beneficiary>
					<reference value="Patient/d07e6600-4938-43d5-a253-85b35b0ce636" />
				</beneficiary>
				<payor>
					<identifier>
						<system value="http://fhir.de/sid/arge-ik/iknr" />
						<value value="109034270" />
					</identifier>
					<display value="BMW BKK" />
				</payor>
			</Coverage>
		</resource>
	</entry>
	<entry>
		<fullUrl value="https://pvs.gematik.de/fhir/Patient/f1c554f4-d306-4946-aa80-780cace7a721" />
		<resource>
			<Patient xmlns="http://hl7.org/fhir">
				<id value="f1c554f4-d306-4946-aa80-780cace7a721" />
				<meta>
					<profile value="https://fhir.kbv.de/StructureDefinition/KBV_PR_FOR_Patient|1.1.0" />
				</meta>
				<identifier>
					<type>
						<coding>
							<system value="http://fhir.de/CodeSystem/identifier-type-de-basis" />
							<code value="GKV" />
						</coding>
					</type>
					<system value="http://fhir.de/sid/gkv/kvid-10" />
					<value value="X110614233" />
				</identifier>
				<name>
					<use value="official" />
					<family value="Hüllmann">
						<extension url="http://hl7.org/fhir/StructureDefinition/humanname-own-name">
							<valueString value="Hüllmann" />
						</extension>
					</family>
					<given value="Sina" />
				</name>
				<birthDate value="1982-01-19" />
				<address>
					<type value="both" />
					<line value="Henry-T.-v.-Böttinger-Str. 42c">
						<extension url="http://hl7.org/fhir/StructureDefinition/iso21090-ADXP-houseNumber">
							<valueString value="42c" />
						</extension>
						<extension url="http://hl7.org/fhir/StructureDefinition/iso21090-ADXP-streetName">
							<valueString value="Henry-T.-v.-Böttinger-Str." />
						</extension>
					</line>
					<city value="Ost Jontedorf" />
					<postalCode value="66643" />
					<country value="D" />
				</address>
			</Patient>
		</resource>
	</entry>
	<entry>
		<fullUrl value="https://pvs.gematik.de/fhir/Practitioner/a3d9bd7b-ba81-4d23-b30f-7e6525b675af" />
		<resource>
			<Practitioner xmlns="http://hl7.org/fhir">
				<id value="a3d9bd7b-ba81-4d23-b30f-7e6525b675af" />
				<meta>
					<profile value="https://fhir.kbv.de/StructureDefinition/KBV_PR_FOR_Practitioner|1.1.0" />
				</meta>
				<identifier>
					<type>
						<coding>
							<system value="http://terminology.hl7.org/CodeSystem/v2-0203" />
							<code value="LANR" />
						</coding>
					</type>
					<system value="https://fhir.kbv.de/NamingSystem/KBV_NS_Base_ANR" />
					<value value="805566575" />
				</identifier>
				<name>
					<use value="official" />
					<family value="Schraßer">
						<extension url="http://hl7.org/fhir/StructureDefinition/humanname-own-name">
							<valueString value="Schraßer" />
						</extension>
					</family>
					<given value="Dr." />
					<prefix value="Dr.">
						<extension url="http://hl7.org/fhir/StructureDefinition/iso21090-EN-qualifier">
							<valueCode value="AC" />
						</extension>
					</prefix>
				</name>
				<qualification>
					<code>
						<coding>
							<system value="https://fhir.kbv.de/CodeSystem/KBV_CS_FOR_Qualification_Type" />
							<code value="00" />
						</coding>
					</code>
				</qualification>
				<qualification>
					<code>
						<coding>
							<system value="https://fhir.kbv.de/CodeSystem/KBV_CS_FOR_Berufsbezeichnung" />
							<code value="Berufsbezeichnung" />
						</coding>
						<text value="Super-Facharzt für alles Mögliche" />
					</code>
				</qualification>
			</Practitioner>
		</resource>
	</entry>
	<entry>
		<fullUrl value="https://pvs.gematik.de/fhir/Organization/34555697-132e-49e5-9a7c-3640ca76ae55" />
		<resource>
			<Organization xmlns="http://hl7.org/fhir">
				<id value="34555697-132e-49e5-9a7c-3640ca76ae55" />
				<meta>
					<profile value="https://fhir.kbv.de/StructureDefinition/KBV_PR_FOR_Organization|1.1.0" />
				</meta>
				<identifier>
					<type>
						<coding>
							<system value="http://terminology.hl7.org/CodeSystem/v2-0203" />
							<code value="BSNR" />
						</coding>
					</type>
					<system value="https://fhir.kbv.de/NamingSystem/KBV_NS_Base_BSNR" />
					<value value="202852040" />
				</identifier>
				<name value="Arztpraxis Schraßer" />
				<telecom>
					<system value="phone" />
					<value value="(0078) 471127109" />
				</telecom>
				<telecom>
					<system value="email" />
					<value value="luana.niklaus@bichler.net" />
				</telecom>
				<address>
					<type value="both" />
					<line value="Morsbroicher Str. 01">
						<extension url="http://hl7.org/fhir/StructureDefinition/iso21090-ADXP-houseNumber">
							<valueString value="01" />
						</extension>
						<extension url="http://hl7.org/fhir/StructureDefinition/iso21090-ADXP-streetName">
							<valueString value="Morsbroicher Str." />
						</extension>
					</line>
					<city value="Liahbrunn" />
					<postalCode value="91924" />
					<country value="D" />
				</address>
			</Organization>
		</resource>
	</entry>
	<entry>
		<fullUrl value="https://pvs.gematik.de/fhir/Medication/2f218073-10b7-44e1-96c0-003d656c8a8d" />
		<resource>
			<Medication xmlns="http://hl7.org/fhir">
				<id value="2f218073-10b7-44e1-96c0-003d656c8a8d" />
				<meta>
					<profile value="https://fhir.kbv.de/StructureDefinition/KBV_PR_ERP_Medication_PZN|1.1.0" />
				</meta>
				<extension url="https://fhir.kbv.de/StructureDefinition/KBV_EX_Base_Medication_Type">
					<valueCodeableConcept>
						<coding>
							<system value="http://snomed.info/sct" />
							<version value="http://snomed.info/sct/900000000000207008/version/20220331" />
							<code value="763158003" />
							<display value="Medicinal product (product)" />
						</coding>
					</valueCodeableConcept>
				</extension>
				<extension url="https://fhir.kbv.de/StructureDefinition/KBV_EX_ERP_Medication_Category">
					<valueCoding>
						<system value="https://fhir.kbv.de/CodeSystem/KBV_CS_ERP_Medication_Category" />
						<code value="00" />
					</valueCoding>
				</extension>
				<extension url="https://fhir.kbv.de/StructureDefinition/KBV_EX_ERP_Medication_Vaccine">
					<valueBoolean value="false" />
				</extension>
				<extension url="http://fhir.de/StructureDefinition/normgroesse">
					<valueCode value="NB" />
				</extension>
				<code>
					<coding>
						<system value="http://fhir.de/CodeSystem/ifa/pzn" />
						<code value="12345678" />
					</coding>
					<text value="Schmerzmittel" />
				</code>
				<form>
					<coding>
						<system value="https://fhir.kbv.de/CodeSystem/KBV_CS_SFHIR_KBV_DARREICHUNGSFORM" />
						<code value="TAB" />
					</coding>
				</form>
				<amount>
					<numerator>
						<extension url="https://fhir.kbv.de/StructureDefinition/KBV_EX_ERP_Medication_PackagingSize">
							<valueString value="1" />
						</extension>
						<unit value="Stk" />
					</numerator>
					<denominator>
						<value value="1" />
					</denominator>
				</amount>
			</Medication>
		</resource>
	</entry>
	<entry>
		<fullUrl value="https://pvs.gematik.de/fhir/MedicationRequest/def4aed0-fedd-4b7a-8a5d-d8f7e96d2455" />
		<resource>
			<MedicationRequest xmlns="http://hl7.org/fhir">
				<id value="def4aed0-fedd-4b7a-8a5d-d8f7e96d2455" />
				<meta>
					<profile value="https://fhir.kbv.de/StructureDefinition/KBV_PR_ERP_Prescription|1.1.0" />
				</meta>
				<extension url="https://fhir.kbv.de/StructureDefinition/KBV_EX_ERP_BVG">
					<valueBoolean value="false" />
				</extension>
				<extension url="https://fhir.kbv.de/StructureDefinition/KBV_EX_ERP_EmergencyServicesFee">
					<valueBoolean value="false" />
				</extension>
				<extension url="https://fhir.kbv.de/StructureDefinition/KBV_EX_ERP_Multiple_Prescription">
					<extension url="Kennzeichen">
						<valueBoolean value="false" />
					</extension>
				</extension>
				<extension url="https://fhir.kbv.de/StructureDefinition/KBV_EX_FOR_StatusCoPayment">
					<valueCoding>
						<system value="https://fhir.kbv.de/CodeSystem/KBV_CS_FOR_StatusCoPayment" />
						<code value="0" />
					</valueCoding>
				</extension>
				<status value="active" />
				<intent value="order" />
				<medicationReference>
					<reference value="Medication/2f218073-10b7-44e1-96c0-003d656c8a8d" />
				</medicationReference>
				<subject>
					<reference value="Patient/f1c554f4-d306-4946-aa80-780cace7a721" />
				</subject>
				<authoredOn value="2025-03-28" />
				<requester>
					<reference value="Practitioner/a3d9bd7b-ba81-4d23-b30f-7e6525b675af" />
				</requester>
				<insurance>
					<reference value="Coverage/0f7fbb44-6b67-4c2a-98d0-fdc474ea38a0" />
				</insurance>
				<dosageInstruction>
					<extension url="https://fhir.kbv.de/StructureDefinition/KBV_EX_ERP_DosageFlag">
						<valueBoolean value="true" />
					</extension>
					<text value="1-1-0-0-3" />
				</dosageInstruction>
				<dispenseRequest>
					<quantity>
						<value value="1" />
						<system value="http://unitsofmeasure.org" />
						<code value="{Package}" />
					</quantity>
				</dispenseRequest>
				<substitution>
					<allowedBoolean value="false" />
				</substitution>
			</MedicationRequest>
		</resource>
	</entry>
</Bundle>
