{
  "resourceType": "Bundle",
  "id": "ba08bfce-64be-4575-9c4f-ca6708cd2db5",
  "meta": {
    "profile": [
      "http://fhir.abda.de/eRezeptAbgabedaten/StructureDefinition/DAV-PKV-PR-ERP-AbgabedatenBundle|1.2"
    ],
    "tag": [
      {
        "display": "Beispiel RezeptAbgabedatenPKV Bundle (REZ-12)"
      },
      {
        "display": "ACHTUNG! Der fachlich korrekte Inhalt der Beispielinstanz kann nicht gewährleistet werden. Wir sind jederzeit dankbar für Hinweise auf Fehler oder für Verbesserungsvorschläge."
      }
    ]
  },
  "identifier": {
    "system": "https://gematik.de/fhir/erp/NamingSystem/GEM_ERP_NS_PrescriptionId",
    "value": "209.100.612.180.208.16"
  },
  "type": "document",
  "timestamp": "2023-07-06T11:30:00+00:00",
  "entry": [
    {
      "fullUrl": "urn:uuid:9b69da59-b65f-4764-b5dd-bcd5714425d5",
      "resource": {
        "resourceType": "Composition",
        "id": "9b69da59-b65f-4764-b5dd-bcd5714425d5",
        "meta": {
          "profile": [
            "http://fhir.abda.de/eRezeptAbgabedaten/StructureDefinition/DAV-PKV-PR-ERP-AbgabedatenComposition|1.2"
          ]
        },
        "status": "final",
        "type": {
          "coding": [
            {
              "system": "http://fhir.abda.de/eRezeptAbgabedaten/CodeSystem/DAV-CS-ERP-CompositionTypes",
              "code": "ERezeptAbgabedaten"
            }
          ]
        },
        "date": "2023-07-06T11:30:00Z",
        "author": [
          {
            "reference": "urn:uuid:46bfb5c0-36de-49ae-a99e-9a73d2c1ac95"
          }
        ],
        "title": "ERezeptAbgabedaten",
        "section": [
          {
            "title": "Abgabeinformationen",
            "entry": [
              {
                "reference": "urn:uuid:4ea32dd1-7372-4e51-8902-d7ac980d5d42"
              }
            ]
          },
          {
            "title": "Apotheke",
            "entry": [
              {
                "reference": "urn:uuid:46bfb5c0-36de-49ae-a99e-9a73d2c1ac95"
              }
            ]
          }
        ]
      }
    },
    {
      "fullUrl": "urn:uuid:46bfb5c0-36de-49ae-a99e-9a73d2c1ac95",
      "resource": {
        "resourceType": "Organization",
        "id": "46bfb5c0-36de-49ae-a99e-9a73d2c1ac95",
        "meta": {
          "profile": [
            "http://fhir.abda.de/eRezeptAbgabedaten/StructureDefinition/DAV-PKV-PR-ERP-Apotheke|1.2"
          ]
        },
        "identifier": [
          {
            "system": "http://fhir.de/sid/arge-ik/iknr",
            "value": "308412345"
          }
        ],
        "name": "Adler-Apotheke",
        "address": [
          {
            "type": "physical",
            "line": [
              "Taunusstraße 89"
            ],
            "_line": [
              {
                "extension": [
                  {
                    "url": "http://hl7.org/fhir/StructureDefinition/iso21090-ADXP-streetName",
                    "valueString": "Taunusstraße"
                  },
                  {
                    "url": "http://hl7.org/fhir/StructureDefinition/iso21090-ADXP-houseNumber",
                    "valueString": "89"
                  }
                ]
              }
            ],
            "city": "Langen",
            "postalCode": "63225",
            "country": "D"
          }
        ]
      }
    },
    {
      "fullUrl": "urn:uuid:4ea32dd1-7372-4e51-8902-d7ac980d5d42",
      "resource": {
        "resourceType": "MedicationDispense",
        "id": "4ea32dd1-7372-4e51-8902-d7ac980d5d42",
        "meta": {
          "profile": [
            "http://fhir.abda.de/eRezeptAbgabedaten/StructureDefinition/DAV-PKV-PR-ERP-Abgabeinformationen|1.2"
          ]
        },
        "extension": [
          {
            "url": "http://fhir.abda.de/eRezeptAbgabedaten/StructureDefinition/DAV-EX-ERP-Abrechnungszeilen",
            "valueReference": {
              "reference": "urn:uuid:e7589618-0309-4a85-98dc-ee05d69fe940"
            }
          },
          {
            "url": "http://fhir.abda.de/eRezeptAbgabedaten/StructureDefinition/DAV-PKV-EX-ERP-AbrechnungsTyp",
            "valueCodeableConcept": {
              "coding": [
                {
                  "system": "http://fhir.abda.de/eRezeptAbgabedaten/CodeSystem/DAV-PKV-CS-ERP-AbrechnungsTyp",
                  "code": "1"
                }
              ]
            }
          },
          {
            "url": "http://fhir.abda.de/eRezeptAbgabedaten/StructureDefinition/DAV-EX-ERP-ZusatzdatenHerstellung",
            "valueReference": {
              "reference": "urn:uuid:9a0d92a0-1492-42f4-82e7-426cd596ef7e"
            }
          },
          {
            "url": "http://fhir.abda.de/eRezeptAbgabedaten/StructureDefinition/DAV-EX-ERP-ZusatzdatenHerstellung",
            "valueReference": {
              "reference": "urn:uuid:97765ff2-b5cb-4c72-8768-27a610d3d189"
            }
          },
          {
            "url": "http://fhir.abda.de/eRezeptAbgabedaten/StructureDefinition/DAV-EX-ERP-ZusatzdatenHerstellung",
            "valueReference": {
              "reference": "urn:uuid:85f5e706-b363-4cb5-9de7-a37d074b5757"
            }
          }
        ],
        "status": "completed",
        "medicationCodeableConcept": {
          "coding": [
            {
              "system": "http://terminology.hl7.org/CodeSystem/data-absent-reason",
              "code": "not-applicable"
            }
          ]
        },
        "performer": [
          {
            "actor": {
              "reference": "urn:uuid:46bfb5c0-36de-49ae-a99e-9a73d2c1ac95"
            }
          }
        ],
        "authorizingPrescription": [
          {
            "identifier": {
              "system": "https://gematik.de/fhir/erp/NamingSystem/GEM_ERP_NS_PrescriptionId",
              "value": "209.100.612.180.208.16"
            }
          }
        ],
        "type": {
          "coding": [
            {
              "system": "http://fhir.abda.de/eRezeptAbgabedaten/CodeSystem/DAV-CS-ERP-MedicationDispenseTyp",
              "code": "Abgabeinformationen"
            }
          ]
        },
        "whenHandedOver": "2023-07-06"
      }
    },
    {
      "fullUrl": "urn:uuid:e7589618-0309-4a85-98dc-ee05d69fe940",
      "resource": {
        "resourceType": "Invoice",
        "id": "e7589618-0309-4a85-98dc-ee05d69fe940",
        "meta": {
          "profile": [
            "http://fhir.abda.de/eRezeptAbgabedaten/StructureDefinition/DAV-PKV-PR-ERP-Abrechnungszeilen|1.2"
          ]
        },
        "status": "issued",
        "type": {
          "coding": [
            {
              "system": "http://fhir.abda.de/eRezeptAbgabedaten/CodeSystem/DAV-CS-ERP-InvoiceTyp",
              "code": "Abrechnungszeilen"
            }
          ]
        },
        "lineItem": [
          {
            "sequence": 1,
            "chargeItemCodeableConcept": {
              "coding": [
                {
                  "system": "http://TA1.abda.de",
                  "code": "09999092"
                }
              ],
              "text": "Parenterale Zubereitung"
            },
            "priceComponent": [
              {
                "extension": [
                  {
                    "url": "http://fhir.abda.de/eRezeptAbgabedaten/StructureDefinition/DAV-EX-ERP-MwStSatz",
                    "valueDecimal": 19.00
                  },
                  {
                    "extension": [
                      {
                        "url": "Kategorie",
                        "valueCodeableConcept": {
                          "coding": [
                            {
                              "system": "http://fhir.abda.de/eRezeptAbgabedaten/CodeSystem/DAV-PKV-CS-ERP-KostenVersicherterKategorie",
                              "code": "0"
                            }
                          ]
                        }
                      },
                      {
                        "url": "Kostenbetrag",
                        "valueMoney": {
                          "value": 0.00,
                          "currency": "EUR"
                        }
                      }
                    ],
                    "url": "http://fhir.abda.de/eRezeptAbgabedaten/StructureDefinition/DAV-EX-ERP-KostenVersicherter"
                  }
                ],
                "type": "informational",
                "factor": 1,
                "amount": {
                  "value": 389.17,
                  "currency": "EUR"
                }
              }
            ]
          }
        ],
        "totalGross": {
          "extension": [
            {
              "url": "http://fhir.abda.de/eRezeptAbgabedaten/StructureDefinition/DAV-EX-ERP-Gesamtzuzahlung",
              "valueMoney": {
                "value": 0.00,
                "currency": "EUR"
              }
            }
          ],
          "value": 389.17,
          "currency": "EUR"
        }
      }
    },
    {
      "fullUrl": "urn:uuid:9a0d92a0-1492-42f4-82e7-426cd596ef7e",
      "resource": {
        "resourceType": "MedicationDispense",
        "id": "9a0d92a0-1492-42f4-82e7-426cd596ef7e",
        "meta": {
          "profile": [
            "http://fhir.abda.de/eRezeptAbgabedaten/StructureDefinition/DAV-PKV-PR-ERP-ZusatzdatenHerstellung|1.2"
          ]
        },
        "extension": [
          {
            "url": "http://fhir.abda.de/eRezeptAbgabedaten/StructureDefinition/DAV-EX-ERP-Zaehler",
            "valuePositiveInt": 1
          },
          {
            "url": "http://fhir.abda.de/eRezeptAbgabedaten/StructureDefinition/DAV-EX-ERP-ZusatzdatenEinheit",
            "valueReference": {
              "reference": "urn:uuid:658aefef-ed6d-444c-8817-1684866cffc6"
            }
          }
        ],
        "status": "completed",
        "medicationCodeableConcept": {
          "coding": [
            {
              "system": "http://terminology.hl7.org/CodeSystem/data-absent-reason",
              "code": "not-applicable"
            }
          ]
        },
        "type": {
          "coding": [
            {
              "system": "http://fhir.abda.de/eRezeptAbgabedaten/CodeSystem/DAV-CS-ERP-MedicationDispenseTyp",
              "code": "ZusatzdatenHerstellung"
            }
          ]
        },
        "whenPrepared": "2023-07-04T12:00:00Z"
      }
    },
    {
      "fullUrl": "urn:uuid:97765ff2-b5cb-4c72-8768-27a610d3d189",
      "resource": {
        "resourceType": "MedicationDispense",
        "id": "97765ff2-b5cb-4c72-8768-27a610d3d189",
        "meta": {
          "profile": [
            "http://fhir.abda.de/eRezeptAbgabedaten/StructureDefinition/DAV-PKV-PR-ERP-ZusatzdatenHerstellung|1.2"
          ]
        },
        "extension": [
          {
            "url": "http://fhir.abda.de/eRezeptAbgabedaten/StructureDefinition/DAV-EX-ERP-Zaehler",
            "valuePositiveInt": 2
          },
          {
            "url": "http://fhir.abda.de/eRezeptAbgabedaten/StructureDefinition/DAV-EX-ERP-ZusatzdatenEinheit",
            "valueReference": {
              "reference": "urn:uuid:6c6bd9ae-d35d-449f-b822-788b28ed88c8"
            }
          }
        ],
        "status": "completed",
        "medicationCodeableConcept": {
          "coding": [
            {
              "system": "http://terminology.hl7.org/CodeSystem/data-absent-reason",
              "code": "not-applicable"
            }
          ]
        },
        "type": {
          "coding": [
            {
              "system": "http://fhir.abda.de/eRezeptAbgabedaten/CodeSystem/DAV-CS-ERP-MedicationDispenseTyp",
              "code": "ZusatzdatenHerstellung"
            }
          ]
        },
        "whenPrepared": "2023-07-05T09:00:00Z"
      }
    },
    {
      "fullUrl": "urn:uuid:85f5e706-b363-4cb5-9de7-a37d074b5757",
      "resource": {
        "resourceType": "MedicationDispense",
        "id": "85f5e706-b363-4cb5-9de7-a37d074b5757",
        "meta": {
          "profile": [
            "http://fhir.abda.de/eRezeptAbgabedaten/StructureDefinition/DAV-PKV-PR-ERP-ZusatzdatenHerstellung|1.2"
          ]
        },
        "extension": [
          {
            "url": "http://fhir.abda.de/eRezeptAbgabedaten/StructureDefinition/DAV-EX-ERP-Zaehler",
            "valuePositiveInt": 3
          },
          {
            "url": "http://fhir.abda.de/eRezeptAbgabedaten/StructureDefinition/DAV-EX-ERP-ZusatzdatenEinheit",
            "valueReference": {
              "reference": "urn:uuid:7d62c70e-c963-4c4d-a420-7df13781c9ad"
            }
          }
        ],
        "status": "completed",
        "medicationCodeableConcept": {
          "coding": [
            {
              "system": "http://terminology.hl7.org/CodeSystem/data-absent-reason",
              "code": "not-applicable"
            }
          ]
        },
        "type": {
          "coding": [
            {
              "system": "http://fhir.abda.de/eRezeptAbgabedaten/CodeSystem/DAV-CS-ERP-MedicationDispenseTyp",
              "code": "ZusatzdatenHerstellung"
            }
          ]
        },
        "whenPrepared": "2023-07-06T10:00:00Z"
      }
    },
    {
      "fullUrl": "urn:uuid:658aefef-ed6d-444c-8817-1684866cffc6",
      "resource": {
        "resourceType": "Invoice",
        "id": "658aefef-ed6d-444c-8817-1684866cffc6",
        "meta": {
          "profile": [
            "http://fhir.abda.de/eRezeptAbgabedaten/StructureDefinition/DAV-PKV-PR-ERP-ZusatzdatenEinheit|1.2"
          ]
        },
        "extension": [
          {
            "url": "http://fhir.abda.de/eRezeptAbgabedaten/StructureDefinition/DAV-EX-ERP-Zaehler",
            "valuePositiveInt": 1
          }
        ],
        "status": "issued",
        "type": {
          "coding": [
            {
              "system": "http://fhir.abda.de/eRezeptAbgabedaten/CodeSystem/DAV-CS-ERP-InvoiceTyp",
              "code": "ZusatzdatenEinheit"
            }
          ]
        },
        "lineItem": [
          {
            "sequence": 1,
            "chargeItemCodeableConcept": {
              "coding": [
                {
                  "system": "http://fhir.de/CodeSystem/ifa/pzn",
                  "code": "01131365"
                }
              ]
            },
            "priceComponent": [
              {
                "extension": [
                  {
                    "url": "http://fhir.abda.de/eRezeptAbgabedaten/StructureDefinition/DAV-EX-ERP-ZusatzdatenFaktorkennzeichen",
                    "valueCodeableConcept": {
                      "coding": [
                        {
                          "system": "http://fhir.abda.de/eRezeptAbgabedaten/CodeSystem/DAV-PKV-CS-ERP-ZusatzdatenEinheitFaktorkennzeichen",
                          "code": "11"
                        }
                      ]
                    }
                  }
                ],
                "type": "informational",
                "factor": 360,
                "amount": {
                  "value": 17.33,
                  "currency": "EUR"
                }
              }
            ]
          },
          {
            "sequence": 2,
            "chargeItemCodeableConcept": {
              "coding": [
                {
                  "system": "http://fhir.de/CodeSystem/ifa/pzn",
                  "code": "09477471"
                }
              ]
            },
            "priceComponent": [
              {
                "extension": [
                  {
                    "url": "http://fhir.abda.de/eRezeptAbgabedaten/StructureDefinition/DAV-EX-ERP-ZusatzdatenFaktorkennzeichen",
                    "valueCodeableConcept": {
                      "coding": [
                        {
                          "system": "http://fhir.abda.de/eRezeptAbgabedaten/CodeSystem/DAV-PKV-CS-ERP-ZusatzdatenEinheitFaktorkennzeichen",
                          "code": "11"
                        }
                      ]
                    }
                  }
                ],
                "type": "informational",
                "factor": 50,
                "amount": {
                  "value": 1.36,
                  "currency": "EUR"
                }
              }
            ]
          },
          {
            "sequence": 3,
            "chargeItemCodeableConcept": {
              "coding": [
                {
                  "system": "http://TA1.abda.de",
                  "code": "06460518"
                }
              ]
            },
            "priceComponent": [
              {
                "extension": [
                  {
                    "url": "http://fhir.abda.de/eRezeptAbgabedaten/StructureDefinition/DAV-EX-ERP-ZusatzdatenFaktorkennzeichen",
                    "valueCodeableConcept": {
                      "coding": [
                        {
                          "system": "http://fhir.abda.de/eRezeptAbgabedaten/CodeSystem/DAV-PKV-CS-ERP-ZusatzdatenEinheitFaktorkennzeichen",
                          "code": "11"
                        }
                      ]
                    }
                  }
                ],
                "type": "informational",
                "factor": 1000,
                "amount": {
                  "value": 90.00,
                  "currency": "EUR"
                }
              }
            ]
          }
        ]
      }
    },
    {
      "fullUrl": "urn:uuid:6c6bd9ae-d35d-449f-b822-788b28ed88c8",
      "resource": {
        "resourceType": "Invoice",
        "id": "6c6bd9ae-d35d-449f-b822-788b28ed88c8",
        "meta": {
          "profile": [
            "http://fhir.abda.de/eRezeptAbgabedaten/StructureDefinition/DAV-PKV-PR-ERP-ZusatzdatenEinheit|1.2"
          ]
        },
        "extension": [
          {
            "url": "http://fhir.abda.de/eRezeptAbgabedaten/StructureDefinition/DAV-EX-ERP-Zaehler",
            "valuePositiveInt": 1
          }
        ],
        "status": "issued",
        "type": {
          "coding": [
            {
              "system": "http://fhir.abda.de/eRezeptAbgabedaten/CodeSystem/DAV-CS-ERP-InvoiceTyp",
              "code": "ZusatzdatenEinheit"
            }
          ]
        },
        "lineItem": [
          {
            "sequence": 1,
            "chargeItemCodeableConcept": {
              "coding": [
                {
                  "system": "http://fhir.de/CodeSystem/ifa/pzn",
                  "code": "01131365"
                }
              ]
            },
            "priceComponent": [
              {
                "extension": [
                  {
                    "url": "http://fhir.abda.de/eRezeptAbgabedaten/StructureDefinition/DAV-EX-ERP-ZusatzdatenFaktorkennzeichen",
                    "valueCodeableConcept": {
                      "coding": [
                        {
                          "system": "http://fhir.abda.de/eRezeptAbgabedaten/CodeSystem/DAV-PKV-CS-ERP-ZusatzdatenEinheitFaktorkennzeichen",
                          "code": "11"
                        }
                      ]
                    }
                  }
                ],
                "type": "informational",
                "factor": 360,
                "amount": {
                  "value": 17.33,
                  "currency": "EUR"
                }
              }
            ]
          },
          {
            "sequence": 2,
            "chargeItemCodeableConcept": {
              "coding": [
                {
                  "system": "http://fhir.de/CodeSystem/ifa/pzn",
                  "code": "09477471"
                }
              ]
            },
            "priceComponent": [
              {
                "extension": [
                  {
                    "url": "http://fhir.abda.de/eRezeptAbgabedaten/StructureDefinition/DAV-EX-ERP-ZusatzdatenFaktorkennzeichen",
                    "valueCodeableConcept": {
                      "coding": [
                        {
                          "system": "http://fhir.abda.de/eRezeptAbgabedaten/CodeSystem/DAV-PKV-CS-ERP-ZusatzdatenEinheitFaktorkennzeichen",
                          "code": "11"
                        }
                      ]
                    }
                  }
                ],
                "type": "informational",
                "factor": 50,
                "amount": {
                  "value": 1.36,
                  "currency": "EUR"
                }
              }
            ]
          },
          {
            "sequence": 3,
            "chargeItemCodeableConcept": {
              "coding": [
                {
                  "system": "http://TA1.abda.de",
                  "code": "06460518"
                }
              ]
            },
            "priceComponent": [
              {
                "extension": [
                  {
                    "url": "http://fhir.abda.de/eRezeptAbgabedaten/StructureDefinition/DAV-EX-ERP-ZusatzdatenFaktorkennzeichen",
                    "valueCodeableConcept": {
                      "coding": [
                        {
                          "system": "http://fhir.abda.de/eRezeptAbgabedaten/CodeSystem/DAV-PKV-CS-ERP-ZusatzdatenEinheitFaktorkennzeichen",
                          "code": "11"
                        }
                      ]
                    }
                  }
                ],
                "type": "informational",
                "factor": 1000,
                "amount": {
                  "value": 90.00,
                  "currency": "EUR"
                }
              }
            ]
          }
        ]
      }
    },
    {
      "fullUrl": "urn:uuid:7d62c70e-c963-4c4d-a420-7df13781c9ad",
      "resource": {
        "resourceType": "Invoice",
        "id": "7d62c70e-c963-4c4d-a420-7df13781c9ad",
        "meta": {
          "profile": [
            "http://fhir.abda.de/eRezeptAbgabedaten/StructureDefinition/DAV-PKV-PR-ERP-ZusatzdatenEinheit|1.2"
          ]
        },
        "extension": [
          {
            "url": "http://fhir.abda.de/eRezeptAbgabedaten/StructureDefinition/DAV-EX-ERP-Zaehler",
            "valuePositiveInt": 1
          }
        ],
        "status": "issued",
        "type": {
          "coding": [
            {
              "system": "http://fhir.abda.de/eRezeptAbgabedaten/CodeSystem/DAV-CS-ERP-InvoiceTyp",
              "code": "ZusatzdatenEinheit"
            }
          ]
        },
        "lineItem": [
          {
            "sequence": 1,
            "chargeItemCodeableConcept": {
              "coding": [
                {
                  "system": "http://fhir.de/CodeSystem/ifa/pzn",
                  "code": "01131365"
                }
              ]
            },
            "priceComponent": [
              {
                "extension": [
                  {
                    "url": "http://fhir.abda.de/eRezeptAbgabedaten/StructureDefinition/DAV-EX-ERP-ZusatzdatenFaktorkennzeichen",
                    "valueCodeableConcept": {
                      "coding": [
                        {
                          "system": "http://fhir.abda.de/eRezeptAbgabedaten/CodeSystem/DAV-PKV-CS-ERP-ZusatzdatenEinheitFaktorkennzeichen",
                          "code": "11"
                        }
                      ]
                    }
                  }
                ],
                "type": "informational",
                "factor": 360,
                "amount": {
                  "value": 17.33,
                  "currency": "EUR"
                }
              }
            ]
          },
          {
            "sequence": 2,
            "chargeItemCodeableConcept": {
              "coding": [
                {
                  "system": "http://fhir.de/CodeSystem/ifa/pzn",
                  "code": "01131365"
                }
              ]
            },
            "priceComponent": [
              {
                "extension": [
                  {
                    "url": "http://fhir.abda.de/eRezeptAbgabedaten/StructureDefinition/DAV-EX-ERP-ZusatzdatenFaktorkennzeichen",
                    "valueCodeableConcept": {
                      "coding": [
                        {
                          "system": "http://fhir.abda.de/eRezeptAbgabedaten/CodeSystem/DAV-PKV-CS-ERP-ZusatzdatenEinheitFaktorkennzeichen",
                          "code": "99"
                        }
                      ]
                    }
                  }
                ],
                "type": "informational",
                "factor": 360,
                "amount": {
                  "value": 0.96,
                  "currency": "EUR"
                }
              }
            ]
          },
          {
            "sequence": 3,
            "chargeItemCodeableConcept": {
              "coding": [
                {
                  "system": "http://fhir.de/CodeSystem/ifa/pzn",
                  "code": "09477471"
                }
              ]
            },
            "priceComponent": [
              {
                "extension": [
                  {
                    "url": "http://fhir.abda.de/eRezeptAbgabedaten/StructureDefinition/DAV-EX-ERP-ZusatzdatenFaktorkennzeichen",
                    "valueCodeableConcept": {
                      "coding": [
                        {
                          "system": "http://fhir.abda.de/eRezeptAbgabedaten/CodeSystem/DAV-PKV-CS-ERP-ZusatzdatenEinheitFaktorkennzeichen",
                          "code": "11"
                        }
                      ]
                    }
                  }
                ],
                "type": "informational",
                "factor": 50,
                "amount": {
                  "value": 1.36,
                  "currency": "EUR"
                }
              }
            ]
          },
          {
            "sequence": 4,
            "chargeItemCodeableConcept": {
              "coding": [
                {
                  "system": "http://TA1.abda.de",
                  "code": "06460518"
                }
              ]
            },
            "priceComponent": [
              {
                "extension": [
                  {
                    "url": "http://fhir.abda.de/eRezeptAbgabedaten/StructureDefinition/DAV-EX-ERP-ZusatzdatenFaktorkennzeichen",
                    "valueCodeableConcept": {
                      "coding": [
                        {
                          "system": "http://fhir.abda.de/eRezeptAbgabedaten/CodeSystem/DAV-PKV-CS-ERP-ZusatzdatenEinheitFaktorkennzeichen",
                          "code": "11"
                        }
                      ]
                    }
                  }
                ],
                "type": "informational",
                "factor": 1000,
                "amount": {
                  "value": 90.00,
                  "currency": "EUR"
                }
              }
            ]
          }
        ]
      }
    }
  ]
}