<Parameters xmlns="http://hl7.org/fhir">
   <id value="c2ce855c-e5dd-4311-97bf-8e8353e57837"/>
   <meta>
      <profile value="https://gematik.de/fhir/epa-medication/StructureDefinition/epa-op-provide-dispensation-erp-input-parameters|1.0.3"/>
   </meta>
   <parameter>
      <name value="rxDispensation"/>
      <part>
         <name value="prescriptionId"/>
         <valueIdentifier>
            <system value="https://gematik.de/fhir/erp/NamingSystem/GEM_ERP_NS_PrescriptionId"/>
            <value value="160.100.000.000.004.30"/>
         </valueIdentifier>
      </part>
      <part>
         <name value="authoredOn"/>
         <valueDate value="1970-01-01"/>
      </part>
      <part>
         <name value="medicationDispense"/>
         <resource>
            <MedicationDispense xmlns="http://hl7.org/fhir">
               <id value="45b016c9-d26e-4801-a1fa-a2a9f2142f32"/>
               <meta>
                  <profile value="https://gematik.de/fhir/epa-medication/StructureDefinition/epa-medication-dispense|1.0.3"/>
               </meta>
               <identifier>
                  <system value="https://gematik.de/fhir/epa-medication/sid/rx-originator-process-identifier"/>
                  <value value="e378bc5a-552f-4151-a072-366d4a9f6cec_160.100.000.000.004.30"/>
               </identifier>
               <status value="completed"/>
               <category>
                  <coding>
                     <system value="https://gematik.de/fhir/epa-medication/CodeSystem/EPAMedicationDispenseCategoryCS"/>
                     <code value="prescription"/>
                     <display value="prescription dispense"/>
                  </coding>
               </category>
               <medicationReference>
                  <reference value="Medication/09a716c8-2d71-4c4c-8650-8be6ded9f9dc"/>
               </medicationReference>
               <subject>
                  <identifier>
                     <system value="http://fhir.de/sid/gkv/kvid-10"/>
                     <value value="K220635158"/>
                  </identifier>
               </subject>
               <performer>
                  <actor>
                     <reference value="Organization/c617e8e0-0c9c-4297-9193-655d3170d04d"/>
                  </actor>
               </performer>
               <whenHandedOver value="2024-11-27"/>
            </MedicationDispense>
         </resource>
      </part>
      <part>
         <name value="medication"/>
         <resource>
            <Medication xmlns="http://hl7.org/fhir">
               <id value="09a716c8-2d71-4c4c-8650-8be6ded9f9dc"/>
               <meta>
                  <profile value="https://gematik.de/fhir/epa-medication/StructureDefinition/epa-medication|1.0.3"/>
               </meta>
               <extension url="https://gematik.de/fhir/epa-medication/StructureDefinition/drug-category-extension">
                  <valueCoding>
                     <system value="https://gematik.de/fhir/epa-medication/CodeSystem/epa-drug-category-cs"/>
                     <code value="00"/>
                  </valueCoding>
               </extension>
               <extension url="https://gematik.de/fhir/epa-medication/StructureDefinition/medication-id-vaccine-extension">
                  <valueBoolean value="false"/>
               </extension>
               <extension url="http://fhir.de/StructureDefinition/normgroesse">
                  <valueCode value="N1"/>
               </extension>
               <code>
                  <coding>
                     <system value="http://fhir.de/CodeSystem/ifa/pzn"/>
                     <code value="01288434"/>
                  </coding>
                  <text value="Atmadisc 50 μg/250 μg Diskus Inh.-Pulver"/>
               </code>
               <form>
                  <coding>
                     <system value="https://fhir.kbv.de/CodeSystem/KBV_CS_SFHIR_KBV_DARREICHUNGSFORM"/>
                     <code value="IHP"/>
                  </coding>
               </form>
               <amount>
                  <numerator>
                     <extension url="https://gematik.de/fhir/epa-medication/StructureDefinition/medication-packaging-size-extension">
                        <valueString value="1"/>
                     </extension>
                     <unit value="Diskus"/>
                  </numerator>
                  <denominator>
                     <value value="1"/>
                  </denominator>
               </amount>
               <batch>
                  <lotNumber value="A123456789-1"/>
                  <expirationDate value="2025-12-31"/>
               </batch>
            </Medication>
         </resource>
      </part>
      <part>
         <name value="organization"/>
         <resource>
            <Organization xmlns="http://hl7.org/fhir">
               <id value="c617e8e0-0c9c-4297-9193-655d3170d04d"/>
               <meta>
                  <profile value="https://gematik.de/fhir/directory/StructureDefinition/OrganizationDirectory|0.11.12"/>
                  <tag>
                     <system value="https://gematik.de/fhir/directory/CodeSystem/Origin"/>
                     <code value="ldap"/>
                  </tag>
               </meta>
               <identifier>
                  <system value="https://gematik.de/fhir/sid/telematik-id"/>
                  <value value="3-07.2.1234560000.10.789"/>
               </identifier>
               <type>
                  <coding>
                     <system value="https://gematik.de/fhir/directory/CodeSystem/OrganizationProfessionOID"/>
                     <code value="1.2.276.0.76.4.58"/>
                  </coding>
               </type>
               <name value="Hope Ferterbest"/>
            </Organization>
         </resource>
      </part>
   </parameter>
</Parameters>