{
  "resourceType": "Bundle",
  "id": "7bff9f7a-bb1d-409a-801a-92590a07d91f",
  "type": "collection",
  "timestamp": "2023-03-16T11:48:40.130+00:00",
  "link": [
    {
      "relation": "self",
      "url": "https://erp-test.zentral.erp.splitdns.ti-dienste.de/Task/160.000.006.300.806.29"
    }
  ],
  "entry": [
    {
      "fullUrl": "https://erp-test.zentral.erp.splitdns.ti-dienste.de/Task/160.000.006.300.806.29",
      "resource": {
        "resourceType": "Task",
        "id": "160.000.006.300.806.29",
        "meta": {
          "profile": [
            "https://gematik.de/fhir/StructureDefinition/ErxTask|1.1.1"
          ]
        },
        "extension": [
          {
            "url": "https://gematik.de/fhir/StructureDefinition/PrescriptionType",
            "valueCoding": {
              "system": "https://gematik.de/fhir/CodeSystem/Flowtype",
              "code": "160",
              "display": "Muster 16 (Apothekenpflichtige Arzneimittel)"
            }
          },
          {
            "url": "https://gematik.de/fhir/StructureDefinition/ExpiryDate",
            "valueDate": "2023-06-16"
          },
          {
            "url": "https://gematik.de/fhir/StructureDefinition/AcceptDate",
            "valueDate": "2023-04-13"
          }
        ],
        "identifier": [
          {
            "use": "official",
            "system": "https://gematik.de/fhir/NamingSystem/PrescriptionID",
            "value": "160.000.006.300.806.29"
          },
          {
            "use": "official",
            "system": "https://gematik.de/fhir/NamingSystem/AccessCode",
            "value": "b7cc7b91ded15c48831739886fd9870f8ec2eab673c4c69f3f442b93bfe2473a"
          }
        ],
        "status": "completed",
        "intent": "order",
        "for": {
          "identifier": {
            "system": "http://fhir.de/NamingSystem/gkv/kvid-10",
            "value": "X110498565"
          }
        },
        "authoredOn": "2023-03-16T11:48:37.886+00:00",
        "lastModified": "2023-03-16T11:48:39.550+00:00",
        "performerType": [
          {
            "coding": [
              {
                "system": "urn:ietf:rfc:3986",
                "code": "urn:oid:1.2.276.0.76.4.54",
                "display": "Öffentliche Apotheke"
              }
            ],
            "text": "Öffentliche Apotheke"
          }
        ],
        "input": [
          {
            "type": {
              "coding": [
                {
                  "system": "https://gematik.de/fhir/CodeSystem/Documenttype",
                  "code": "2"
                }
              ]
            },
            "valueReference": {
              "reference": "a0862460-0000-0000-0002-000000000000"
            }
          }
        ]
      }
    },
    {
      "fullUrl": "urn:uuid:a0862460-0000-0000-0002-000000000000",
      "resource": {
        "resourceType": "Bundle",
        "meta": {
          "lastUpdated": "2023-03-16T12:48:36.923+01:00",
          "profile": [
            "https://fhir.kbv.de/StructureDefinition/KBV_PR_ERP_Bundle|1.0.2"
          ]
        },
        "identifier": {
          "system": "https://gematik.de/fhir/NamingSystem/PrescriptionID",
          "value": "160.000.006.300.806.29"
        },
        "type": "document",
        "timestamp": "2023-03-16T12:48:36.923+01:00",
        "entry": [
          {
            "fullUrl": "https://pvs.gematik.de/fhir/Composition/61fe5137-bb7b-42b3-acfe-60cd343c757d",
            "resource": {
              "resourceType": "Composition",
              "id": "61fe5137-bb7b-42b3-acfe-60cd343c757d",
              "meta": {
                "profile": [
                  "https://fhir.kbv.de/StructureDefinition/KBV_PR_ERP_Composition|1.0.2"
                ]
              },
              "extension": [
                {
                  "url": "https://fhir.kbv.de/StructureDefinition/KBV_EX_FOR_Legal_basis",
                  "valueCoding": {
                    "system": "https://fhir.kbv.de/CodeSystem/KBV_CS_SFHIR_KBV_STATUSKENNZEICHEN",
                    "code": "00"
                  }
                }
              ],
              "status": "final",
              "type": {
                "coding": [
                  {
                    "system": "https://fhir.kbv.de/CodeSystem/KBV_CS_SFHIR_KBV_FORMULAR_ART",
                    "code": "e16A"
                  }
                ]
              },
              "subject": {
                "reference": "Patient/34e5e696-b39c-46cb-8b7e-9e588142d810"
              },
              "date": "2023-03-16T12:48:36+01:00",
              "author": [
                {
                  "reference": "Practitioner/3f30e1a8-4605-4a50-b24c-5daf8bb2398b",
                  "type": "Practitioner"
                },
                {
                  "type": "Device",
                  "identifier": {
                    "system": "https://fhir.kbv.de/NamingSystem/KBV_NS_FOR_Pruefnummer",
                    "value": "GEMATIK/410/2109/36/123"
                  }
                }
              ],
              "title": "elektronische Arzneimittelverordnung",
              "custodian": {
                "reference": "Organization/57cd4ba6-e23e-4910-a219-dffcc7a0def2"
              },
              "section": [
                {
                  "code": {
                    "coding": [
                      {
                        "system": "https://fhir.kbv.de/CodeSystem/KBV_CS_ERP_Section_Type",
                        "code": "Coverage"
                      }
                    ]
                  },
                  "entry": [
                    {
                      "reference": "Coverage/c8b3f7bb-c0b2-453d-b8fb-736c8b6b41bb"
                    }
                  ]
                },
                {
                  "code": {
                    "coding": [
                      {
                        "system": "https://fhir.kbv.de/CodeSystem/KBV_CS_ERP_Section_Type",
                        "code": "Prescription"
                      }
                    ]
                  },
                  "entry": [
                    {
                      "reference": "MedicationRequest/60cbacdb-2c30-4b6c-ab5d-4d960e2d23d6"
                    }
                  ]
                }
              ]
            }
          },
          {
            "fullUrl": "https://pvs.gematik.de/fhir/MedicationRequest/60cbacdb-2c30-4b6c-ab5d-4d960e2d23d6",
            "resource": {
              "resourceType": "MedicationRequest",
              "id": "60cbacdb-2c30-4b6c-ab5d-4d960e2d23d6",
              "meta": {
                "profile": [
                  "https://fhir.kbv.de/StructureDefinition/KBV_PR_ERP_Prescription|1.0.2"
                ]
              },
              "extension": [
                {
                  "url": "https://fhir.kbv.de/StructureDefinition/KBV_EX_ERP_BVG",
                  "valueBoolean": false
                },
                {
                  "url": "https://fhir.kbv.de/StructureDefinition/KBV_EX_ERP_EmergencyServicesFee",
                  "valueBoolean": false
                },
                {
                  "url": "https://fhir.kbv.de/StructureDefinition/KBV_EX_ERP_Multiple_Prescription",
                  "extension": [
                    {
                      "url": "Kennzeichen",
                      "valueBoolean": false
                    }
                  ]
                },
                {
                  "url": "https://fhir.kbv.de/StructureDefinition/KBV_EX_ERP_StatusCoPayment",
                  "valueCoding": {
                    "system": "https://fhir.kbv.de/CodeSystem/KBV_CS_ERP_StatusCoPayment",
                    "code": "0"
                  }
                }
              ],
              "status": "active",
              "intent": "order",
              "medicationReference": {
                "reference": "Medication/469a8855-ce48-4000-98ef-96c3600517c9"
              },
              "subject": {
                "reference": "Patient/34e5e696-b39c-46cb-8b7e-9e588142d810"
              },
              "authoredOn": "2023-03-16",
              "requester": {
                "reference": "Practitioner/3f30e1a8-4605-4a50-b24c-5daf8bb2398b"
              },
              "insurance": [
                {
                  "reference": "Coverage/c8b3f7bb-c0b2-453d-b8fb-736c8b6b41bb"
                }
              ],
              "dosageInstruction": [
                {
                  "extension": [
                    {
                      "url": "https://fhir.kbv.de/StructureDefinition/KBV_EX_ERP_DosageFlag",
                      "valueBoolean": true
                    }
                  ],
                  "text": "1-0-0-0"
                }
              ],
              "dispenseRequest": {
                "quantity": {
                  "value": 1,
                  "system": "http://unitsofmeasure.org",
                  "code": "{Package}"
                }
              },
              "substitution": {
                "allowedBoolean": true
              }
            }
          },
          {
            "fullUrl": "https://pvs.gematik.de/fhir/Medication/469a8855-ce48-4000-98ef-96c3600517c9",
            "resource": {
              "resourceType": "Medication",
              "id": "469a8855-ce48-4000-98ef-96c3600517c9",
              "meta": {
                "profile": [
                  "https://fhir.kbv.de/StructureDefinition/KBV_PR_ERP_Medication_PZN|1.0.2"
                ]
              },
              "extension": [
                {
                  "url": "https://fhir.kbv.de/StructureDefinition/KBV_EX_ERP_Medication_Category",
                  "valueCoding": {
                    "system": "https://fhir.kbv.de/CodeSystem/KBV_CS_ERP_Medication_Category",
                    "code": "00"
                  }
                },
                {
                  "url": "https://fhir.kbv.de/StructureDefinition/KBV_EX_ERP_Medication_Vaccine",
                  "valueBoolean": false
                },
                {
                  "url": "http://fhir.de/StructureDefinition/normgroesse",
                  "valueCode": "NB"
                }
              ],
              "code": {
                "coding": [
                  {
                    "system": "http://fhir.de/CodeSystem/ifa/pzn",
                    "code": "12345678"
                  }
                ],
                "text": "Schmerzmittel"
              },
              "form": {
                "coding": [
                  {
                    "system": "https://fhir.kbv.de/CodeSystem/KBV_CS_SFHIR_KBV_DARREICHUNGSFORM",
                    "code": "TAB"
                  }
                ]
              },
              "amount": {
                "numerator": {
                  "value": 1,
                  "unit": "Stk"
                },
                "denominator": {
                  "value": 1
                }
              }
            }
          },
          {
            "fullUrl": "https://pvs.gematik.de/fhir/Patient/34e5e696-b39c-46cb-8b7e-9e588142d810",
            "resource": {
              "resourceType": "Patient",
              "id": "34e5e696-b39c-46cb-8b7e-9e588142d810",
              "meta": {
                "profile": [
                  "https://fhir.kbv.de/StructureDefinition/KBV_PR_FOR_Patient|1.0.3"
                ]
              },
              "identifier": [
                {
                  "type": {
                    "coding": [
                      {
                        "system": "http://fhir.de/CodeSystem/identifier-type-de-basis",
                        "code": "GKV"
                      }
                    ]
                  },
                  "system": "http://fhir.de/NamingSystem/gkv/kvid-10",
                  "value": "X110498565"
                }
              ],
              "name": [
                {
                  "use": "official",
                  "family": "Hüllmann",
                  "given": ["Sina"]
                }
              ],
              "birthDate": "1990-10-09",
              "address": [
                {
                  "type": "both",
                  "line": ["Mozartstr. 76b"],
                  "_line": [
                    {
                      "extension": [
                        {
                          "url": "http://hl7.org/fhir/StructureDefinition/iso21090-ADXP-houseNumber",
                          "valueString": "76b"
                        },
                        {
                          "url": "http://hl7.org/fhir/StructureDefinition/iso21090-ADXP-streetName",
                          "valueString": "Mozartstr."
                        }
                      ]
                    }
                  ],
                  "city": "Groß Ivandorf",
                  "postalCode": "44568",
                  "country": "D"
                }
              ]
            }
          },
          {
            "fullUrl": "https://pvs.gematik.de/fhir/Organization/57cd4ba6-e23e-4910-a219-dffcc7a0def2",
            "resource": {
              "resourceType": "Organization",
              "id": "57cd4ba6-e23e-4910-a219-dffcc7a0def2",
              "meta": {
                "profile": [
                  "https://fhir.kbv.de/StructureDefinition/KBV_PR_FOR_Organization|1.0.3"
                ]
              },
              "identifier": [
                {
                  "type": {
                    "coding": [
                      {
                        "system": "http://terminology.hl7.org/CodeSystem/v2-0203",
                        "code": "BSNR"
                      }
                    ]
                  },
                  "system": "https://fhir.kbv.de/NamingSystem/KBV_NS_Base_BSNR",
                  "value": "788855608"
                }
              ],
              "name": "Arztpraxis Schraßer",
              "telecom": [
                {
                  "system": "phone",
                  "value": "+49-258-5689600"
                },
                {
                  "system": "email",
                  "value": "emma.stengl@wollmann.org"
                }
              ],
              "address": [
                {
                  "type": "both",
                  "line": ["Jakob-Kaiser-Str. 99b"],
                  "_line": [
                    {
                      "extension": [
                        {
                          "url": "http://hl7.org/fhir/StructureDefinition/iso21090-ADXP-houseNumber",
                          "valueString": "99b"
                        },
                        {
                          "url": "http://hl7.org/fhir/StructureDefinition/iso21090-ADXP-streetName",
                          "valueString": "Jakob-Kaiser-Str."
                        }
                      ]
                    }
                  ],
                  "city": "Joshuagrün",
                  "postalCode": "20255",
                  "country": "D"
                }
              ]
            }
          },
          {
            "fullUrl": "https://pvs.gematik.de/fhir/Coverage/c8b3f7bb-c0b2-453d-b8fb-736c8b6b41bb",
            "resource": {
              "resourceType": "Coverage",
              "id": "c8b3f7bb-c0b2-453d-b8fb-736c8b6b41bb",
              "meta": {
                "profile": [
                  "https://fhir.kbv.de/StructureDefinition/KBV_PR_FOR_Coverage|1.0.3"
                ]
              },
              "extension": [
                {
                  "url": "http://fhir.de/StructureDefinition/gkv/besondere-personengruppe",
                  "valueCoding": {
                    "system": "https://fhir.kbv.de/CodeSystem/KBV_CS_SFHIR_KBV_PERSONENGRUPPE",
                    "code": "00"
                  }
                },
                {
                  "url": "http://fhir.de/StructureDefinition/gkv/dmp-kennzeichen",
                  "valueCoding": {
                    "system": "https://fhir.kbv.de/CodeSystem/KBV_CS_SFHIR_KBV_DMP",
                    "code": "00"
                  }
                },
                {
                  "url": "http://fhir.de/StructureDefinition/gkv/wop",
                  "valueCoding": {
                    "system": "https://fhir.kbv.de/CodeSystem/KBV_CS_SFHIR_ITA_WOP",
                    "code": "20"
                  }
                },
                {
                  "url": "http://fhir.de/StructureDefinition/gkv/versichertenart",
                  "valueCoding": {
                    "system": "https://fhir.kbv.de/CodeSystem/KBV_CS_SFHIR_KBV_VERSICHERTENSTATUS",
                    "code": "1"
                  }
                }
              ],
              "status": "active",
              "type": {
                "coding": [
                  {
                    "system": "http://fhir.de/CodeSystem/versicherungsart-de-basis",
                    "code": "GKV"
                  }
                ]
              },
              "beneficiary": {
                "reference": "Patient/bafc476a-12f6-42d0-8952-eac991df8a83"
              },
              "payor": [
                {
                  "identifier": {
                    "system": "http://fhir.de/NamingSystem/arge-ik/iknr",
                    "value": "965041956"
                  },
                  "display": "Farmer Koblenz"
                }
              ]
            }
          },
          {
            "fullUrl": "https://pvs.gematik.de/fhir/Practitioner/3f30e1a8-4605-4a50-b24c-5daf8bb2398b",
            "resource": {
              "resourceType": "Practitioner",
              "id": "3f30e1a8-4605-4a50-b24c-5daf8bb2398b",
              "meta": {
                "profile": [
                  "https://fhir.kbv.de/StructureDefinition/KBV_PR_FOR_Practitioner|1.0.3"
                ]
              },
              "identifier": [
                {
                  "type": {
                    "coding": [
                      {
                        "system": "http://terminology.hl7.org/CodeSystem/v2-0203",
                        "code": "LANR"
                      }
                    ]
                  },
                  "system": "https://fhir.kbv.de/NamingSystem/KBV_NS_Base_ANR",
                  "value": "196780617"
                }
              ],
              "name": [
                {
                  "use": "official",
                  "family": "Schraßer",
                  "given": ["Dr."],
                  "prefix": ["Dr."],
                  "_prefix": [
                    {
                      "extension": [
                        {
                          "url": "http://hl7.org/fhir/StructureDefinition/iso21090-EN-qualifier",
                          "valueCode": "AC"
                        }
                      ]
                    }
                  ]
                }
              ],
              "qualification": [
                {
                  "code": {
                    "coding": [
                      {
                        "system": "https://fhir.kbv.de/CodeSystem/KBV_CS_FOR_Qualification_Type",
                        "code": "00"
                      }
                    ]
                  }
                },
                {
                  "code": {
                    "text": "Super-Facharzt für alles Mögliche"
                  }
                }
              ]
            }
          }
        ],
        "signature": {
          "type": [
            {
              "system": "urn:iso-astm:E1762-95:2013",
              "code": "1.2.840.10065.1.12.1.5"
            }
          ],
          "when": "2023-03-16T11:48:40.130+00:00",
          "who": {
            "reference": "https://erp-test.zentral.erp.splitdns.ti-dienste.de/Device/1"
          },
          "targetFormat": "application/fhir+json",
          "sigFormat": "application/jose",
          "data": ""
        }
      }
    }
  ]
}
