{
  "resourceType": "Bundle",
  "id": "5dffa874-9781-4a20-96ba-f5bef504a54b",
  "meta": {
    "profile": [
      "http://fhir.abda.de/eRezeptAbgabedaten/StructureDefinition/DAV-PKV-PR-ERP-AbgabedatenBundle|1.3"
    ],
    "tag": [
      {
        "display": "Beispiel RezeptAbgabedatenPKV Bundle (REZ-10)"
      },
      {
        "display": "ACHTUNG! Der fachlich korrekte Inhalt der Beispielinstanz kann nicht gewährleistet werden. Wir sind jederzeit dankbar für Hinweise auf Fehler oder für Verbesserungsvorschläge."
      }
    ]
  },
  "identifier": {
    "system": "https://gematik.de/fhir/erp/NamingSystem/GEM_ERP_NS_PrescriptionId",
    "value": "200.858.310.624.061.76"
  },
  "type": "document",
  "timestamp": "2024-11-03T11:30:00+00:00",
  "entry": [
    {
      "fullUrl": "urn:uuid:bc212e33-1aa2-4bf4-ac77-927beca65cbb",
      "resource": {
        "resourceType": "Composition",
        "id": "bc212e33-1aa2-4bf4-ac77-927beca65cbb",
        "meta": {
          "profile": [
            "http://fhir.abda.de/eRezeptAbgabedaten/StructureDefinition/DAV-PKV-PR-ERP-AbgabedatenComposition|1.3"
          ]
        },
        "status": "final",
        "type": {
          "coding": [
            {
              "system": "http://fhir.abda.de/eRezeptAbgabedaten/CodeSystem/DAV-CS-ERP-CompositionTypes",
              "code": "ERezeptAbgabedaten"
            }
          ]
        },
        "date": "2024-11-03T11:30:00Z",
        "author": [
          {
            "reference": "urn:uuid:52cc1148-f296-4bcc-beee-82b92f587617"
          }
        ],
        "title": "ERezeptAbgabedaten",
        "section": [
          {
            "title": "Abgabeinformationen",
            "entry": [
              {
                "reference": "urn:uuid:2240ad06-61da-4edd-b8bc-b28737282876"
              }
            ]
          },
          {
            "title": "Apotheke",
            "entry": [
              {
                "reference": "urn:uuid:52cc1148-f296-4bcc-beee-82b92f587617"
              }
            ]
          }
        ]
      }
    },
    {
      "fullUrl": "urn:uuid:52cc1148-f296-4bcc-beee-82b92f587617",
      "resource": {
        "resourceType": "Organization",
        "id": "52cc1148-f296-4bcc-beee-82b92f587617",
        "meta": {
          "profile": [
            "http://fhir.abda.de/eRezeptAbgabedaten/StructureDefinition/DAV-PKV-PR-ERP-Apotheke|1.3"
          ]
        },
        "identifier": [
          {
            "system": "http://fhir.de/sid/arge-ik/iknr",
            "value": "308412345"
          }
        ],
        "name": "Adler-Apotheke",
        "address": [
          {
            "type": "physical",
            "line": [
              "Taunusstraße 89"
            ],
            "_line": [
              {
                "extension": [
                  {
                    "url": "http://hl7.org/fhir/StructureDefinition/iso21090-ADXP-streetName",
                    "valueString": "Taunusstraße"
                  },
                  {
                    "url": "http://hl7.org/fhir/StructureDefinition/iso21090-ADXP-houseNumber",
                    "valueString": "89"
                  }
                ]
              }
            ],
            "city": "Langen",
            "postalCode": "63225",
            "country": "D"
          }
        ]
      }
    },
    {
      "fullUrl": "urn:uuid:2240ad06-61da-4edd-b8bc-b28737282876",
      "resource": {
        "resourceType": "MedicationDispense",
        "id": "2240ad06-61da-4edd-b8bc-b28737282876",
        "meta": {
          "profile": [
            "http://fhir.abda.de/eRezeptAbgabedaten/StructureDefinition/DAV-PKV-PR-ERP-Abgabeinformationen|1.3"
          ]
        },
        "extension": [
          {
            "url": "http://fhir.abda.de/eRezeptAbgabedaten/StructureDefinition/DAV-EX-ERP-Abrechnungszeilen",
            "valueReference": {
              "reference": "urn:uuid:2719e0de-6238-4d0a-8eeb-72b0571ef2c9"
            }
          },
          {
            "url": "http://fhir.abda.de/eRezeptAbgabedaten/StructureDefinition/DAV-PKV-EX-ERP-AbrechnungsTyp",
            "valueCodeableConcept": {
              "coding": [
                {
                  "system": "http://fhir.abda.de/eRezeptAbgabedaten/CodeSystem/DAV-PKV-CS-ERP-AbrechnungsTyp",
                  "code": "1"
                }
              ]
            }
          },
          {
            "url": "http://fhir.abda.de/eRezeptAbgabedaten/StructureDefinition/DAV-EX-ERP-ZusatzdatenHerstellung",
            "valueReference": {
              "reference": "urn:uuid:31397308-ce6d-4510-a1c5-9da410fef206"
            }
          }
        ],
        "status": "completed",
        "medicationCodeableConcept": {
          "coding": [
            {
              "system": "http://terminology.hl7.org/CodeSystem/data-absent-reason",
              "code": "not-applicable"
            }
          ]
        },
        "performer": [
          {
            "actor": {
              "reference": "urn:uuid:52cc1148-f296-4bcc-beee-82b92f587617"
            }
          }
        ],
        "authorizingPrescription": [
          {
            "identifier": {
              "system": "https://gematik.de/fhir/erp/NamingSystem/GEM_ERP_NS_PrescriptionId",
              "value": "200.858.310.624.061.76"
            }
          }
        ],
        "type": {
          "coding": [
            {
              "system": "http://fhir.abda.de/eRezeptAbgabedaten/CodeSystem/DAV-CS-ERP-MedicationDispenseTyp",
              "code": "Abgabeinformationen"
            }
          ]
        },
        "whenHandedOver": "2024-11-03"
      }
    },
    {
      "fullUrl": "urn:uuid:2719e0de-6238-4d0a-8eeb-72b0571ef2c9",
      "resource": {
        "resourceType": "Invoice",
        "id": "2719e0de-6238-4d0a-8eeb-72b0571ef2c9",
        "meta": {
          "profile": [
            "http://fhir.abda.de/eRezeptAbgabedaten/StructureDefinition/DAV-PKV-PR-ERP-Abrechnungszeilen|1.3"
          ]
        },
        "status": "issued",
        "type": {
          "coding": [
            {
              "system": "http://fhir.abda.de/eRezeptAbgabedaten/CodeSystem/DAV-CS-ERP-InvoiceTyp",
              "code": "Abrechnungszeilen"
            }
          ]
        },
        "lineItem": [
          {
            "sequence": 1,
            "chargeItemCodeableConcept": {
              "coding": [
                {
                  "system": "http://TA1.abda.de",
                  "code": "09999011"
                }
              ],
              "text": "Rezeptur"
            },
            "priceComponent": [
              {
                "extension": [
                  {
                    "url": "http://fhir.abda.de/eRezeptAbgabedaten/StructureDefinition/DAV-EX-ERP-MwStSatz",
                    "valueDecimal": 19.00
                  },
                  {
                    "extension": [
                      {
                        "url": "Kategorie",
                        "valueCodeableConcept": {
                          "coding": [
                            {
                              "system": "http://fhir.abda.de/eRezeptAbgabedaten/CodeSystem/DAV-PKV-CS-ERP-KostenVersicherterKategorie",
                              "code": "0"
                            }
                          ]
                        }
                      },
                      {
                        "url": "Kostenbetrag",
                        "valueMoney": {
                          "value": 0.00,
                          "currency": "EUR"
                        }
                      }
                    ],
                    "url": "http://fhir.abda.de/eRezeptAbgabedaten/StructureDefinition/DAV-EX-ERP-KostenVersicherter"
                  }
                ],
                "type": "informational",
                "factor": 1,
                "amount": {
                  "value": 31.70,
                  "currency": "EUR"
                }
              }
            ]
          }
        ],
        "totalGross": {
          "extension": [
            {
              "url": "http://fhir.abda.de/eRezeptAbgabedaten/StructureDefinition/DAV-EX-ERP-Gesamtzuzahlung",
              "valueMoney": {
                "value": 0.00,
                "currency": "EUR"
              }
            }
          ],
          "value": 31.70,
          "currency": "EUR"
        }
      }
    },
    {
      "fullUrl": "urn:uuid:31397308-ce6d-4510-a1c5-9da410fef206",
      "resource": {
        "resourceType": "MedicationDispense",
        "id": "31397308-ce6d-4510-a1c5-9da410fef206",
        "meta": {
          "profile": [
            "http://fhir.abda.de/eRezeptAbgabedaten/StructureDefinition/DAV-PKV-PR-ERP-ZusatzdatenHerstellung|1.3"
          ]
        },
        "extension": [
          {
            "url": "http://fhir.abda.de/eRezeptAbgabedaten/StructureDefinition/DAV-EX-ERP-Zaehler",
            "valuePositiveInt": 1
          },
          {
            "url": "http://fhir.abda.de/eRezeptAbgabedaten/StructureDefinition/DAV-EX-ERP-ZusatzdatenEinheit",
            "valueReference": {
              "reference": "urn:uuid:4c34abeb-6076-4884-8307-68570bbf24b4"
            }
          }
        ],
        "status": "completed",
        "medicationCodeableConcept": {
          "coding": [
            {
              "system": "http://terminology.hl7.org/CodeSystem/data-absent-reason",
              "code": "not-applicable"
            }
          ]
        },
        "type": {
          "coding": [
            {
              "system": "http://fhir.abda.de/eRezeptAbgabedaten/CodeSystem/DAV-CS-ERP-MedicationDispenseTyp",
              "code": "ZusatzdatenHerstellung"
            }
          ]
        }
      }
    },
    {
      "fullUrl": "urn:uuid:4c34abeb-6076-4884-8307-68570bbf24b4",
      "resource": {
        "resourceType": "Invoice",
        "id": "4c34abeb-6076-4884-8307-68570bbf24b4",
        "meta": {
          "profile": [
            "http://fhir.abda.de/eRezeptAbgabedaten/StructureDefinition/DAV-PKV-PR-ERP-ZusatzdatenEinheit|1.3"
          ]
        },
        "extension": [
          {
            "url": "http://fhir.abda.de/eRezeptAbgabedaten/StructureDefinition/DAV-EX-ERP-Zaehler",
            "valuePositiveInt": 1
          }
        ],
        "status": "issued",
        "type": {
          "coding": [
            {
              "system": "http://fhir.abda.de/eRezeptAbgabedaten/CodeSystem/DAV-CS-ERP-InvoiceTyp",
              "code": "ZusatzdatenEinheit"
            }
          ]
        },
        "lineItem": [
          {
            "sequence": 1,
            "chargeItemCodeableConcept": {
              "coding": [
                {
                  "system": "http://fhir.de/CodeSystem/ifa/pzn",
                  "code": "03110083"
                }
              ]
            },
            "priceComponent": [
              {
                "type": "informational",
                "factor": 432.8,
                "amount": {
                  "value": 5.84,
                  "currency": "EUR"
                }
              }
            ]
          },
          {
            "sequence": 2,
            "chargeItemCodeableConcept": {
              "coding": [
                {
                  "system": "http://fhir.de/CodeSystem/ifa/pzn",
                  "code": "01096858"
                }
              ]
            },
            "priceComponent": [
              {
                "type": "informational",
                "factor": 399.56,
                "amount": {
                  "value": 5.50,
                  "currency": "EUR"
                }
              }
            ]
          },
          {
            "sequence": 3,
            "chargeItemCodeableConcept": {
              "coding": [
                {
                  "system": "http://fhir.de/CodeSystem/ifa/pzn",
                  "code": "00538343"
                }
              ]
            },
            "priceComponent": [
              {
                "type": "informational",
                "factor": 1000,
                "amount": {
                  "value": 0.95,
                  "currency": "EUR"
                }
              }
            ]
          },
          {
            "sequence": 4,
            "chargeItemCodeableConcept": {
              "coding": [
                {
                  "system": "http://TA1.abda.de",
                  "code": "06460518"
                }
              ]
            },
            "priceComponent": [
              {
                "type": "informational",
                "factor": 1000,
                "amount": {
                  "value": 6.00,
                  "currency": "EUR"
                }
              }
            ]
          },
          {
            "sequence": 5,
            "chargeItemCodeableConcept": {
              "coding": [
                {
                  "system": "http://TA1.abda.de",
                  "code": "06460518"
                }
              ]
            },
            "priceComponent": [
              {
                "type": "informational",
                "factor": 1000,
                "amount": {
                  "value": 8.35,
                  "currency": "EUR"
                }
              }
            ]
          }
        ]
      }
    }
  ]
}