{
  "resourceType": "Bundle",
  "id": "dae573db-54e3-4cb8-880d-0a46bea8aea1",
  "meta": {
    "lastUpdated": "2022-07-24T08:30:00+00:00",
    "profile": [
      "https://fhir.kbv.de/StructureDefinition/KBV_PR_ERP_Bundle|1.0.2"
    ]
  },
  "identifier": {
    "system": "https://gematik.de/fhir/NamingSystem/PrescriptionID",
    "value": "160.100.000.000.026.61"
  },
  "type": "document",
  "timestamp": "2022-07-24T08:30:00+00:00",
  "entry": [
    {
      "fullUrl": "http://pvs.praxis.local/fhir/Composition/e1d276c4-f4d5-4e2d-8a82-04d92b34ca51",
      "resource": {
        "resourceType": "Composition",
        "id": "e1d276c4-f4d5-4e2d-8a82-04d92b34ca51",
        "meta": {
          "profile": [
            "https://fhir.kbv.de/StructureDefinition/KBV_PR_ERP_Composition|1.0.2"
          ]
        },
        "extension": [
          {
            "url": "https://fhir.kbv.de/StructureDefinition/KBV_EX_FOR_Legal_basis",
            "valueCoding": {
              "system": "https://fhir.kbv.de/CodeSystem/KBV_CS_SFHIR_KBV_STATUSKENNZEICHEN",
              "code": "00"
            }
          }
        ],
        "status": "final",
        "type": {
          "coding": [
            {
              "system": "https://fhir.kbv.de/CodeSystem/KBV_CS_SFHIR_KBV_FORMULAR_ART",
              "code": "e16A"
            }
          ]
        },
        "subject": {
          "reference": "Patient/1d36152b-40c6-4aeb-a552-86a4d3277edc"
        },
        "date": "2022-07-24T08:00:00Z",
        "author": [
          {
            "reference": "Practitioner/667ffd79-42a3-4002-b7ca-6b9098f20ccb",
            "type": "Practitioner"
          },
          {
            "type": "Device",
            "identifier": {
              "system": "https://fhir.kbv.de/NamingSystem/KBV_NS_FOR_Pruefnummer",
              "value": "Y/410/2107/36/999"
            }
          }
        ],
        "title": "elektronische Arzneimittelverordnung",
        "custodian": {
          "reference": "Organization/5d3f4ac0-2b44-4d48-b363-e63efa72973b"
        },
        "section": [
          {
            "code": {
              "coding": [
                {
                  "system": "https://fhir.kbv.de/CodeSystem/KBV_CS_ERP_Section_Type",
                  "code": "Prescription"
                }
              ]
            },
            "entry": [
              {
                "reference": "MedicationRequest/c97a6538-6742-45a3-a229-2e0e792db446"
              }
            ]
          },
          {
            "code": {
              "coding": [
                {
                  "system": "https://fhir.kbv.de/CodeSystem/KBV_CS_ERP_Section_Type",
                  "code": "Coverage"
                }
              ]
            },
            "entry": [
              {
                "reference": "Coverage/e51239e1-ba74-48e0-97fb-9754d2b05c60"
              }
            ]
          }
        ]
      }
    },
    {
      "fullUrl": "http://pvs.praxis.local/fhir/MedicationRequest/c97a6538-6742-45a3-a229-2e0e792db446",
      "resource": {
        "resourceType": "MedicationRequest",
        "id": "c97a6538-6742-45a3-a229-2e0e792db446",
        "meta": {
          "profile": [
            "https://fhir.kbv.de/StructureDefinition/KBV_PR_ERP_Prescription|1.0.2"
          ]
        },
        "extension": [
          {
            "url": "https://fhir.kbv.de/StructureDefinition/KBV_EX_ERP_StatusCoPayment",
            "valueCoding": {
              "system": "https://fhir.kbv.de/CodeSystem/KBV_CS_ERP_StatusCoPayment",
              "code": "0"
            }
          },
          {
            "url": "https://fhir.kbv.de/StructureDefinition/KBV_EX_ERP_EmergencyServicesFee",
            "valueBoolean": false
          },
          {
            "url": "https://fhir.kbv.de/StructureDefinition/KBV_EX_ERP_BVG",
            "valueBoolean": false
          },
          {
            "extension": [
              {
                "url": "Kennzeichen",
                "valueBoolean": false
              }
            ],
            "url": "https://fhir.kbv.de/StructureDefinition/KBV_EX_ERP_Multiple_Prescription"
          }
        ],
        "status": "active",
        "intent": "order",
        "medicationReference": {
          "reference": "Medication/fd681c2a-6f35-4fa9-8c84-573157130773"
        },
        "subject": {
          "reference": "Patient/1d36152b-40c6-4aeb-a552-86a4d3277edc"
        },
        "authoredOn": "2022-07-24",
        "requester": {
          "reference": "Practitioner/667ffd79-42a3-4002-b7ca-6b9098f20ccb"
        },
        "insurance": [
          {
            "reference": "Coverage/e51239e1-ba74-48e0-97fb-9754d2b05c60"
          }
        ],
        "dosageInstruction": [
          {
            "patientInstruction": "zur ärztlichen parenteralen Applikation gem. Therapieplan"
          }
        ],
        "dispenseRequest": {
          "quantity": {
            "value": 3,
            "system": "http://unitsofmeasure.org",
            "code": "{Package}"
          }
        },
        "substitution": {
          "allowedBoolean": true
        }
      }
    },
    {
      "fullUrl": "http://pvs.praxis.local/fhir/Medication/fd681c2a-6f35-4fa9-8c84-573157130773",
      "resource": {
        "resourceType": "Medication",
        "id": "fd681c2a-6f35-4fa9-8c84-573157130773",
        "meta": {
          "profile": [
            "https://fhir.kbv.de/StructureDefinition/KBV_PR_ERP_Medication_Compounding|1.0.2"
          ]
        },
        "extension": [
          {
            "url": "https://fhir.kbv.de/StructureDefinition/KBV_EX_ERP_Medication_Category",
            "valueCoding": {
              "system": "https://fhir.kbv.de/CodeSystem/KBV_CS_ERP_Medication_Category",
              "code": "00"
            }
          },
          {
            "url": "https://fhir.kbv.de/StructureDefinition/KBV_EX_ERP_Medication_Vaccine",
            "valueBoolean": false
          }
        ],
        "code": {
          "coding": [
            {
              "system": "https://fhir.kbv.de/CodeSystem/KBV_CS_ERP_Medication_Type",
              "code": "rezeptur"
            }
          ]
        },
        "form": {
          "text": "Infusionslösung"
        },
        "amount": {
          "numerator": {
            "value": 500,
            "unit": "ml"
          },
          "denominator": {
            "value": 1
          }
        },
        "ingredient": [
          {
            "itemCodeableConcept": {
              "text": "Etoposid"
            },
            "strength": {
              "numerator": {
                "value": 180,
                "unit": "mg"
              },
              "denominator": {
                "value": 1
              }
            }
          },
          {
            "itemCodeableConcept": {
              "text": "NaCl 0,9 %"
            },
            "strength": {
              "numerator": {
                "value": 500,
                "unit": "ml"
              },
              "denominator": {
                "value": 1
              }
            }
          }
        ]
      }
    },
    {
      "fullUrl": "http://pvs.praxis.local/fhir/Patient/1d36152b-40c6-4aeb-a552-86a4d3277edc",
      "resource": {
        "resourceType": "Patient",
        "id": "1d36152b-40c6-4aeb-a552-86a4d3277edc",
        "meta": {
          "profile": [
            "https://fhir.kbv.de/StructureDefinition/KBV_PR_FOR_Patient|1.0.3"
          ]
        },
        "identifier": [
          {
            "type": {
              "coding": [
                {
                  "system": "http://fhir.de/CodeSystem/identifier-type-de-basis",
                  "code": "GKV"
                }
              ]
            },
            "system": "http://fhir.de/NamingSystem/gkv/kvid-10",
            "value": "H030170228"
          }
        ],
        "name": [
          {
            "use": "official",
            "family": "Grossherzog von und zu der Schaumbërg-von-und-zu-Schaumburg-und-Radëberg",
            "_family": {
              "extension": [
                {
                  "url": "http://fhir.de/StructureDefinition/humanname-namenszusatz",
                  "valueString": "Grossherzog"
                },
                {
                  "url": "http://hl7.org/fhir/StructureDefinition/humanname-own-prefix",
                  "valueString": "von und zu der"
                },
                {
                  "url": "http://hl7.org/fhir/StructureDefinition/humanname-own-name",
                  "valueString": "Schaumbërg-von-und-zu-Schaumburg-und-Radëberg"
                }
              ]
            },
            "given": [
              "Friëdrich-Wilhelm-Karl-Gustav-Justus-Gotfried"
            ],
            "prefix": [
              "Prof. habil. Dr. med"
            ],
            "_prefix": [
              {
                "extension": [
                  {
                    "url": "http://hl7.org/fhir/StructureDefinition/iso21090-EN-qualifier",
                    "valueCode": "AC"
                  }
                ]
              }
            ]
          }
        ],
        "birthDate": "1951-07-12",
        "address": [
          {
            "type": "postal",
            "line": [
              "124589"
            ],
            "_line": [
              {
                "extension": [
                  {
                    "url": "http://hl7.org/fhir/StructureDefinition/iso21090-ADXP-postBox",
                    "valueString": "124589"
                  }
                ]
              }
            ],
            "city": "Berlin",
            "postalCode": "12489",
            "country": "D"
          }
        ]
      }
    },
    {
      "fullUrl": "http://pvs.praxis.local/fhir/Practitioner/667ffd79-42a3-4002-b7ca-6b9098f20ccb",
      "resource": {
        "resourceType": "Practitioner",
        "id": "667ffd79-42a3-4002-b7ca-6b9098f20ccb",
        "meta": {
          "profile": [
            "https://fhir.kbv.de/StructureDefinition/KBV_PR_FOR_Practitioner|1.0.3"
          ]
        },
        "identifier": [
          {
            "type": {
              "coding": [
                {
                  "system": "http://terminology.hl7.org/CodeSystem/v2-0203",
                  "code": "LANR"
                }
              ]
            },
            "system": "https://fhir.kbv.de/NamingSystem/KBV_NS_Base_ANR",
            "value": "987654423"
          }
        ],
        "name": [
          {
            "use": "official",
            "family": "Schneider",
            "_family": {
              "extension": [
                {
                  "url": "http://hl7.org/fhir/StructureDefinition/humanname-own-name",
                  "valueString": "Schneider"
                }
              ]
            },
            "given": [
              "Emma"
            ],
            "prefix": [
              "Dr. med."
            ],
            "_prefix": [
              {
                "extension": [
                  {
                    "url": "http://hl7.org/fhir/StructureDefinition/iso21090-EN-qualifier",
                    "valueCode": "AC"
                  }
                ]
              }
            ]
          }
        ],
        "qualification": [
          {
            "code": {
              "coding": [
                {
                  "system": "https://fhir.kbv.de/CodeSystem/KBV_CS_FOR_Qualification_Type",
                  "code": "00"
                }
              ]
            }
          },
          {
            "code": {
              "text": "Fachärztin für Innere Medizin"
            }
          }
        ]
      }
    },
    {
      "fullUrl": "http://pvs.praxis.local/fhir/Organization/5d3f4ac0-2b44-4d48-b363-e63efa72973b",
      "resource": {
        "resourceType": "Organization",
        "id": "5d3f4ac0-2b44-4d48-b363-e63efa72973b",
        "meta": {
          "profile": [
            "https://fhir.kbv.de/StructureDefinition/KBV_PR_FOR_Organization|1.0.3"
          ]
        },
        "identifier": [
          {
            "type": {
              "coding": [
                {
                  "system": "http://terminology.hl7.org/CodeSystem/v2-0203",
                  "code": "BSNR"
                }
              ]
            },
            "system": "https://fhir.kbv.de/NamingSystem/KBV_NS_Base_BSNR",
            "value": "721111100"
          }
        ],
        "name": "MVZ",
        "telecom": [
          {
            "system": "phone",
            "value": "0301234567"
          },
          {
            "system": "fax",
            "value": "030123456789"
          },
          {
            "system": "email",
            "value": "mvz@e-mail.de"
          }
        ],
        "address": [
          {
            "type": "both",
            "line": [
              "Herbert-Lewin-Platz 2"
            ],
            "_line": [
              {
                "extension": [
                  {
                    "url": "http://hl7.org/fhir/StructureDefinition/iso21090-ADXP-houseNumber",
                    "valueString": "2"
                  },
                  {
                    "url": "http://hl7.org/fhir/StructureDefinition/iso21090-ADXP-streetName",
                    "valueString": "Herbert-Lewin-Platz"
                  }
                ]
              }
            ],
            "city": "Berlin",
            "postalCode": "10623",
            "country": "D"
          }
        ]
      }
    },
    {
      "fullUrl": "http://pvs.praxis.local/fhir/Coverage/e51239e1-ba74-48e0-97fb-9754d2b05c60",
      "resource": {
        "resourceType": "Coverage",
        "id": "e51239e1-ba74-48e0-97fb-9754d2b05c60",
        "meta": {
          "profile": [
            "https://fhir.kbv.de/StructureDefinition/KBV_PR_FOR_Coverage|1.0.3"
          ]
        },
        "extension": [
          {
            "url": "http://fhir.de/StructureDefinition/gkv/besondere-personengruppe",
            "valueCoding": {
              "system": "https://fhir.kbv.de/CodeSystem/KBV_CS_SFHIR_KBV_PERSONENGRUPPE",
              "code": "00"
            }
          },
          {
            "url": "http://fhir.de/StructureDefinition/gkv/dmp-kennzeichen",
            "valueCoding": {
              "system": "https://fhir.kbv.de/CodeSystem/KBV_CS_SFHIR_KBV_DMP",
              "code": "00"
            }
          },
          {
            "url": "http://fhir.de/StructureDefinition/gkv/wop",
            "valueCoding": {
              "system": "https://fhir.kbv.de/CodeSystem/KBV_CS_SFHIR_ITA_WOP",
              "code": "72"
            }
          },
          {
            "url": "http://fhir.de/StructureDefinition/gkv/versichertenart",
            "valueCoding": {
              "system": "https://fhir.kbv.de/CodeSystem/KBV_CS_SFHIR_KBV_VERSICHERTENSTATUS",
              "code": "1"
            }
          }
        ],
        "status": "active",
        "type": {
          "coding": [
            {
              "system": "http://fhir.de/CodeSystem/versicherungsart-de-basis",
              "code": "GKV"
            }
          ]
        },
        "beneficiary": {
          "reference": "Patient/1d36152b-40c6-4aeb-a552-86a4d3277edc"
        },
        "period": {
          "end": "2034-12-31"
        },
        "payor": [
          {
            "identifier": {
              "system": "http://fhir.de/NamingSystem/arge-ik/iknr",
              "value": "108035612"
            },
            "display": "mhplus Betriebskrankenkasse"
          }
        ]
      }
    }
  ]
}