{
  "resourceType": "Bundle",
  "id": "fb16b9fb-eca9-4a64-b257-083ac87c9c9c",
  "meta": {
    "profile": [
      "http://fhir.abda.de/eRezeptAbgabedaten/StructureDefinition/DAV-PR-ERP-AbgabedatenBundle|1.2"
    ],
    "tag": [
      {
        "display": "Beispiel für Abgabedaten - Zytostatika parenterale Zubereitung (dae573db-54e3-4cb8-880d-0a46bea8aea1)"
      },
      {
        "display": "ACHTUNG! Der fachlich korrekte Inhalt der Beispielinstanz kann nicht gewährleistet werden. Wir sind jederzeit dankbar für Hinweise auf Fehler oder für Verbesserungsvorschläge."
      }
    ]
  },
  "identifier": {
    "system": "https://gematik.de/fhir/NamingSystem/PrescriptionID",
    "value": "160.100.000.000.026.61"
  },
  "type": "document",
  "timestamp": "2022-07-27T15:30:00+00:00",
  "entry": [
    {
      "fullUrl": "urn:uuid:ed487041-66d2-4ddd-9ae7-2f9f17bca602",
      "resource": {
        "resourceType": "Composition",
        "id": "ed487041-66d2-4ddd-9ae7-2f9f17bca602",
        "meta": {
          "profile": [
            "http://fhir.abda.de/eRezeptAbgabedaten/StructureDefinition/DAV-PR-ERP-AbgabedatenComposition|1.2"
          ]
        },
        "status": "final",
        "type": {
          "coding": [
            {
              "system": "http://fhir.abda.de/eRezeptAbgabedaten/CodeSystem/DAV-CS-ERP-CompositionTypes",
              "code": "ERezeptAbgabedaten"
            }
          ]
        },
        "date": "2022-07-27T15:30:00Z",
        "author": [
          {
            "reference": "urn:uuid:db08a05f-c8fc-41c2-bb8c-e102ed183c8e"
          }
        ],
        "title": "ERezeptAbgabedaten",
        "section": [
          {
            "title": "Abgabeinformationen",
            "entry": [
              {
                "reference": "urn:uuid:f55a27da-6f2e-4f99-b8a8-fa05b6ed4658"
              }
            ]
          },
          {
            "title": "Apotheke",
            "entry": [
              {
                "reference": "urn:uuid:db08a05f-c8fc-41c2-bb8c-e102ed183c8e"
              }
            ]
          }
        ]
      }
    },
    {
      "fullUrl": "urn:uuid:db08a05f-c8fc-41c2-bb8c-e102ed183c8e",
      "resource": {
        "resourceType": "Organization",
        "id": "db08a05f-c8fc-41c2-bb8c-e102ed183c8e",
        "meta": {
          "profile": [
            "http://fhir.abda.de/eRezeptAbgabedaten/StructureDefinition/DAV-PR-ERP-Apotheke|1.2"
          ]
        },
        "identifier": [
          {
            "system": "http://fhir.de/NamingSystem/arge-ik/iknr",
            "value": "987654321"
          }
        ],
        "name": "Apotheke am Nordbahnhof",
        "address": [
          {
            "type": "physical",
            "line": [
              "Elisabeth-Schwarzhaupt-Platz 27a"
            ],
            "_line": [
              {
                "extension": [
                  {
                    "url": "http://hl7.org/fhir/StructureDefinition/iso21090-ADXP-streetName",
                    "valueString": "Elisabeth-Schwarzhaupt-Platz"
                  },
                  {
                    "url": "http://hl7.org/fhir/StructureDefinition/iso21090-ADXP-houseNumber",
                    "valueString": "27a"
                  }
                ]
              }
            ],
            "city": "Berlin",
            "postalCode": "10115",
            "country": "D"
          }
        ]
      }
    },
    {
      "fullUrl": "urn:uuid:f55a27da-6f2e-4f99-b8a8-fa05b6ed4658",
      "resource": {
        "resourceType": "MedicationDispense",
        "id": "f55a27da-6f2e-4f99-b8a8-fa05b6ed4658",
        "meta": {
          "profile": [
            "http://fhir.abda.de/eRezeptAbgabedaten/StructureDefinition/DAV-PR-ERP-Abgabeinformationen|1.2"
          ]
        },
        "extension": [
          {
            "url": "http://fhir.abda.de/eRezeptAbgabedaten/StructureDefinition/DAV-EX-ERP-Abrechnungszeilen",
            "valueReference": {
              "reference": "urn:uuid:e8b45420-3a72-49ce-9a7d-910cf8209f02"
            }
          },
          {
            "url": "http://fhir.abda.de/eRezeptAbgabedaten/StructureDefinition/DAV-EX-ERP-ZusatzdatenHerstellung",
            "valueReference": {
              "reference": "urn:uuid:9c0dce2f-64ae-4e7a-b045-e844ece179aa"
            }
          },
          {
            "url": "http://fhir.abda.de/eRezeptAbgabedaten/StructureDefinition/DAV-EX-ERP-ZusatzdatenHerstellung",
            "valueReference": {
              "reference": "urn:uuid:d2e8d102-8d97-4f98-9c7e-7bf9bb28c45f"
            }
          },
          {
            "url": "http://fhir.abda.de/eRezeptAbgabedaten/StructureDefinition/DAV-EX-ERP-ZusatzdatenHerstellung",
            "valueReference": {
              "reference": "urn:uuid:0cfa6ede-c883-4aaf-957b-9b27e9d31c4d"
            }
          }
        ],
        "status": "completed",
        "medicationCodeableConcept": {
          "coding": [
            {
              "system": "http://terminology.hl7.org/CodeSystem/data-absent-reason",
              "code": "not-applicable"
            }
          ]
        },
        "performer": [
          {
            "actor": {
              "reference": "urn:uuid:db08a05f-c8fc-41c2-bb8c-e102ed183c8e"
            }
          }
        ],
        "authorizingPrescription": [
          {
            "identifier": {
              "system": "https://gematik.de/fhir/NamingSystem/PrescriptionID",
              "value": "160.100.000.000.026.61"
            }
          }
        ],
        "type": {
          "coding": [
            {
              "system": "http://fhir.abda.de/eRezeptAbgabedaten/CodeSystem/DAV-CS-ERP-MedicationDispenseTyp",
              "code": "Abgabeinformationen"
            }
          ]
        },
        "whenHandedOver": "2022-07-27"
      }
    },
    {
      "fullUrl": "urn:uuid:e8b45420-3a72-49ce-9a7d-910cf8209f02",
      "resource": {
        "resourceType": "Invoice",
        "id": "e8b45420-3a72-49ce-9a7d-910cf8209f02",
        "meta": {
          "profile": [
            "http://fhir.abda.de/eRezeptAbgabedaten/StructureDefinition/DAV-PR-ERP-Abrechnungszeilen|1.2"
          ]
        },
        "status": "issued",
        "type": {
          "coding": [
            {
              "system": "http://fhir.abda.de/eRezeptAbgabedaten/CodeSystem/DAV-CS-ERP-InvoiceTyp",
              "code": "Abrechnungszeilen"
            }
          ]
        },
        "lineItem": [
          {
            "sequence": 1,
            "chargeItemCodeableConcept": {
              "coding": [
                {
                  "system": "http://TA1.abda.de",
                  "code": "09999092"
                }
              ]
            },
            "priceComponent": [
              {
                "extension": [
                  {
                    "url": "http://fhir.abda.de/eRezeptAbgabedaten/StructureDefinition/DAV-EX-ERP-MwStSatz",
                    "valueDecimal": 19.00
                  },
                  {
                    "extension": [
                      {
                        "url": "Kategorie",
                        "valueCodeableConcept": {
                          "coding": [
                            {
                              "system": "http://fhir.abda.de/eRezeptAbgabedaten/CodeSystem/DAV-CS-ERP-KostenVersicherterKategorie",
                              "code": "0"
                            }
                          ]
                        }
                      },
                      {
                        "url": "Kostenbetrag",
                        "valueMoney": {
                          "value": 10.00,
                          "currency": "EUR"
                        }
                      }
                    ],
                    "url": "http://fhir.abda.de/eRezeptAbgabedaten/StructureDefinition/DAV-EX-ERP-KostenVersicherter"
                  }
                ],
                "type": "informational",
                "factor": 1,
                "amount": {
                  "value": 357.04,
                  "currency": "EUR"
                }
              }
            ]
          }
        ],
        "totalGross": {
          "extension": [
            {
              "url": "http://fhir.abda.de/eRezeptAbgabedaten/StructureDefinition/DAV-EX-ERP-Gesamtzuzahlung",
              "valueMoney": {
                "value": 10.00,
                "currency": "EUR"
              }
            }
          ],
          "value": 357.04,
          "currency": "EUR"
        }
      }
    },
    {
      "fullUrl": "urn:uuid:9c0dce2f-64ae-4e7a-b045-e844ece179aa",
      "resource": {
        "resourceType": "MedicationDispense",
        "id": "9c0dce2f-64ae-4e7a-b045-e844ece179aa",
        "meta": {
          "profile": [
            "http://fhir.abda.de/eRezeptAbgabedaten/StructureDefinition/DAV-PR-ERP-ZusatzdatenHerstellung|1.2"
          ]
        },
        "extension": [
          {
            "url": "http://fhir.abda.de/eRezeptAbgabedaten/StructureDefinition/DAV-EX-ERP-Zaehler",
            "valuePositiveInt": 1
          },
          {
            "url": "http://fhir.abda.de/eRezeptAbgabedaten/StructureDefinition/DAV-EX-ERP-ZusatzdatenEinheit",
            "valueReference": {
              "reference": "urn:uuid:b0cddb34-0ab6-4b66-a171-f1532541248d"
            }
          }
        ],
        "status": "completed",
        "medicationCodeableConcept": {
          "coding": [
            {
              "system": "http://terminology.hl7.org/CodeSystem/data-absent-reason",
              "code": "not-applicable"
            }
          ]
        },
        "performer": [
          {
            "function": {
              "coding": [
                {
                  "system": "http://fhir.abda.de/eRezeptAbgabedaten/CodeSystem/DAV-CS-ERP-ZusatzdatenHerstellungHerstellerSchluessel",
                  "code": "2"
                }
              ]
            },
            "actor": {
              "identifier": {
                "system": "http://fhir.abda.de/Identifier/DAV-Herstellerschluessel",
                "value": "999123456"
              }
            }
          }
        ],
        "type": {
          "coding": [
            {
              "system": "http://fhir.abda.de/eRezeptAbgabedaten/CodeSystem/DAV-CS-ERP-MedicationDispenseTyp",
              "code": "ZusatzdatenHerstellung"
            }
          ]
        },
        "whenPrepared": "2022-05-25T12:00:00Z"
      }
    },
    {
      "fullUrl": "urn:uuid:d2e8d102-8d97-4f98-9c7e-7bf9bb28c45f",
      "resource": {
        "resourceType": "MedicationDispense",
        "id": "d2e8d102-8d97-4f98-9c7e-7bf9bb28c45f",
        "meta": {
          "profile": [
            "http://fhir.abda.de/eRezeptAbgabedaten/StructureDefinition/DAV-PR-ERP-ZusatzdatenHerstellung|1.2"
          ]
        },
        "extension": [
          {
            "url": "http://fhir.abda.de/eRezeptAbgabedaten/StructureDefinition/DAV-EX-ERP-Zaehler",
            "valuePositiveInt": 2
          },
          {
            "url": "http://fhir.abda.de/eRezeptAbgabedaten/StructureDefinition/DAV-EX-ERP-ZusatzdatenEinheit",
            "valueReference": {
              "reference": "urn:uuid:22427fd6-a790-4c52-8f14-11a424534083"
            }
          }
        ],
        "status": "completed",
        "medicationCodeableConcept": {
          "coding": [
            {
              "system": "http://terminology.hl7.org/CodeSystem/data-absent-reason",
              "code": "not-applicable"
            }
          ]
        },
        "performer": [
          {
            "function": {
              "coding": [
                {
                  "system": "http://fhir.abda.de/eRezeptAbgabedaten/CodeSystem/DAV-CS-ERP-ZusatzdatenHerstellungHerstellerSchluessel",
                  "code": "2"
                }
              ]
            },
            "actor": {
              "identifier": {
                "system": "http://fhir.abda.de/Identifier/DAV-Herstellerschluessel",
                "value": "999123456"
              }
            }
          }
        ],
        "type": {
          "coding": [
            {
              "system": "http://fhir.abda.de/eRezeptAbgabedaten/CodeSystem/DAV-CS-ERP-MedicationDispenseTyp",
              "code": "ZusatzdatenHerstellung"
            }
          ]
        },
        "whenPrepared": "2022-05-26T09:00:00Z"
      }
    },
    {
      "fullUrl": "urn:uuid:0cfa6ede-c883-4aaf-957b-9b27e9d31c4d",
      "resource": {
        "resourceType": "MedicationDispense",
        "id": "0cfa6ede-c883-4aaf-957b-9b27e9d31c4d",
        "meta": {
          "profile": [
            "http://fhir.abda.de/eRezeptAbgabedaten/StructureDefinition/DAV-PR-ERP-ZusatzdatenHerstellung|1.2"
          ]
        },
        "extension": [
          {
            "url": "http://fhir.abda.de/eRezeptAbgabedaten/StructureDefinition/DAV-EX-ERP-Zaehler",
            "valuePositiveInt": 3
          },
          {
            "url": "http://fhir.abda.de/eRezeptAbgabedaten/StructureDefinition/DAV-EX-ERP-ZusatzdatenEinheit",
            "valueReference": {
              "reference": "urn:uuid:eab757f2-7453-4692-9822-c096e3f80a03"
            }
          }
        ],
        "status": "completed",
        "medicationCodeableConcept": {
          "coding": [
            {
              "system": "http://terminology.hl7.org/CodeSystem/data-absent-reason",
              "code": "not-applicable"
            }
          ]
        },
        "performer": [
          {
            "function": {
              "coding": [
                {
                  "system": "http://fhir.abda.de/eRezeptAbgabedaten/CodeSystem/DAV-CS-ERP-ZusatzdatenHerstellungHerstellerSchluessel",
                  "code": "2"
                }
              ]
            },
            "actor": {
              "identifier": {
                "system": "http://fhir.abda.de/Identifier/DAV-Herstellerschluessel",
                "value": "999123456"
              }
            }
          }
        ],
        "type": {
          "coding": [
            {
              "system": "http://fhir.abda.de/eRezeptAbgabedaten/CodeSystem/DAV-CS-ERP-MedicationDispenseTyp",
              "code": "ZusatzdatenHerstellung"
            }
          ]
        },
        "whenPrepared": "2022-07-27T10:00:00Z"
      }
    },
    {
      "fullUrl": "urn:uuid:b0cddb34-0ab6-4b66-a171-f1532541248d",
      "resource": {
        "resourceType": "Invoice",
        "id": "b0cddb34-0ab6-4b66-a171-f1532541248d",
        "meta": {
          "profile": [
            "http://fhir.abda.de/eRezeptAbgabedaten/StructureDefinition/DAV-PR-ERP-ZusatzdatenEinheit|1.2"
          ]
        },
        "extension": [
          {
            "url": "http://fhir.abda.de/eRezeptAbgabedaten/StructureDefinition/DAV-EX-ERP-Zaehler",
            "valuePositiveInt": 1
          }
        ],
        "status": "issued",
        "type": {
          "coding": [
            {
              "system": "http://fhir.abda.de/eRezeptAbgabedaten/CodeSystem/DAV-CS-ERP-InvoiceTyp",
              "code": "ZusatzdatenEinheit"
            }
          ]
        },
        "lineItem": [
          {
            "extension": [
              {
                "url": "http://fhir.abda.de/eRezeptAbgabedaten/StructureDefinition/DAV-EX-ERP-Chargenbezeichnung",
                "valueString": "C123456789-1"
              }
            ],
            "sequence": 1,
            "chargeItemCodeableConcept": {
              "coding": [
                {
                  "system": "http://fhir.de/CodeSystem/ifa/pzn",
                  "code": "01131365"
                }
              ]
            },
            "priceComponent": [
              {
                "extension": [
                  {
                    "url": "http://fhir.abda.de/eRezeptAbgabedaten/StructureDefinition/DAV-EX-ERP-ZusatzdatenPreiskennzeichen",
                    "valueCodeableConcept": {
                      "coding": [
                        {
                          "system": "http://fhir.abda.de/eRezeptAbgabedaten/CodeSystem/DAV-CS-ERP-ZusatzdatenEinheitPreiskennzeichen",
                          "code": "14"
                        }
                      ]
                    }
                  },
                  {
                    "url": "http://fhir.abda.de/eRezeptAbgabedaten/StructureDefinition/DAV-EX-ERP-ZusatzdatenFaktorkennzeichen",
                    "valueCodeableConcept": {
                      "coding": [
                        {
                          "system": "http://fhir.abda.de/eRezeptAbgabedaten/CodeSystem/DAV-CS-ERP-ZusatzdatenEinheitFaktorkennzeichen",
                          "code": "11"
                        }
                      ]
                    }
                  }
                ],
                "type": "informational",
                "factor": 360,
                "amount": {
                  "value": 17.33,
                  "currency": "EUR"
                }
              }
            ]
          },
          {
            "sequence": 2,
            "chargeItemCodeableConcept": {
              "coding": [
                {
                  "system": "http://fhir.de/CodeSystem/ifa/pzn",
                  "code": "09477471"
                }
              ]
            },
            "priceComponent": [
              {
                "extension": [
                  {
                    "url": "http://fhir.abda.de/eRezeptAbgabedaten/StructureDefinition/DAV-EX-ERP-ZusatzdatenPreiskennzeichen",
                    "valueCodeableConcept": {
                      "coding": [
                        {
                          "system": "http://fhir.abda.de/eRezeptAbgabedaten/CodeSystem/DAV-CS-ERP-ZusatzdatenEinheitPreiskennzeichen",
                          "code": "14"
                        }
                      ]
                    }
                  },
                  {
                    "url": "http://fhir.abda.de/eRezeptAbgabedaten/StructureDefinition/DAV-EX-ERP-ZusatzdatenFaktorkennzeichen",
                    "valueCodeableConcept": {
                      "coding": [
                        {
                          "system": "http://fhir.abda.de/eRezeptAbgabedaten/CodeSystem/DAV-CS-ERP-ZusatzdatenEinheitFaktorkennzeichen",
                          "code": "11"
                        }
                      ]
                    }
                  }
                ],
                "type": "informational",
                "factor": 50,
                "amount": {
                  "value": 1.36,
                  "currency": "EUR"
                }
              }
            ]
          },
          {
            "sequence": 3,
            "chargeItemCodeableConcept": {
              "coding": [
                {
                  "system": "http://TA1.abda.de",
                  "code": "06460518"
                }
              ]
            },
            "priceComponent": [
              {
                "extension": [
                  {
                    "url": "http://fhir.abda.de/eRezeptAbgabedaten/StructureDefinition/DAV-EX-ERP-ZusatzdatenPreiskennzeichen",
                    "valueCodeableConcept": {
                      "coding": [
                        {
                          "system": "http://fhir.abda.de/eRezeptAbgabedaten/CodeSystem/DAV-CS-ERP-ZusatzdatenEinheitPreiskennzeichen",
                          "code": "74"
                        }
                      ]
                    }
                  },
                  {
                    "url": "http://fhir.abda.de/eRezeptAbgabedaten/StructureDefinition/DAV-EX-ERP-ZusatzdatenFaktorkennzeichen",
                    "valueCodeableConcept": {
                      "coding": [
                        {
                          "system": "http://fhir.abda.de/eRezeptAbgabedaten/CodeSystem/DAV-CS-ERP-ZusatzdatenEinheitFaktorkennzeichen",
                          "code": "11"
                        }
                      ]
                    }
                  }
                ],
                "type": "informational",
                "factor": 1000,
                "amount": {
                  "value": 81.00,
                  "currency": "EUR"
                }
              }
            ]
          }
        ]
      }
    },
    {
      "fullUrl": "urn:uuid:22427fd6-a790-4c52-8f14-11a424534083",
      "resource": {
        "resourceType": "Invoice",
        "id": "22427fd6-a790-4c52-8f14-11a424534083",
        "meta": {
          "profile": [
            "http://fhir.abda.de/eRezeptAbgabedaten/StructureDefinition/DAV-PR-ERP-ZusatzdatenEinheit|1.2"
          ]
        },
        "extension": [
          {
            "url": "http://fhir.abda.de/eRezeptAbgabedaten/StructureDefinition/DAV-EX-ERP-Zaehler",
            "valuePositiveInt": 1
          }
        ],
        "status": "issued",
        "type": {
          "coding": [
            {
              "system": "http://fhir.abda.de/eRezeptAbgabedaten/CodeSystem/DAV-CS-ERP-InvoiceTyp",
              "code": "ZusatzdatenEinheit"
            }
          ]
        },
        "lineItem": [
          {
            "extension": [
              {
                "url": "http://fhir.abda.de/eRezeptAbgabedaten/StructureDefinition/DAV-EX-ERP-Chargenbezeichnung",
                "valueString": "C123456789-1"
              }
            ],
            "sequence": 1,
            "chargeItemCodeableConcept": {
              "coding": [
                {
                  "system": "http://fhir.de/CodeSystem/ifa/pzn",
                  "code": "01131365"
                }
              ]
            },
            "priceComponent": [
              {
                "extension": [
                  {
                    "url": "http://fhir.abda.de/eRezeptAbgabedaten/StructureDefinition/DAV-EX-ERP-ZusatzdatenPreiskennzeichen",
                    "valueCodeableConcept": {
                      "coding": [
                        {
                          "system": "http://fhir.abda.de/eRezeptAbgabedaten/CodeSystem/DAV-CS-ERP-ZusatzdatenEinheitPreiskennzeichen",
                          "code": "14"
                        }
                      ]
                    }
                  },
                  {
                    "url": "http://fhir.abda.de/eRezeptAbgabedaten/StructureDefinition/DAV-EX-ERP-ZusatzdatenFaktorkennzeichen",
                    "valueCodeableConcept": {
                      "coding": [
                        {
                          "system": "http://fhir.abda.de/eRezeptAbgabedaten/CodeSystem/DAV-CS-ERP-ZusatzdatenEinheitFaktorkennzeichen",
                          "code": "11"
                        }
                      ]
                    }
                  }
                ],
                "type": "informational",
                "factor": 360,
                "amount": {
                  "value": 17.33,
                  "currency": "EUR"
                }
              }
            ]
          },
          {
            "sequence": 2,
            "chargeItemCodeableConcept": {
              "coding": [
                {
                  "system": "http://fhir.de/CodeSystem/ifa/pzn",
                  "code": "09477471"
                }
              ]
            },
            "priceComponent": [
              {
                "extension": [
                  {
                    "url": "http://fhir.abda.de/eRezeptAbgabedaten/StructureDefinition/DAV-EX-ERP-ZusatzdatenPreiskennzeichen",
                    "valueCodeableConcept": {
                      "coding": [
                        {
                          "system": "http://fhir.abda.de/eRezeptAbgabedaten/CodeSystem/DAV-CS-ERP-ZusatzdatenEinheitPreiskennzeichen",
                          "code": "14"
                        }
                      ]
                    }
                  },
                  {
                    "url": "http://fhir.abda.de/eRezeptAbgabedaten/StructureDefinition/DAV-EX-ERP-ZusatzdatenFaktorkennzeichen",
                    "valueCodeableConcept": {
                      "coding": [
                        {
                          "system": "http://fhir.abda.de/eRezeptAbgabedaten/CodeSystem/DAV-CS-ERP-ZusatzdatenEinheitFaktorkennzeichen",
                          "code": "11"
                        }
                      ]
                    }
                  }
                ],
                "type": "informational",
                "factor": 50,
                "amount": {
                  "value": 1.36,
                  "currency": "EUR"
                }
              }
            ]
          },
          {
            "sequence": 3,
            "chargeItemCodeableConcept": {
              "coding": [
                {
                  "system": "http://TA1.abda.de",
                  "code": "06460518"
                }
              ]
            },
            "priceComponent": [
              {
                "extension": [
                  {
                    "url": "http://fhir.abda.de/eRezeptAbgabedaten/StructureDefinition/DAV-EX-ERP-ZusatzdatenPreiskennzeichen",
                    "valueCodeableConcept": {
                      "coding": [
                        {
                          "system": "http://fhir.abda.de/eRezeptAbgabedaten/CodeSystem/DAV-CS-ERP-ZusatzdatenEinheitPreiskennzeichen",
                          "code": "74"
                        }
                      ]
                    }
                  },
                  {
                    "url": "http://fhir.abda.de/eRezeptAbgabedaten/StructureDefinition/DAV-EX-ERP-ZusatzdatenFaktorkennzeichen",
                    "valueCodeableConcept": {
                      "coding": [
                        {
                          "system": "http://fhir.abda.de/eRezeptAbgabedaten/CodeSystem/DAV-CS-ERP-ZusatzdatenEinheitFaktorkennzeichen",
                          "code": "11"
                        }
                      ]
                    }
                  }
                ],
                "type": "informational",
                "factor": 1000,
                "amount": {
                  "value": 81.00,
                  "currency": "EUR"
                }
              }
            ]
          }
        ]
      }
    },
    {
      "fullUrl": "urn:uuid:eab757f2-7453-4692-9822-c096e3f80a03",
      "resource": {
        "resourceType": "Invoice",
        "id": "eab757f2-7453-4692-9822-c096e3f80a03",
        "meta": {
          "profile": [
            "http://fhir.abda.de/eRezeptAbgabedaten/StructureDefinition/DAV-PR-ERP-ZusatzdatenEinheit|1.2"
          ]
        },
        "extension": [
          {
            "url": "http://fhir.abda.de/eRezeptAbgabedaten/StructureDefinition/DAV-EX-ERP-Zaehler",
            "valuePositiveInt": 1
          }
        ],
        "status": "issued",
        "type": {
          "coding": [
            {
              "system": "http://fhir.abda.de/eRezeptAbgabedaten/CodeSystem/DAV-CS-ERP-InvoiceTyp",
              "code": "ZusatzdatenEinheit"
            }
          ]
        },
        "lineItem": [
          {
            "extension": [
              {
                "url": "http://fhir.abda.de/eRezeptAbgabedaten/StructureDefinition/DAV-EX-ERP-Chargenbezeichnung",
                "valueString": "C123456789-1"
              }
            ],
            "sequence": 1,
            "chargeItemCodeableConcept": {
              "coding": [
                {
                  "system": "http://fhir.de/CodeSystem/ifa/pzn",
                  "code": "01131365"
                }
              ]
            },
            "priceComponent": [
              {
                "extension": [
                  {
                    "url": "http://fhir.abda.de/eRezeptAbgabedaten/StructureDefinition/DAV-EX-ERP-ZusatzdatenPreiskennzeichen",
                    "valueCodeableConcept": {
                      "coding": [
                        {
                          "system": "http://fhir.abda.de/eRezeptAbgabedaten/CodeSystem/DAV-CS-ERP-ZusatzdatenEinheitPreiskennzeichen",
                          "code": "14"
                        }
                      ]
                    }
                  },
                  {
                    "url": "http://fhir.abda.de/eRezeptAbgabedaten/StructureDefinition/DAV-EX-ERP-ZusatzdatenFaktorkennzeichen",
                    "valueCodeableConcept": {
                      "coding": [
                        {
                          "system": "http://fhir.abda.de/eRezeptAbgabedaten/CodeSystem/DAV-CS-ERP-ZusatzdatenEinheitFaktorkennzeichen",
                          "code": "11"
                        }
                      ]
                    }
                  }
                ],
                "type": "informational",
                "factor": 360,
                "amount": {
                  "value": 17.33,
                  "currency": "EUR"
                }
              }
            ]
          },
          {
            "extension": [
              {
                "url": "http://fhir.abda.de/eRezeptAbgabedaten/StructureDefinition/DAV-EX-ERP-Chargenbezeichnung",
                "valueString": "C123456789-1"
              }
            ],
            "sequence": 2,
            "chargeItemCodeableConcept": {
              "coding": [
                {
                  "system": "http://fhir.de/CodeSystem/ifa/pzn",
                  "code": "01131365"
                }
              ]
            },
            "priceComponent": [
              {
                "extension": [
                  {
                    "url": "http://fhir.abda.de/eRezeptAbgabedaten/StructureDefinition/DAV-EX-ERP-ZusatzdatenPreiskennzeichen",
                    "valueCodeableConcept": {
                      "coding": [
                        {
                          "system": "http://fhir.abda.de/eRezeptAbgabedaten/CodeSystem/DAV-CS-ERP-ZusatzdatenEinheitPreiskennzeichen",
                          "code": "14"
                        }
                      ]
                    }
                  },
                  {
                    "url": "http://fhir.abda.de/eRezeptAbgabedaten/StructureDefinition/DAV-EX-ERP-ZusatzdatenFaktorkennzeichen",
                    "valueCodeableConcept": {
                      "coding": [
                        {
                          "system": "http://fhir.abda.de/eRezeptAbgabedaten/CodeSystem/DAV-CS-ERP-ZusatzdatenEinheitFaktorkennzeichen",
                          "code": "99"
                        }
                      ]
                    }
                  }
                ],
                "type": "informational",
                "factor": 20,
                "amount": {
                  "value": 0.96,
                  "currency": "EUR"
                }
              }
            ]
          },
          {
            "sequence": 3,
            "chargeItemCodeableConcept": {
              "coding": [
                {
                  "system": "http://fhir.de/CodeSystem/ifa/pzn",
                  "code": "09477471"
                }
              ]
            },
            "priceComponent": [
              {
                "extension": [
                  {
                    "url": "http://fhir.abda.de/eRezeptAbgabedaten/StructureDefinition/DAV-EX-ERP-ZusatzdatenPreiskennzeichen",
                    "valueCodeableConcept": {
                      "coding": [
                        {
                          "system": "http://fhir.abda.de/eRezeptAbgabedaten/CodeSystem/DAV-CS-ERP-ZusatzdatenEinheitPreiskennzeichen",
                          "code": "14"
                        }
                      ]
                    }
                  },
                  {
                    "url": "http://fhir.abda.de/eRezeptAbgabedaten/StructureDefinition/DAV-EX-ERP-ZusatzdatenFaktorkennzeichen",
                    "valueCodeableConcept": {
                      "coding": [
                        {
                          "system": "http://fhir.abda.de/eRezeptAbgabedaten/CodeSystem/DAV-CS-ERP-ZusatzdatenEinheitFaktorkennzeichen",
                          "code": "11"
                        }
                      ]
                    }
                  }
                ],
                "type": "informational",
                "factor": 50,
                "amount": {
                  "value": 1.36,
                  "currency": "EUR"
                }
              }
            ]
          },
          {
            "sequence": 4,
            "chargeItemCodeableConcept": {
              "coding": [
                {
                  "system": "http://TA1.abda.de",
                  "code": "06460518"
                }
              ]
            },
            "priceComponent": [
              {
                "extension": [
                  {
                    "url": "http://fhir.abda.de/eRezeptAbgabedaten/StructureDefinition/DAV-EX-ERP-ZusatzdatenPreiskennzeichen",
                    "valueCodeableConcept": {
                      "coding": [
                        {
                          "system": "http://fhir.abda.de/eRezeptAbgabedaten/CodeSystem/DAV-CS-ERP-ZusatzdatenEinheitPreiskennzeichen",
                          "code": "74"
                        }
                      ]
                    }
                  },
                  {
                    "url": "http://fhir.abda.de/eRezeptAbgabedaten/StructureDefinition/DAV-EX-ERP-ZusatzdatenFaktorkennzeichen",
                    "valueCodeableConcept": {
                      "coding": [
                        {
                          "system": "http://fhir.abda.de/eRezeptAbgabedaten/CodeSystem/DAV-CS-ERP-ZusatzdatenEinheitFaktorkennzeichen",
                          "code": "11"
                        }
                      ]
                    }
                  }
                ],
                "type": "informational",
                "factor": 1000,
                "amount": {
                  "value": 81.00,
                  "currency": "EUR"
                }
              }
            ]
          }
        ]
      }
    }
  ]
}