{
  "resourceType": "Parameters",
  "id": "e6cc3391-abce-4056-956f-129324523221",
  "meta": {
    "profile": [
      "https://gematik.de/fhir/erp/StructureDefinition/GEM_ERP_PR_PAR_CloseOperation_Input|1.4"
    ]
  },
  "parameter": [
    {
      "name": "rxDispensation",
      "part": [
        {
          "name": "medicationDispense",
          "resource": {
            "resourceType": "MedicationDispense",
            "id": "d9ae18bb-f979-4799-bd36-8a918daad1e5",
            "meta": {
              "profile": [
                "https://gematik.de/fhir/erp/StructureDefinition/GEM_ERP_PR_MedicationDispense|1.4"
              ]
            },
            "identifier": [
              {
                "system": "https://gematik.de/fhir/erp/NamingSystem/GEM_ERP_NS_PrescriptionId",
                "value": "160.065.873.704.859.46"
              }
            ],
            "status": "completed",
            "medicationReference": {
              "reference": "urn:uuid:26e31584-cea7-431e-a7f5-43fd63d4d897"
            },
            "subject": {
              "identifier": {
                "system": "http://fhir.de/sid/gkv/kvid-10",
                "value": "S040464113"
              }
            },
            "performer": [
              {
                "actor": {
                  "identifier": {
                    "system": "https://gematik.de/fhir/sid/telematik-id",
                    "value": "3-07.2.1234560000.10.789"
                  }
                }
              }
            ],
            "whenHandedOver": "2025-01-19"
          }
        },
        {
          "name": "medication",
          "resource": {
            "resourceType": "Medication",
            "id": "26e31584-cea7-431e-a7f5-43fd63d4d897",
            "meta": {
              "profile": [
                "https://gematik.de/fhir/erp/StructureDefinition/GEM_ERP_PR_Medication|1.4"
              ]
            },
            "contained": [
              {
                "resourceType": "Medication",
                "id": "c2a96376-2dbf-409b-8942-e92607021f79",
                "meta": {
                  "profile": [
                    "https://gematik.de/fhir/epa-medication/StructureDefinition/epa-medication-pharmaceutical-product"
                  ]
                },
                "form": {
                  "coding": [
                    {
                      "system": "https://fhir.kbv.de/CodeSystem/KBV_CS_SFHIR_KBV_DARREICHUNGSFORM",
                      "code": "FTA",
                      "display": "Filmtabletten"
                    }
                  ]
                },
                "ingredient": [
                  {
                    "itemCodeableConcept": {
                      "text": "Abirateron acetat"
                    },
                    "strength": {
                      "numerator": {
                        "value": 500,
                        "unit": "mg",
                        "_system": {
                          "extension": [
                            {
                              "url": "http://hl7.org/fhir/StructureDefinition/data-absent-reason",
                              "valueCode": "unknown"
                            }
                          ]
                        },
                        "_code": {
                          "extension": [
                            {
                              "url": "http://hl7.org/fhir/StructureDefinition/data-absent-reason",
                              "valueCode": "unknown"
                            }
                          ]
                        }
                      },
                      "denominator": {
                        "value": 1,
                        "_system": {
                          "extension": [
                            {
                              "url": "http://hl7.org/fhir/StructureDefinition/data-absent-reason",
                              "valueCode": "unknown"
                            }
                          ]
                        },
                        "_code": {
                          "extension": [
                            {
                              "url": "http://hl7.org/fhir/StructureDefinition/data-absent-reason",
                              "valueCode": "unknown"
                            }
                          ]
                        }
                      }
                    }
                  }
                ]
              },
              {
                "resourceType": "Medication",
                "id": "e6f419ad-af04-4258-ad17-f7e7a16f3fd7",
                "meta": {
                  "profile": [
                    "https://gematik.de/fhir/epa-medication/StructureDefinition/epa-medication-pharmaceutical-product"
                  ]
                },
                "form": {
                  "coding": [
                    {
                      "system": "https://fhir.kbv.de/CodeSystem/KBV_CS_SFHIR_KBV_DARREICHUNGSFORM",
                      "code": "TAB",
                      "display": "Tabletten"
                    }
                  ]
                },
                "ingredient": [
                  {
                    "itemCodeableConcept": {
                      "text": "Prednisolon"
                    },
                    "strength": {
                      "numerator": {
                        "value": 5,
                        "unit": "mg",
                        "_system": {
                          "extension": [
                            {
                              "url": "http://hl7.org/fhir/StructureDefinition/data-absent-reason",
                              "valueCode": "unknown"
                            }
                          ]
                        },
                        "_code": {
                          "extension": [
                            {
                              "url": "http://hl7.org/fhir/StructureDefinition/data-absent-reason",
                              "valueCode": "unknown"
                            }
                          ]
                        }
                      },
                      "denominator": {
                        "value": 1,
                        "_system": {
                          "extension": [
                            {
                              "url": "http://hl7.org/fhir/StructureDefinition/data-absent-reason",
                              "valueCode": "unknown"
                            }
                          ]
                        },
                        "_code": {
                          "extension": [
                            {
                              "url": "http://hl7.org/fhir/StructureDefinition/data-absent-reason",
                              "valueCode": "unknown"
                            }
                          ]
                        }
                      }
                    }
                  }
                ]
              }
            ],
            "code": {
              "coding": [
                {
                  "system": "http://fhir.de/CodeSystem/ifa/pzn",
                  "code": "18027910"
                }
              ],
              "text": "Abirasolon-mHSPC 500 mg 56 FTB + 5 mg 28 TAB"
            },
            "form": {
              "coding": [
                {
                  "system": "https://fhir.kbv.de/CodeSystem/KBV_CS_SFHIR_KBV_DARREICHUNGSFORM",
                  "code": "KPG",
                  "display": "Kombipackung"
                }
              ]
            },
            "amount": {
              "numerator": {
                "extension": [
                  {
                    "url": "https://gematik.de/fhir/epa-medication/StructureDefinition/medication-packaging-size-extension",
                    "valueString": "1"
                  }
                ],
                "unit": "Stück"
              },
              "denominator": {
                "value": 1
              }
            },
            "ingredient": [
              {
                "itemReference": {
                  "reference": "#c2a96376-2dbf-409b-8942-e92607021f79"
                }
              },
              {
                "itemReference": {
                  "reference": "#e6f419ad-af04-4258-ad17-f7e7a16f3fd7"
                }
              }
            ],
            "batch": {
              "lotNumber": "A123456789-1"
            }
          }
        }
      ]
    }
  ]
}