<Bundle xmlns="http://hl7.org/fhir"><id value="50c7c4ea-f268-4bf0-9ee8-590e338e2fd3"/><meta><lastUpdated value="2023-11-27T08:41:48.205+01:00"/><profile value="https://fhir.kbv.de/StructureDefinition/KBV_PR_ERP_Bundle|1.1.0"/></meta><identifier><system value="https://gematik.de/fhir/erp/NamingSystem/GEM_ERP_NS_PrescriptionId"/><value value="209.000.000.025.562.23"/></identifier><type value="document"/><timestamp value="2023-11-27T08:41:48.205+01:00"/><entry><fullUrl value="https://pvs.gematik.de/fhir/Composition/7accf9b1-5536-4085-a7ed-dee4cdb554d3"/><resource><Composition xmlns="http://hl7.org/fhir"><id value="7accf9b1-5536-4085-a7ed-dee4cdb554d3"/><meta><profile value="https://fhir.kbv.de/StructureDefinition/KBV_PR_ERP_Composition|1.1.0"/></meta><extension url="https://fhir.kbv.de/StructureDefinition/KBV_EX_FOR_Legal_basis"><valueCoding><system value="https://fhir.kbv.de/CodeSystem/KBV_CS_SFHIR_KBV_STATUSKENNZEICHEN"/><code value="00"/></valueCoding></extension><status value="final"/><type><coding><system value="https://fhir.kbv.de/CodeSystem/KBV_CS_SFHIR_KBV_FORMULAR_ART"/><code value="e16A"/></coding></type><subject><reference value="Patient/296cb5a3-7f27-4f81-89b4-c95f59736f07"/></subject><date value="2023-11-27T08:41:48+01:00"/><author><reference value="Practitioner/3cc42433-835e-438a-9676-b053da5aa715"/><type value="Practitioner"/></author><author><type value="Device"/><identifier><system value="https://fhir.kbv.de/NamingSystem/KBV_NS_FOR_Pruefnummer"/><value value="GEMATIK/410/2109/36/123"/></identifier></author><title value="elektronische Arzneimittelverordnung"/><custodian><reference value="Organization/118bf780-2c1c-495f-a8ba-1f7bcc1ead27"/></custodian><section><code><coding><system value="https://fhir.kbv.de/CodeSystem/KBV_CS_ERP_Section_Type"/><code value="Coverage"/></coding></code><entry><reference value="Coverage/13517840-f273-4a85-88be-20655c7a5b2b"/></entry></section><section><code><coding><system value="https://fhir.kbv.de/CodeSystem/KBV_CS_ERP_Section_Type"/><code value="Prescription"/></coding></code><entry><reference value="MedicationRequest/714b5bfd-db54-4344-9406-0dad705f14f2"/></entry></section></Composition></resource></entry><entry><fullUrl value="https://pvs.gematik.de/fhir/Medication/68d7a42f-c3a5-4007-ba02-b1c1c518d5b9"/><resource><Medication xmlns="http://hl7.org/fhir"><id value="68d7a42f-c3a5-4007-ba02-b1c1c518d5b9"/><meta><profile value="https://fhir.kbv.de/StructureDefinition/KBV_PR_ERP_Medication_PZN|1.1.0"/></meta><extension url="https://fhir.kbv.de/StructureDefinition/KBV_EX_Base_Medication_Type"><valueCodeableConcept><coding><system value="http://snomed.info/sct"/><version value="http://snomed.info/sct/900000000000207008/version/20220331"/><code value="763158003"/><display value="Medicinal product (product)"/></coding></valueCodeableConcept></extension><extension url="https://fhir.kbv.de/StructureDefinition/KBV_EX_ERP_Medication_Category"><valueCoding><system value="https://fhir.kbv.de/CodeSystem/KBV_CS_ERP_Medication_Category"/><code value="00"/></valueCoding></extension><extension url="https://fhir.kbv.de/StructureDefinition/KBV_EX_ERP_Medication_Vaccine"><valueBoolean value="false"/></extension><extension url="http://fhir.de/StructureDefinition/normgroesse"><valueCode value="NB"/></extension><code><coding><system value="http://fhir.de/CodeSystem/ifa/pzn"/><code value="15805910"/></coding><text value="Zytostatika_WF209"/></code><form><coding><system value="https://fhir.kbv.de/CodeSystem/KBV_CS_SFHIR_KBV_DARREICHUNGSFORM"/><code value="TAB"/></coding></form><amount><numerator><extension url="https://fhir.kbv.de/StructureDefinition/KBV_EX_ERP_Medication_PackagingSize"><valueString value="1"/></extension><unit value="Stk"/></numerator><denominator><value value="1"/></denominator></amount></Medication></resource></entry><entry><fullUrl value="https://pvs.gematik.de/fhir/Patient/296cb5a3-7f27-4f81-89b4-c95f59736f07"/><resource><Patient xmlns="http://hl7.org/fhir"><id value="296cb5a3-7f27-4f81-89b4-c95f59736f07"/><meta><profile value="https://fhir.kbv.de/StructureDefinition/KBV_PR_FOR_Patient|1.1.0"/></meta><identifier><type><coding><system value="http://fhir.de/CodeSystem/identifier-type-de-basis"/><code value="PKV"/></coding></type><system value="http://fhir.de/sid/pkv/kvid-10"/><value value="X110465770"/></identifier><name><use value="official"/><family value="Angermänn"><extension url="http://hl7.org/fhir/StructureDefinition/humanname-own-name"><valueString value="Angermänn"/></extension></family><given value="Günther"/></name><birthDate value="1995-10-23"/><address><type value="both"/><line value="Stöckenstr. 74a"><extension url="http://hl7.org/fhir/StructureDefinition/iso21090-ADXP-houseNumber"><valueString value="74a"/></extension><extension url="http://hl7.org/fhir/StructureDefinition/iso21090-ADXP-streetName"><valueString value="Stöckenstr."/></extension></line><city value="Schön Marah"/><postalCode value="81526"/><country value="D"/></address></Patient></resource></entry><entry><fullUrl value="https://pvs.gematik.de/fhir/Organization/118bf780-2c1c-495f-a8ba-1f7bcc1ead27"/><resource><Organization xmlns="http://hl7.org/fhir"><id value="118bf780-2c1c-495f-a8ba-1f7bcc1ead27"/><meta><profile value="https://fhir.kbv.de/StructureDefinition/KBV_PR_FOR_Organization|1.1.0"/></meta><identifier><type><coding><system value="http://terminology.hl7.org/CodeSystem/v2-0203"/><code value="BSNR"/></coding></type><system value="https://fhir.kbv.de/NamingSystem/KBV_NS_Base_BSNR"/><value value="932556984"/></identifier><name value="Arztpraxis Schraßer"/><telecom><system value="phone"/><value value="(0098) 847156439"/></telecom><telecom><system value="email"/><value value="leoni.schenk@bogenrieder.info"/></telecom><address><type value="both"/><line value="Löchergraben 011"><extension url="http://hl7.org/fhir/StructureDefinition/iso21090-ADXP-houseNumber"><valueString value="011"/></extension><extension url="http://hl7.org/fhir/StructureDefinition/iso21090-ADXP-streetName"><valueString value="Löchergraben"/></extension></line><city value="Jackgrün"/><postalCode value="46570"/><country value="D"/></address></Organization></resource></entry><entry><fullUrl value="https://pvs.gematik.de/fhir/Coverage/13517840-f273-4a85-88be-20655c7a5b2b"/><resource><Coverage xmlns="http://hl7.org/fhir"><id value="13517840-f273-4a85-88be-20655c7a5b2b"/><meta><profile value="https://fhir.kbv.de/StructureDefinition/KBV_PR_FOR_Coverage|1.1.0"/></meta><extension url="http://fhir.de/StructureDefinition/gkv/besondere-personengruppe"><valueCoding><system value="https://fhir.kbv.de/CodeSystem/KBV_CS_SFHIR_KBV_PERSONENGRUPPE"/><code value="00"/></valueCoding></extension><extension url="http://fhir.de/StructureDefinition/gkv/dmp-kennzeichen"><valueCoding><system value="https://fhir.kbv.de/CodeSystem/KBV_CS_SFHIR_KBV_DMP"/><code value="00"/></valueCoding></extension><extension url="http://fhir.de/StructureDefinition/gkv/wop"><valueCoding><system value="https://fhir.kbv.de/CodeSystem/KBV_CS_SFHIR_ITA_WOP"/><code value="00"/></valueCoding></extension><extension url="http://fhir.de/StructureDefinition/gkv/versichertenart"><valueCoding><system value="https://fhir.kbv.de/CodeSystem/KBV_CS_SFHIR_KBV_VERSICHERTENSTATUS"/><code value="1"/></valueCoding></extension><status value="active"/><type><coding><system value="http://fhir.de/CodeSystem/versicherungsart-de-basis"/><code value="PKV"/></coding></type><beneficiary><reference value="Patient/157ce706-544b-4508-8f7d-cf43323aa051"/></beneficiary><payor><identifier><system value="http://fhir.de/sid/arge-ik/iknr"/><value value="168141347"/></identifier><display value="Bayerische Beamtenkrankenkasse"/></payor></Coverage></resource></entry><entry><fullUrl value="https://pvs.gematik.de/fhir/Practitioner/3cc42433-835e-438a-9676-b053da5aa715"/><resource><Practitioner xmlns="http://hl7.org/fhir"><id value="3cc42433-835e-438a-9676-b053da5aa715"/><meta><profile value="https://fhir.kbv.de/StructureDefinition/KBV_PR_FOR_Practitioner|1.1.0"/></meta><identifier><type><coding><system value="http://terminology.hl7.org/CodeSystem/v2-0203"/><code value="LANR"/></coding></type><system value="https://fhir.kbv.de/NamingSystem/KBV_NS_Base_ANR"/><value value="458173305"/></identifier><name><use value="official"/><family value="Schraßer"><extension url="http://hl7.org/fhir/StructureDefinition/humanname-own-name"><valueString value="Schraßer"/></extension></family><given value="Dr."/><prefix value="Dr."><extension url="http://hl7.org/fhir/StructureDefinition/iso21090-EN-qualifier"><valueCode value="AC"/></extension></prefix></name><qualification><code><coding><system value="https://fhir.kbv.de/CodeSystem/KBV_CS_FOR_Qualification_Type"/><code value="00"/></coding></code></qualification><qualification><code><coding><system value="https://fhir.kbv.de/CodeSystem/KBV_CS_FOR_Berufsbezeichnung"/><code value="Berufsbezeichnung"/></coding><text value="Super-Facharzt für alles Mögliche"/></code></qualification></Practitioner></resource></entry><entry><fullUrl value="https://pvs.gematik.de/fhir/MedicationRequest/714b5bfd-db54-4344-9406-0dad705f14f2"/><resource><MedicationRequest xmlns="http://hl7.org/fhir"><id value="714b5bfd-db54-4344-9406-0dad705f14f2"/><meta><profile value="https://fhir.kbv.de/StructureDefinition/KBV_PR_ERP_Prescription|1.1.0"/></meta><extension url="https://fhir.kbv.de/StructureDefinition/KBV_EX_ERP_BVG"><valueBoolean value="false"/></extension><extension url="https://fhir.kbv.de/StructureDefinition/KBV_EX_ERP_EmergencyServicesFee"><valueBoolean value="false"/></extension><extension url="https://fhir.kbv.de/StructureDefinition/KBV_EX_ERP_Multiple_Prescription"><extension url="Kennzeichen"><valueBoolean value="false"/></extension></extension><extension url="https://fhir.kbv.de/StructureDefinition/KBV_EX_FOR_StatusCoPayment"><valueCoding><system value="https://fhir.kbv.de/CodeSystem/KBV_CS_FOR_StatusCoPayment"/><code value="1"/></valueCoding></extension><status value="active"/><intent value="order"/><medicationReference><reference value="Medication/68d7a42f-c3a5-4007-ba02-b1c1c518d5b9"/></medicationReference><subject><reference value="Patient/296cb5a3-7f27-4f81-89b4-c95f59736f07"/></subject><authoredOn value="2023-11-27"/><requester><reference value="Practitioner/3cc42433-835e-438a-9676-b053da5aa715"/></requester><insurance><reference value="Coverage/13517840-f273-4a85-88be-20655c7a5b2b"/></insurance><dosageInstruction><extension url="https://fhir.kbv.de/StructureDefinition/KBV_EX_ERP_DosageFlag"><valueBoolean value="true"/></extension><text value="2-3-1-1-1"/></dosageInstruction><dispenseRequest><quantity><value value="1"/><system value="http://unitsofmeasure.org"/><code value="{Package}"/></quantity></dispenseRequest><substitution><allowedBoolean value="false"/></substitution></MedicationRequest></resource></entry></Bundle>