{
  "resourceType": "Bundle",
  "id": "eba4ca71-0676-4a28-9aa9-d0003d9e7591",
  "meta": {
    "profile": [
      "https://fhir.gkvsv.de/StructureDefinition/GKVSV_PR_TA7_Sammelrechnung_Bundle|1.0.6"
    ],
    "tag": [
      {
        "display": "Beispiel der TA7/eAbrechnungsdaten."
      },
      {
        "display": "ACHTUNG! Der fachlich korrekte Inhalt der Beispielinstanz kann nicht gewährleistet werden. Wir sind jederzeit dankbar für Hinweise auf Fehler oder für Verbesserungsvorschläge."
      }
    ]
  },
  "identifier": {
    "extension": [
      {
        "url": "https://fhir.gkvsv.de/StructureDefinition/GKVSV_EX_ERP_TA7_Dateinummer",
        "valueString": "00002"
      }
    ],
    "system": "https://fhir.gkvsv.de/NamingSystem/GKVSV_NS_Dateiname",
    "value": "ARZFHR21002"
  },
  "type": "document",
  "timestamp": "2021-08-02T10:00:00+00:00",
  "entry": [
    {
      "fullUrl": "urn:uuid:ab91cc79-c652-41ce-b355-b26901da6a16",
      "resource": {
        "resourceType": "Composition",
        "id": "ab91cc79-c652-41ce-b355-b26901da6a16",
        "meta": {
          "profile": [
            "https://fhir.gkvsv.de/StructureDefinition/GKVSV_PR_TA7_Sammelrechnung_Composition|1.0.6"
          ]
        },
        "extension": [
          {
            "url": "https://fhir.gkvsv.de/StructureDefinition/GKVSV_EX_TA7_IK_Empfaenger",
            "valueIdentifier": {
              "system": "http://fhir.de/NamingSystem/arge-ik/iknr",
              "value": "109519005"
            }
          },
          {
            "url": "https://fhir.gkvsv.de/StructureDefinition/GKVSV_EX_TA7_IK_Kostentraeger",
            "valueIdentifier": {
              "system": "http://fhir.de/NamingSystem/arge-ik/iknr",
              "value": "109519005"
            }
          }
        ],
        "status": "final",
        "type": {
          "coding": [
            {
              "system": "https://fhir.gkvsv.de/CodeSystem/GKVSV_CS_ERP_TA7",
              "code": "SR",
              "display": "Sammelrechnung"
            }
          ]
        },
        "date": "2021-07-31",
        "author": [
          {
            "identifier": {
              "system": "http://fhir.de/NamingSystem/arge-ik/iknr",
              "value": "308400023"
            }
          }
        ],
        "title": "elektronische Sammelrechnung",
        "section": [
          {
            "code": {
              "coding": [
                {
                  "system": "https://fhir.gkvsv.de/CodeSystem/GKVSV_CS_ERP_TA7",
                  "code": "LSR",
                  "display": "Liste der Sammelrechnungen"
                }
              ]
            },
            "entry": [
              {
                "reference": "urn:uuid:d496e08d-a223-4b1b-b1ce-3c7fee9a3090"
              }
            ]
          },
          {
            "code": {
              "coding": [
                {
                  "system": "https://fhir.gkvsv.de/CodeSystem/GKVSV_CS_ERP_TA7",
                  "code": "R",
                  "display": "Rechnungen"
                }
              ]
            },
            "entry": [
              {
                "reference": "urn:uuid:f25a1d40-be0d-4415-b0cc-945e7c0cd87f"
              }
            ]
          }
        ]
      }
    },
    {
      "fullUrl": "urn:uuid:d496e08d-a223-4b1b-b1ce-3c7fee9a3090",
      "resource": {
        "resourceType": "List",
        "id": "d496e08d-a223-4b1b-b1ce-3c7fee9a3090",
        "meta": {
          "profile": [
            "https://fhir.gkvsv.de/StructureDefinition/GKVSV_PR_TA7_Sammelrechnung_List|1.0.6"
          ]
        },
        "status": "current",
        "mode": "working",
        "entry": [
          {
            "item": {
              "reference": "Bundle/eba4ca71-0676-4a28-9aa9-d0003d9e7591"
            }
          }
        ]
      }
    },
    {
      "fullUrl": "urn:uuid:f25a1d40-be0d-4415-b0cc-945e7c0cd87f",
      "resource": {
        "resourceType": "Invoice",
        "id": "f25a1d40-be0d-4415-b0cc-945e7c0cd87f",
        "meta": {
          "profile": [
            "https://fhir.gkvsv.de/StructureDefinition/GKVSV_PR_TA7_Rechnung|1.0.6"
          ]
        },
        "extension": [
          {
            "url": "https://fhir.gkvsv.de/StructureDefinition/GKVSV_EX_ERP_TA7_Abrechnungszeitraum",
            "valueDateTime": "2021-07-31"
          },
          {
            "extension": [
              {
                "url": "lineItem",
                "valueReference": {
                  "reference": "urn:uuid:4bceaa1e-48d6-47a9-bf0b-0d28ce4d99ff"
                }
              }
            ],
            "url": "https://fhir.gkvsv.de/StructureDefinition/GKVSV_EX_ERP_RezeptBundleReferenz"
          }
        ],
        "identifier": [
          {
            "system": "https://fhir.gkvsv.de/NamingSystem/GKVSV_NS_Sammelrechnungsnummer",
            "value": "104212506-01-020821"
          }
        ],
        "status": "issued",
        "type": {
          "coding": [
            {
              "system": "https://fhir.gkvsv.de/CodeSystem/GKVSV_CS_ERP_Rechnungsart",
              "code": "6"
            }
          ]
        },
        "recipient": {
          "identifier": {
            "system": "http://fhir.de/NamingSystem/arge-ik/iknr",
            "value": "109519005"
          }
        },
        "date": "2021-08-02"
      }
    },
    {
      "fullUrl": "urn:uuid:4bceaa1e-48d6-47a9-bf0b-0d28ce4d99ff",
      "resource": {
        "resourceType": "Bundle",
        "id": "4bceaa1e-48d6-47a9-bf0b-0d28ce4d99ff",
        "meta": {
          "profile": [
            "https://fhir.gkvsv.de/StructureDefinition/GKVSV_PR_TA7_RezeptBundle|1.0.6"
          ]
        },
        "type": "collection",
        "entry": [
          {
            "link": [
              {
                "relation": "item",
                "url": "https://fhir.kbv.de/StructureDefinition/KBV_PR_ERP_Bundle"
              }
            ],
            "fullUrl": "urn:uuid:49f8f6cf-e525-4d71-93db-b0f1e37f7440",
            "resource": {
              "resourceType": "Binary",
              "id": "49f8f6cf-e525-4d71-93db-b0f1e37f7440",
              "meta": {
                "profile": [
                  "https://gematik.de/fhir/StructureDefinition/ErxBinary"
                ]
              },
              "contentType": "application/pkcs7-mime",
              "data": "VmVyb3JkbnVuZ3NkYXRlbiBCZWlzcGllbCBFcnN0ZWxsdW5nIEJlaXNwaWVsIGVBYnJlY2hudW5nc2RhdGVu"
            }
          },
          {
            "link": [
              {
                "relation": "item",
                "url": "https://gematik.de/fhir/StructureDefinition/ErxReceipt"
              }
            ],
            "fullUrl": "urn:uuid:0b904d70-74af-412e-981b-d245ce022ab2",
            "resource": {
              "resourceType": "Bundle",
              "id": "0b904d70-74af-412e-981b-d245ce022ab2",
              "meta": {
                "profile": [
                  "https://gematik.de/fhir/StructureDefinition/ErxReceipt"
                ]
              },
              "identifier": {
                "system": "https://gematik.de/fhir/NamingSystem/PrescriptionID",
                "value": "160.100.000.000.022.73"
              },
              "type": "document",
              "timestamp": "2021-07-27T09:30:00+00:00",
              "link": [
                {
                  "relation": "self",
                  "url": "https://gematik.erppre.de:443/Task/160.100.000.000.022.73/$close"
                }
              ],
              "entry": [
                {
                  "fullUrl": "urn:uuid:c7327c70-c54d-4f44-aab7-465af2189a71",
                  "resource": {
                    "resourceType": "Composition",
                    "id": "c7327c70-c54d-4f44-aab7-465af2189a71",
                    "meta": {
                      "profile": [
                        "https://gematik.de/fhir/StructureDefinition/ErxComposition"
                      ]
                    },
                    "extension": [
                      {
                        "url": "https://gematik.de/fhir/StructureDefinition/BeneficiaryExtension",
                        "valueIdentifier": {
                          "system": "https://gematik.de/fhir/NamingSystem/TelematikID",
                          "value": "606358757"
                        }
                      }
                    ],
                    "status": "final",
                    "type": {
                      "coding": [
                        {
                          "system": "https://gematik.de/fhir/CodeSystem/Documenttype",
                          "code": "3",
                          "display": "Receipt"
                        }
                      ]
                    },
                    "date": "2021-07-27T09:30:00Z",
                    "author": [
                      {
                        "reference": "https://gematik.erppre.de:443/Device"
                      }
                    ],
                    "title": "Quittung",
                    "event": [
                      {
                        "period": {
                          "start": "2021-07-27T08:45:00Z",
                          "end": "2021-07-27T09:30:00Z"
                        }
                      }
                    ]
                  }
                },
                {
                  "fullUrl": "https://gematik.erppre.de:443/Device",
                  "resource": {
                    "resourceType": "Device",
                    "id": "1",
                    "meta": {
                      "profile": [
                        "https://gematik.de/fhir/StructureDefinition/ErxDevice"
                      ]
                    },
                    "status": "active",
                    "serialNumber": "0.3.1",
                    "deviceName": [
                      {
                        "name": "E-Rezept Fachdienst",
                        "type": "user-friendly-name"
                      }
                    ],
                    "version": [
                      {
                        "value": "0.3.1"
                      }
                    ],
                    "contact": [
                      {
                        "system": "email",
                        "value": "betrieb@gematik.de"
                      }
                    ]
                  }
                }
              ],
              "signature": {
                "type": [
                  {
                    "system": "urn:iso-astm:E1762-95:2013",
                    "code": "1.2.840.10065.1.12.1.1"
                  }
                ],
                "when": "2021-07-27T09:30:00+00:00",
                "who": {
                  "reference": "https://gematik.erppre.de:443/Device"
                },
                "sigFormat": "application/pkcs7-mime",
                "data": ""
              }
            }
          },
          {
            "link": [
              {
                "relation": "item",
                "url": "http://fhir.abda.de/eRezeptAbgabedaten/StructureDefinition/DAV-PR-ERP-AbgabedatenBundle"
              }
            ],
            "fullUrl": "urn:uuid:3ac6e9cf-c887-47e2-a518-ba54023d1aa1",
            "resource": {
              "resourceType": "Binary",
              "id": "3ac6e9cf-c887-47e2-a518-ba54023d1aa1",
              "meta": {
                "profile": [
                  "https://gematik.de/fhir/StructureDefinition/ErxBinary"
                ]
              },
              "contentType": "application/pkcs7-mime",
              "data": "ZUFiZ2FiZWRhdGVuIEJlaXNwaWVsIEVyc3RlbGx1bmcgQmVpc3BpZWwgZUFicmVjaG51bmdzZGF0ZW4="
            }
          },
          {
            "link": [
              {
                "relation": "item",
                "url": "https://fhir.gkvsv.de/StructureDefinition/GKVSV_PR_ERP_eAbrechnungsdaten"
              }
            ],
            "fullUrl": "urn:uuid:39e81d0b-cdad-45b5-baaf-35f14f4c82bc",
            "resource": {
              "resourceType": "Invoice",
              "id": "39e81d0b-cdad-45b5-baaf-35f14f4c82bc",
              "meta": {
                "profile": [
                  "https://fhir.gkvsv.de/StructureDefinition/GKVSV_PR_ERP_eAbrechnungsdaten|1.0.6"
                ]
              },
              "extension": [
                {
                  "url": "https://fhir.gkvsv.de/StructureDefinition/GKVSV_EX_ERP_Irrlaeufer",
                  "valueBoolean": false
                }
              ],
              "identifier": [
                {
                  "system": "https://gematik.de/fhir/NamingSystem/PrescriptionID",
                  "value": "160.100.000.000.022.73"
                },
                {
                  "system": "https://fhir.gkvsv.de/NamingSystem/GKVSV_NS_Belegnummer",
                  "value": "2105000001061234561"
                }
              ],
              "status": "issued",
              "issuer": {
                "extension": [
                  {
                    "url": "https://fhir.gkvsv.de/StructureDefinition/GKVSV_EX_ERP_LE_Sitz",
                    "valueCoding": {
                      "system": "https://fhir.gkvsv.de/CodeSystem/GKVSV_CS_ERP_Leistungserbringer_Sitz",
                      "code": "1"
                    }
                  }
                ],
                "identifier": {
                  "type": {
                    "coding": [
                      {
                        "system": "https://fhir.gkvsv.de/CodeSystem/GKVSV_CS_ERP_Leistungserbringertyp",
                        "code": "A"
                      }
                    ]
                  },
                  "system": "http://fhir.de/NamingSystem/arge-ik/iknr",
                  "value": "308412345"
                }
              },
              "lineItem": [
                {
                  "extension": [
                    {
                      "url": "https://fhir.gkvsv.de/StructureDefinition/GKVSV_EX_ERP_Positionstyp",
                      "valueCodeableConcept": {
                        "coding": [
                          {
                            "system": "https://fhir.gkvsv.de/CodeSystem/GKVSV_CS_ERP_Positionstyp",
                            "code": "1",
                            "display": "übrige Position"
                          }
                        ]
                      }
                    },
                    {
                      "url": "https://fhir.gkvsv.de/StructureDefinition/GKVSV_EX_ERP_VAT_VALUE",
                      "valueMoney": {
                        "value": 2.27,
                        "currency": "EUR"
                      }
                    },
                    {
                      "url": "https://fhir.gkvsv.de/StructureDefinition/GKVSV_EX_ERP_Import",
                      "valueCodeableConcept": {
                        "coding": [
                          {
                            "system": "https://fhir.gkvsv.de/CodeSystem/GKVSV_CS_ERP_Import",
                            "code": "0"
                          }
                        ]
                      }
                    }
                  ],
                  "sequence": 1,
                  "chargeItemCodeableConcept": {
                    "coding": [
                      {
                        "system": "http://terminology.hl7.org/CodeSystem/v3-NullFlavor",
                        "code": "UNC"
                      }
                    ]
                  },
                  "priceComponent": [
                    {
                      "type": "deduction",
                      "code": {
                        "coding": [
                          {
                            "system": "https://fhir.gkvsv.de/CodeSystem/GKVSV_CS_ERP_ZuAbschlagKey",
                            "code": "R001"
                          }
                        ]
                      },
                      "amount": {
                        "value": -1.77,
                        "currency": "EUR"
                      }
                    }
                  ]
                }
              ]
            }
          }
        ]
      }
    }
  ]
}