<Bundle xmlns="http://hl7.org/fhir"><id value="85a7210e-81e3-4eca-92a6-fa16fedc9bf9"/><meta><lastUpdated value="2023-11-27T08:40:24.174+01:00"/><profile value="http://fhir.abda.de/eRezeptAbgabedaten/StructureDefinition/DAV-PKV-PR-ERP-AbgabedatenBundle|1.2"/></meta><identifier><system value="https://gematik.de/fhir/erp/NamingSystem/GEM_ERP_NS_PrescriptionId"/><value value="200.000.000.042.802.93"/></identifier><type value="document"/><timestamp value="2023-11-27T08:40:24.174+01:00"/><entry><fullUrl value="urn:uuid:a650d36f-76a1-48fc-b3e1-39b1a2a2de77"/><resource><Composition xmlns="http://hl7.org/fhir"><id value="a650d36f-76a1-48fc-b3e1-39b1a2a2de77"/><meta><profile value="http://fhir.abda.de/eRezeptAbgabedaten/StructureDefinition/DAV-PKV-PR-ERP-AbgabedatenComposition|1.2"/></meta><status value="final"/><type><coding><system value="http://fhir.abda.de/eRezeptAbgabedaten/CodeSystem/DAV-CS-ERP-CompositionTypes"/><code value="ERezeptAbgabedaten"/></coding></type><date value="2023-11-27T08:40:24+01:00"/><author><reference value="urn:uuid:51878216-18b9-46f5-806c-a7335c5c151a"/></author><title value="ERezeptAbgabedaten"/><section><title value="Apotheke"/><entry><reference value="urn:uuid:51878216-18b9-46f5-806c-a7335c5c151a"/></entry></section><section><title value="Abgabeinformationen"/><entry><reference value="urn:uuid:ad34858f-5490-4f7d-a6b4-cd2da81700da"/></entry></section></Composition></resource></entry><entry><fullUrl value="urn:uuid:51878216-18b9-46f5-806c-a7335c5c151a"/><resource><Organization xmlns="http://hl7.org/fhir"><id value="51878216-18b9-46f5-806c-a7335c5c151a"/><meta><profile value="http://fhir.abda.de/eRezeptAbgabedaten/StructureDefinition/DAV-PKV-PR-ERP-Apotheke|1.2"/></meta><identifier><system value="http://fhir.de/sid/arge-ik/iknr"/><value value="093314137"/></identifier><name value="Apotheke Brandy Bottle"/><address><type value="physical"/><line value="Else-Lasker-Schüler-Str. 541"><extension url="http://hl7.org/fhir/StructureDefinition/iso21090-ADXP-houseNumber"><valueString value="541"/></extension><extension url="http://hl7.org/fhir/StructureDefinition/iso21090-ADXP-streetName"><valueString value="Else-Lasker-Schüler-Str."/></extension></line><city value="Alt Madleen"/><postalCode value="79325"/><country value="D"/></address></Organization></resource></entry><entry><fullUrl value="urn:uuid:76f73262-427a-40d0-9bc3-4d4cf0415c04"/><resource><Invoice xmlns="http://hl7.org/fhir"><id value="76f73262-427a-40d0-9bc3-4d4cf0415c04"/><meta><profile value="http://fhir.abda.de/eRezeptAbgabedaten/StructureDefinition/DAV-PKV-PR-ERP-Abrechnungszeilen|1.2"/></meta><status value="issued"/><type><coding><system value="http://fhir.abda.de/eRezeptAbgabedaten/CodeSystem/DAV-CS-ERP-InvoiceTyp"/><code value="Abrechnungszeilen"/></coding></type><lineItem><sequence value="1"/><chargeItemCodeableConcept><coding><system value="http://fhir.de/CodeSystem/ifa/pzn"/><code value="33384642"/></coding><text value="Enoxvofloxor"/></chargeItemCodeableConcept><priceComponent><extension url="http://fhir.abda.de/eRezeptAbgabedaten/StructureDefinition/DAV-EX-ERP-KostenVersicherter"><extension url="Kategorie"><valueCodeableConcept><coding><system value="http://fhir.abda.de/eRezeptAbgabedaten/CodeSystem/DAV-PKV-CS-ERP-KostenVersicherterKategorie"/><code value="0"/></coding></valueCodeableConcept></extension><extension url="Kostenbetrag"><valueMoney><value value="2.43"/><currency value="EUR"/></valueMoney></extension></extension><extension url="http://fhir.abda.de/eRezeptAbgabedaten/StructureDefinition/DAV-EX-ERP-MwStSatz"><valueDecimal value="14.21"/></extension><type value="informational"/><factor value="1"/><amount><value value="2.71"/><currency value="EUR"/></amount></priceComponent></lineItem><totalGross><extension url="http://fhir.abda.de/eRezeptAbgabedaten/StructureDefinition/DAV-EX-ERP-Gesamtzuzahlung"><valueMoney><value value="2.43"/><currency value="EUR"/></valueMoney></extension><value value="2.71"/><currency value="EUR"/></totalGross></Invoice></resource></entry><entry><fullUrl value="urn:uuid:ad34858f-5490-4f7d-a6b4-cd2da81700da"/><resource><MedicationDispense xmlns="http://hl7.org/fhir"><id value="ad34858f-5490-4f7d-a6b4-cd2da81700da"/><meta><profile value="http://fhir.abda.de/eRezeptAbgabedaten/StructureDefinition/DAV-PKV-PR-ERP-Abgabeinformationen|1.2"/></meta><extension url="http://fhir.abda.de/eRezeptAbgabedaten/StructureDefinition/DAV-PKV-EX-ERP-AbrechnungsTyp"><valueCodeableConcept><coding><system value="http://fhir.abda.de/eRezeptAbgabedaten/CodeSystem/DAV-PKV-CS-ERP-AbrechnungsTyp"/><code value="1"/></coding></valueCodeableConcept></extension><extension url="http://fhir.abda.de/eRezeptAbgabedaten/StructureDefinition/DAV-EX-ERP-Abrechnungszeilen"><valueReference><reference value="urn:uuid:76f73262-427a-40d0-9bc3-4d4cf0415c04"/></valueReference></extension><status value="completed"/><medicationCodeableConcept><coding><system value="http://terminology.hl7.org/CodeSystem/data-absent-reason"/><code value="not-applicable"/></coding></medicationCodeableConcept><performer><actor><reference value="urn:uuid:51878216-18b9-46f5-806c-a7335c5c151a"/></actor></performer><authorizingPrescription><identifier><system value="https://gematik.de/fhir/erp/NamingSystem/GEM_ERP_NS_PrescriptionId"/><value value="200.000.000.042.802.93"/></identifier></authorizingPrescription><type><coding><system value="http://fhir.abda.de/eRezeptAbgabedaten/CodeSystem/DAV-CS-ERP-MedicationDispenseTyp"/><code value="Abgabeinformationen"/></coding></type><whenHandedOver value="2023-11-27"/></MedicationDispense></resource></entry></Bundle>