<Bundle xmlns="http://hl7.org/fhir">
	<id value="2873d795-c982-44df-b211-cae1f25d1ba3" />
	<meta>
		<profile value="https://fhir.kbv.de/StructureDefinition/KBV_PR_ERP_Bundle|1.1.0" />
	</meta>
	<identifier>
		<system value="https://gematik.de/fhir/erp/NamingSystem/GEM_ERP_NS_PrescriptionId" />
		<value value="200.000.002.425.316.93" />
	</identifier>
	<type value="document" />
	<timestamp value="2025-03-28T09:07:47.261+01:00" />
	<entry>
		<fullUrl value="https://pvs.gematik.de/fhir/Composition/e7cde838-5316-4085-925c-42b9a31732fe" />
		<resource>
			<Composition xmlns="http://hl7.org/fhir">
				<id value="e7cde838-5316-4085-925c-42b9a31732fe" />
				<meta>
					<profile value="https://fhir.kbv.de/StructureDefinition/KBV_PR_ERP_Composition|1.1.0" />
				</meta>
				<extension url="https://fhir.kbv.de/StructureDefinition/KBV_EX_FOR_Legal_basis">
					<valueCoding>
						<system value="https://fhir.kbv.de/CodeSystem/KBV_CS_SFHIR_KBV_STATUSKENNZEICHEN" />
						<code value="00" />
					</valueCoding>
				</extension>
				<status value="final" />
				<type>
					<coding>
						<system value="https://fhir.kbv.de/CodeSystem/KBV_CS_SFHIR_KBV_FORMULAR_ART" />
						<code value="e16A" />
					</coding>
				</type>
				<subject>
					<reference value="Patient/23f8005c-ac03-4c70-bfc5-b456e52fcdb2" />
				</subject>
				<date value="2025-03-28T09:07:47+01:00" />
				<author>
					<type value="Device" />
					<identifier>
						<system value="https://fhir.kbv.de/NamingSystem/KBV_NS_FOR_Pruefnummer" />
						<value value="GEMATIK/410/2109/36/123" />
					</identifier>
				</author>
				<author>
					<reference value="Practitioner/23739aa3-1846-4c96-a4f2-ea909e4f5129" />
					<type value="Practitioner" />
				</author>
				<title value="elektronische Arzneimittelverordnung" />
				<custodian>
					<reference value="Organization/ce958487-8667-49ad-906f-de4ac524b73d" />
				</custodian>
				<section>
					<code>
						<coding>
							<system value="https://fhir.kbv.de/CodeSystem/KBV_CS_ERP_Section_Type" />
							<code value="Coverage" />
						</coding>
					</code>
					<entry>
						<reference value="Coverage/4033760e-88b4-4fae-b085-ad9a62d608c1" />
					</entry>
				</section>
				<section>
					<code>
						<coding>
							<system value="https://fhir.kbv.de/CodeSystem/KBV_CS_ERP_Section_Type" />
							<code value="Prescription" />
						</coding>
					</code>
					<entry>
						<reference value="MedicationRequest/9b20addc-bf81-4bac-a365-ef25ae415d1c" />
					</entry>
				</section>
			</Composition>
		</resource>
	</entry>
	<entry>
		<fullUrl value="https://pvs.gematik.de/fhir/Coverage/4033760e-88b4-4fae-b085-ad9a62d608c1" />
		<resource>
			<Coverage xmlns="http://hl7.org/fhir">
				<id value="4033760e-88b4-4fae-b085-ad9a62d608c1" />
				<meta>
					<profile value="https://fhir.kbv.de/StructureDefinition/KBV_PR_FOR_Coverage|1.1.0" />
				</meta>
				<extension url="http://fhir.de/StructureDefinition/gkv/besondere-personengruppe">
					<valueCoding>
						<system value="https://fhir.kbv.de/CodeSystem/KBV_CS_SFHIR_KBV_PERSONENGRUPPE" />
						<code value="00" />
					</valueCoding>
				</extension>
				<extension url="http://fhir.de/StructureDefinition/gkv/dmp-kennzeichen">
					<valueCoding>
						<system value="https://fhir.kbv.de/CodeSystem/KBV_CS_SFHIR_KBV_DMP" />
						<code value="00" />
					</valueCoding>
				</extension>
				<extension url="http://fhir.de/StructureDefinition/gkv/wop">
					<valueCoding>
						<system value="https://fhir.kbv.de/CodeSystem/KBV_CS_SFHIR_ITA_WOP" />
						<code value="71" />
					</valueCoding>
				</extension>
				<extension url="http://fhir.de/StructureDefinition/gkv/versichertenart">
					<valueCoding>
						<system value="https://fhir.kbv.de/CodeSystem/KBV_CS_SFHIR_KBV_VERSICHERTENSTATUS" />
						<code value="1" />
					</valueCoding>
				</extension>
				<status value="active" />
				<type>
					<coding>
						<system value="http://fhir.de/CodeSystem/versicherungsart-de-basis" />
						<code value="PKV" />
					</coding>
				</type>
				<beneficiary>
					<reference value="Patient/9e308395-7d26-4308-915e-ad16890c5ab5" />
				</beneficiary>
				<payor>
					<identifier>
						<system value="http://fhir.de/sid/arge-ik/iknr" />
						<value value="168141358" />
					</identifier>
					<display value="Provinzial" />
				</payor>
			</Coverage>
		</resource>
	</entry>
	<entry>
		<fullUrl value="https://pvs.gematik.de/fhir/Patient/23f8005c-ac03-4c70-bfc5-b456e52fcdb2" />
		<resource>
			<Patient xmlns="http://hl7.org/fhir">
				<id value="23f8005c-ac03-4c70-bfc5-b456e52fcdb2" />
				<meta>
					<profile value="https://fhir.kbv.de/StructureDefinition/KBV_PR_FOR_Patient|1.1.0" />
				</meta>
				<identifier>
					<type>
						<coding>
							<system value="http://fhir.de/CodeSystem/identifier-type-de-basis" />
							<code value="PKV" />
						</coding>
					</type>
					<system value="http://fhir.de/sid/pkv/kvid-10" />
					<value value="X110645443" />
				</identifier>
				<name>
					<use value="official" />
					<family value="Angermänn">
						<extension url="http://hl7.org/fhir/StructureDefinition/humanname-own-name">
							<valueString value="Angermänn" />
						</extension>
					</family>
					<given value="Günther" />
				</name>
				<birthDate value="1963-03-15" />
				<address>
					<type value="both" />
					<line value="Am Blauen Berg 28c">
						<extension url="http://hl7.org/fhir/StructureDefinition/iso21090-ADXP-houseNumber">
							<valueString value="28c" />
						</extension>
						<extension url="http://hl7.org/fhir/StructureDefinition/iso21090-ADXP-streetName">
							<valueString value="Am Blauen Berg" />
						</extension>
					</line>
					<city value="Alt Lennoxburg" />
					<postalCode value="05973" />
					<country value="D" />
				</address>
			</Patient>
		</resource>
	</entry>
	<entry>
		<fullUrl value="https://pvs.gematik.de/fhir/Practitioner/23739aa3-1846-4c96-a4f2-ea909e4f5129" />
		<resource>
			<Practitioner xmlns="http://hl7.org/fhir">
				<id value="23739aa3-1846-4c96-a4f2-ea909e4f5129" />
				<meta>
					<profile value="https://fhir.kbv.de/StructureDefinition/KBV_PR_FOR_Practitioner|1.1.0" />
				</meta>
				<identifier>
					<type>
						<coding>
							<system value="http://terminology.hl7.org/CodeSystem/v2-0203" />
							<code value="LANR" />
						</coding>
					</type>
					<system value="https://fhir.kbv.de/NamingSystem/KBV_NS_Base_ANR" />
					<value value="120802810" />
				</identifier>
				<name>
					<use value="official" />
					<family value="Schraßer">
						<extension url="http://hl7.org/fhir/StructureDefinition/humanname-own-name">
							<valueString value="Schraßer" />
						</extension>
					</family>
					<given value="Dr." />
					<prefix value="Dr.">
						<extension url="http://hl7.org/fhir/StructureDefinition/iso21090-EN-qualifier">
							<valueCode value="AC" />
						</extension>
					</prefix>
				</name>
				<qualification>
					<code>
						<coding>
							<system value="https://fhir.kbv.de/CodeSystem/KBV_CS_FOR_Qualification_Type" />
							<code value="00" />
						</coding>
					</code>
				</qualification>
				<qualification>
					<code>
						<coding>
							<system value="https://fhir.kbv.de/CodeSystem/KBV_CS_FOR_Berufsbezeichnung" />
							<code value="Berufsbezeichnung" />
						</coding>
						<text value="Super-Facharzt für alles Mögliche" />
					</code>
				</qualification>
			</Practitioner>
		</resource>
	</entry>
	<entry>
		<fullUrl value="https://pvs.gematik.de/fhir/Organization/ce958487-8667-49ad-906f-de4ac524b73d" />
		<resource>
			<Organization xmlns="http://hl7.org/fhir">
				<id value="ce958487-8667-49ad-906f-de4ac524b73d" />
				<meta>
					<profile value="https://fhir.kbv.de/StructureDefinition/KBV_PR_FOR_Organization|1.1.0" />
				</meta>
				<identifier>
					<type>
						<coding>
							<system value="http://terminology.hl7.org/CodeSystem/v2-0203" />
							<code value="BSNR" />
						</coding>
					</type>
					<system value="https://fhir.kbv.de/NamingSystem/KBV_NS_Base_BSNR" />
					<value value="025787273" />
				</identifier>
				<name value="Arztpraxis Schraßer" />
				<telecom>
					<system value="phone" />
					<value value="(0229) 644733244" />
				</telecom>
				<telecom>
					<system value="email" />
					<value value="colleen.schwuchow@stenzel.name" />
				</telecom>
				<address>
					<type value="both" />
					<line value="Max-Pechstein-Str. 316">
						<extension url="http://hl7.org/fhir/StructureDefinition/iso21090-ADXP-houseNumber">
							<valueString value="316" />
						</extension>
						<extension url="http://hl7.org/fhir/StructureDefinition/iso21090-ADXP-streetName">
							<valueString value="Max-Pechstein-Str." />
						</extension>
					</line>
					<city value="Neu Jason" />
					<postalCode value="08523" />
					<country value="D" />
				</address>
			</Organization>
		</resource>
	</entry>
	<entry>
		<fullUrl value="https://pvs.gematik.de/fhir/Medication/b2f11c4e-d381-4bca-b6a7-b7945f89fe1c" />
		<resource>
			<Medication xmlns="http://hl7.org/fhir">
				<id value="b2f11c4e-d381-4bca-b6a7-b7945f89fe1c" />
				<meta>
					<profile value="https://fhir.kbv.de/StructureDefinition/KBV_PR_ERP_Medication_PZN|1.1.0" />
				</meta>
				<extension url="https://fhir.kbv.de/StructureDefinition/KBV_EX_Base_Medication_Type">
					<valueCodeableConcept>
						<coding>
							<system value="http://snomed.info/sct" />
							<version value="http://snomed.info/sct/900000000000207008/version/20220331" />
							<code value="763158003" />
							<display value="Medicinal product (product)" />
						</coding>
					</valueCodeableConcept>
				</extension>
				<extension url="https://fhir.kbv.de/StructureDefinition/KBV_EX_ERP_Medication_Category">
					<valueCoding>
						<system value="https://fhir.kbv.de/CodeSystem/KBV_CS_ERP_Medication_Category" />
						<code value="00" />
					</valueCoding>
				</extension>
				<extension url="https://fhir.kbv.de/StructureDefinition/KBV_EX_ERP_Medication_Vaccine">
					<valueBoolean value="false" />
				</extension>
				<extension url="http://fhir.de/StructureDefinition/normgroesse">
					<valueCode value="NB" />
				</extension>
				<code>
					<coding>
						<system value="http://fhir.de/CodeSystem/ifa/pzn" />
						<code value="75662612" />
					</coding>
					<text value="Schmerzmittel" />
				</code>
				<form>
					<coding>
						<system value="https://fhir.kbv.de/CodeSystem/KBV_CS_SFHIR_KBV_DARREICHUNGSFORM" />
						<code value="TAB" />
					</coding>
				</form>
				<amount>
					<numerator>
						<extension url="https://fhir.kbv.de/StructureDefinition/KBV_EX_ERP_Medication_PackagingSize">
							<valueString value="1" />
						</extension>
						<unit value="Stk" />
					</numerator>
					<denominator>
						<value value="1" />
					</denominator>
				</amount>
			</Medication>
		</resource>
	</entry>
	<entry>
		<fullUrl value="https://pvs.gematik.de/fhir/MedicationRequest/9b20addc-bf81-4bac-a365-ef25ae415d1c" />
		<resource>
			<MedicationRequest xmlns="http://hl7.org/fhir">
				<id value="9b20addc-bf81-4bac-a365-ef25ae415d1c" />
				<meta>
					<profile value="https://fhir.kbv.de/StructureDefinition/KBV_PR_ERP_Prescription|1.1.0" />
				</meta>
				<extension url="https://fhir.kbv.de/StructureDefinition/KBV_EX_ERP_BVG">
					<valueBoolean value="false" />
				</extension>
				<extension url="https://fhir.kbv.de/StructureDefinition/KBV_EX_ERP_EmergencyServicesFee">
					<valueBoolean value="false" />
				</extension>
				<extension url="https://fhir.kbv.de/StructureDefinition/KBV_EX_ERP_Multiple_Prescription">
					<extension url="Kennzeichen">
						<valueBoolean value="false" />
					</extension>
				</extension>
				<extension url="https://fhir.kbv.de/StructureDefinition/KBV_EX_FOR_StatusCoPayment">
					<valueCoding>
						<system value="https://fhir.kbv.de/CodeSystem/KBV_CS_FOR_StatusCoPayment" />
						<code value="1" />
					</valueCoding>
				</extension>
				<status value="active" />
				<intent value="order" />
				<medicationReference>
					<reference value="Medication/b2f11c4e-d381-4bca-b6a7-b7945f89fe1c" />
				</medicationReference>
				<subject>
					<reference value="Patient/23f8005c-ac03-4c70-bfc5-b456e52fcdb2" />
				</subject>
				<authoredOn value="2025-03-28" />
				<requester>
					<reference value="Practitioner/23739aa3-1846-4c96-a4f2-ea909e4f5129" />
				</requester>
				<insurance>
					<reference value="Coverage/4033760e-88b4-4fae-b085-ad9a62d608c1" />
				</insurance>
				<dosageInstruction>
					<extension url="https://fhir.kbv.de/StructureDefinition/KBV_EX_ERP_DosageFlag">
						<valueBoolean value="true" />
					</extension>
					<text value="0-2-3-3-1-2-1" />
				</dosageInstruction>
				<dispenseRequest>
					<quantity>
						<value value="1" />
						<system value="http://unitsofmeasure.org" />
						<code value="{Package}" />
					</quantity>
				</dispenseRequest>
				<substitution>
					<allowedBoolean value="false" />
				</substitution>
			</MedicationRequest>
		</resource>
	</entry>
</Bundle>
