<Bundle xmlns="http://hl7.org/fhir"><id value="d3db8718-0ee1-43bd-bd09-868e0263ac69"/><meta><lastUpdated value="2025-03-28T09:07:48.255+01:00"/><profile value="http://fhir.abda.de/eRezeptAbgabedaten/StructureDefinition/DAV-PKV-PR-ERP-AbgabedatenBundle|1.3"/></meta><identifier><system value="https://gematik.de/fhir/erp/NamingSystem/GEM_ERP_NS_PrescriptionId"/><value value="200.000.002.425.316.93"/></identifier><type value="document"/><timestamp value="2025-03-28T09:07:48.255+01:00"/><entry><fullUrl value="urn:uuid:7f202cc1-21c1-4729-be39-dd00c62ce598"/><resource><Composition xmlns="http://hl7.org/fhir"><id value="7f202cc1-21c1-4729-be39-dd00c62ce598"/><meta><profile value="http://fhir.abda.de/eRezeptAbgabedaten/StructureDefinition/DAV-PKV-PR-ERP-AbgabedatenComposition|1.3"/></meta><status value="final"/><type><coding><system value="http://fhir.abda.de/eRezeptAbgabedaten/CodeSystem/DAV-CS-ERP-CompositionTypes"/><code value="ERezeptAbgabedaten"/></coding></type><date value="2025-03-28T09:07:48+01:00"/><author><reference value="urn:uuid:33aedf08-b091-481a-a27f-23a4cb29e9f6"/></author><title value="ERezeptAbgabedaten"/><section><title value="Apotheke"/><entry><reference value="urn:uuid:33aedf08-b091-481a-a27f-23a4cb29e9f6"/></entry></section><section><title value="Abgabeinformationen"/><entry><reference value="urn:uuid:5695493b-54d1-497d-b1af-eaa22bf8e2aa"/></entry></section></Composition></resource></entry><entry><fullUrl value="urn:uuid:33aedf08-b091-481a-a27f-23a4cb29e9f6"/><resource><Organization xmlns="http://hl7.org/fhir"><id value="33aedf08-b091-481a-a27f-23a4cb29e9f6"/><meta><profile value="http://fhir.abda.de/eRezeptAbgabedaten/StructureDefinition/DAV-PKV-PR-ERP-Apotheke|1.3"/></meta><identifier><system value="http://fhir.de/sid/arge-ik/iknr"/><value value="529480191"/></identifier><name value="Apotheke Bill Lowney"/><address><type value="physical"/><line value="Bonner Str. 0"><extension url="http://hl7.org/fhir/StructureDefinition/iso21090-ADXP-houseNumber"><valueString value="0"/></extension><extension url="http://hl7.org/fhir/StructureDefinition/iso21090-ADXP-streetName"><valueString value="Bonner Str."/></extension></line><city value="Neu Ivonneberg"/><postalCode value="39907"/><country value="FAL"/></address></Organization></resource></entry><entry><fullUrl value="urn:uuid:6d8d36a5-9227-4361-9a19-2f56695c918e"/><resource><Invoice xmlns="http://hl7.org/fhir"><id value="6d8d36a5-9227-4361-9a19-2f56695c918e"/><meta><profile value="http://fhir.abda.de/eRezeptAbgabedaten/StructureDefinition/DAV-PKV-PR-ERP-Abrechnungszeilen|1.3"/></meta><status value="issued"/><type><coding><system value="http://fhir.abda.de/eRezeptAbgabedaten/CodeSystem/DAV-CS-ERP-InvoiceTyp"/><code value="Abrechnungszeilen"/></coding></type><lineItem><sequence value="1"/><chargeItemCodeableConcept><coding><system value="http://fhir.de/CodeSystem/ifa/pzn"/><code value="14674794"/></coding><text value="Desloratadin-ADGC Ampullen"/></chargeItemCodeableConcept><priceComponent><extension url="http://fhir.abda.de/eRezeptAbgabedaten/StructureDefinition/DAV-EX-ERP-KostenVersicherter"><extension url="Kategorie"><valueCodeableConcept><coding><system value="http://fhir.abda.de/eRezeptAbgabedaten/CodeSystem/DAV-PKV-CS-ERP-KostenVersicherterKategorie"/><code value="0"/></coding></valueCodeableConcept></extension><extension url="Kostenbetrag"><valueMoney><value value="242.02"/><currency value="EUR"/></valueMoney></extension></extension><extension url="http://fhir.abda.de/eRezeptAbgabedaten/StructureDefinition/DAV-EX-ERP-MwStSatz"><valueDecimal value="24.17"/></extension><type value="informational"/><factor value="1"/><amount><value value="348.93"/><currency value="EUR"/></amount></priceComponent></lineItem><lineItem><sequence value="2"/><chargeItemCodeableConcept><coding><system value="http://fhir.de/CodeSystem/ifa/pzn"/><code value="68984628"/></coding><text value="OMNi BiOTiC® HETOX Salbe 150 mg"/></chargeItemCodeableConcept><priceComponent><extension url="http://fhir.abda.de/eRezeptAbgabedaten/StructureDefinition/DAV-EX-ERP-KostenVersicherter"><extension url="Kategorie"><valueCodeableConcept><coding><system value="http://fhir.abda.de/eRezeptAbgabedaten/CodeSystem/DAV-PKV-CS-ERP-KostenVersicherterKategorie"/><code value="0"/></coding></valueCodeableConcept></extension><extension url="Kostenbetrag"><valueMoney><value value="116.21"/><currency value="EUR"/></valueMoney></extension></extension><extension url="http://fhir.abda.de/eRezeptAbgabedaten/StructureDefinition/DAV-EX-ERP-MwStSatz"><valueDecimal value="24.17"/></extension><type value="informational"/><factor value="1"/><amount><value value="227.20"/><currency value="EUR"/></amount></priceComponent></lineItem><lineItem><sequence value="3"/><chargeItemCodeableConcept><coding><system value="http://fhir.de/CodeSystem/ifa/pzn"/><code value="45654791"/></coding><text value="Finalgon® Nasenspray 2000 mg"/></chargeItemCodeableConcept><priceComponent><extension url="http://fhir.abda.de/eRezeptAbgabedaten/StructureDefinition/DAV-EX-ERP-KostenVersicherter"><extension url="Kategorie"><valueCodeableConcept><coding><system value="http://fhir.abda.de/eRezeptAbgabedaten/CodeSystem/DAV-PKV-CS-ERP-KostenVersicherterKategorie"/><code value="0"/></coding></valueCodeableConcept></extension><extension url="Kostenbetrag"><valueMoney><value value="31.02"/><currency value="EUR"/></valueMoney></extension></extension><extension url="http://fhir.abda.de/eRezeptAbgabedaten/StructureDefinition/DAV-EX-ERP-MwStSatz"><valueDecimal value="24.17"/></extension><type value="informational"/><factor value="1"/><amount><value value="37.64"/><currency value="EUR"/></amount></priceComponent></lineItem><totalGross><extension url="http://fhir.abda.de/eRezeptAbgabedaten/StructureDefinition/DAV-EX-ERP-Gesamtzuzahlung"><valueMoney><value value="389.25"/><currency value="EUR"/></valueMoney></extension><value value="613.77"/><currency value="EUR"/></totalGross></Invoice></resource></entry><entry><fullUrl value="urn:uuid:5695493b-54d1-497d-b1af-eaa22bf8e2aa"/><resource><MedicationDispense xmlns="http://hl7.org/fhir"><id value="5695493b-54d1-497d-b1af-eaa22bf8e2aa"/><meta><profile value="http://fhir.abda.de/eRezeptAbgabedaten/StructureDefinition/DAV-PKV-PR-ERP-Abgabeinformationen|1.3"/></meta><extension url="http://fhir.abda.de/eRezeptAbgabedaten/StructureDefinition/DAV-PKV-EX-ERP-AbrechnungsTyp"><valueCodeableConcept><coding><system value="http://fhir.abda.de/eRezeptAbgabedaten/CodeSystem/DAV-PKV-CS-ERP-AbrechnungsTyp"/><code value="1"/></coding></valueCodeableConcept></extension><extension url="http://fhir.abda.de/eRezeptAbgabedaten/StructureDefinition/DAV-EX-ERP-Abrechnungszeilen"><valueReference><reference value="urn:uuid:6d8d36a5-9227-4361-9a19-2f56695c918e"/></valueReference></extension><status value="completed"/><medicationCodeableConcept><coding><system value="http://terminology.hl7.org/CodeSystem/data-absent-reason"/><code value="not-applicable"/></coding></medicationCodeableConcept><performer><actor><reference value="urn:uuid:33aedf08-b091-481a-a27f-23a4cb29e9f6"/></actor></performer><authorizingPrescription><identifier><system value="https://gematik.de/fhir/erp/NamingSystem/GEM_ERP_NS_PrescriptionId"/><value value="200.000.002.425.316.93"/></identifier></authorizingPrescription><type><coding><system value="http://fhir.abda.de/eRezeptAbgabedaten/CodeSystem/DAV-CS-ERP-MedicationDispenseTyp"/><code value="Abgabeinformationen"/></coding></type><whenHandedOver value="2025-03-28"/></MedicationDispense></resource></entry></Bundle>