<Bundle xmlns="http://hl7.org/fhir">
   <id value="a0bda062-0000-0000-0003-000000000000"/>
   <meta>
      <profile value="https://gematik.de/fhir/erp/StructureDefinition/GEM_ERP_PR_Bundle|1.4"/>
   </meta>
   <identifier>
      <system value="https://gematik.de/fhir/erp/NamingSystem/GEM_ERP_NS_PrescriptionId"/>
      <value value="160.000.006.463.677.05"/>
   </identifier>
   <type value="document"/>
   <timestamp value="2024-02-13T10:24:03.618+00:00"/>
   <link>
      <relation value="self"/>
      <url value="https://erp-test.zentral.erp.splitdns.ti-dienste.de/Task/160.000.006.463.677.05/$close/"/>
   </link>
   <entry>
      <fullUrl value="urn:uuid:833a2e97-7ece-4fa0-a419-b89d9bf8282f"/>
      <resource>
         <Composition xmlns="http://hl7.org/fhir">
            <meta>
               <profile value="https://gematik.de/fhir/erp/StructureDefinition/GEM_ERP_PR_Composition|1.4"/>
            </meta>
            <extension url="https://gematik.de/fhir/erp/StructureDefinition/GEM_ERP_EX_Beneficiary">
               <valueIdentifier>
                  <system value="https://gematik.de/fhir/sid/telematik-id"/>
                  <value value="3-SMC-B-Testkarte-883110000116873"/>
               </valueIdentifier>
            </extension>
            <status value="final"/>
            <type>
               <coding>
                  <system value="https://gematik.de/fhir/erp/CodeSystem/GEM_ERP_CS_DocumentType"/>
                  <code value="3"/>
                  <display value="Receipt"/>
               </coding>
            </type>
            <date value="2024-02-13T10:24:03.617+00:00"/>
            <author>
               <reference value="https://erp-test.zentral.erp.splitdns.ti-dienste.de/Device/1"/>
            </author>
            <title value="Quittung"/>
            <event>
               <period>
                  <start value="2024-02-13T10:24:01.433+00:00"/>
                  <end value="2024-02-13T10:24:03.617+00:00"/>
               </period>
            </event>
            <section>
               <entry>
                  <reference value="Binary/PrescriptionDigest-160.000.006.463.677.05"/>
               </entry>
            </section>
         </Composition>
      </resource>
   </entry>
   <entry>
      <fullUrl value="https://erp-test.zentral.erp.splitdns.ti-dienste.de/Device/1"/>
      <resource>
         <Device xmlns="http://hl7.org/fhir">
            <id value="1"/>
            <meta>
               <profile value="https://gematik.de/fhir/erp/StructureDefinition/GEM_ERP_PR_Device|1.4"/>
            </meta>
            <status value="active"/>
            <serialNumber value="1.12.0"/>
            <deviceName>
               <name value="E-Rezept Fachdienst"/>
               <type value="user-friendly-name"/>
            </deviceName>
            <version>
               <value value="1.12.0"/>
            </version>
            <contact>
               <system value="email"/>
               <value value="betrieb@gematik.de"/>
            </contact>
         </Device>
      </resource>
   </entry>
   <entry>
      <fullUrl value="https://erp-test.zentral.erp.splitdns.ti-dienste.de/Binary/PrescriptionDigest-160.000.006.463.677.05"/>
      <resource>
         <Binary xmlns="http://hl7.org/fhir">
            <id value="PrescriptionDigest-160.000.006.463.677.05"/>
            <meta>
               <versionId value="1"/>
               <profile value="https://gematik.de/fhir/erp/StructureDefinition/GEM_ERP_PR_Digest|1.4"/>
            </meta>
            <contentType value="application/octet-stream"/>
            <data value="PXRVXuB94qZ8ZlhWW/fofeBcuxf6QLzju+Vj3BfY2O0="/>
         </Binary>
      </resource>
   </entry>
   <signature>
      <type>
         <system value="urn:iso-astm:E1762-95:2013"/>
         <code value="1.2.840.10065.1.12.1.1"/>
      </type>
      <when value="2024-02-13T10:24:03.619+00:00"/>
      <who>
         <reference value="https://erp-test.zentral.erp.splitdns.ti-dienste.de/Device/1"/>
      </who>
      <sigFormat value="application/pkcs7-mime"/>
      <data value=""/>
   </signature>
</Bundle>