<Bundle xmlns="http://hl7.org/fhir">
   <id value="a09d2460-0000-0000-0003-000000000000"/>
   <meta>
      <profile value="https://gematik.de/fhir/StructureDefinition/ErxReceipt|1.1.1"/>
   </meta>
   <identifier>
      <system value="https://gematik.de/fhir/NamingSystem/PrescriptionID"/>
      <value value="160.000.006.300.829.57"/>
   </identifier>
   <type value="document"/>
   <timestamp value="2023-03-16T11:51:08.368+00:00"/>
   <link>
      <relation value="self"/>
      <url value="https://erp-test.zentral.erp.splitdns.ti-dienste.de/Task/160.000.006.300.829.57/$close/"/>
   </link>
   <entry>
      <fullUrl value="urn:uuid:7949ce8a-41e1-4950-975c-82cecfc11f95"/>
      <resource>
         <Composition xmlns="http://hl7.org/fhir">
            <meta>
               <profile value="https://gematik.de/fhir/StructureDefinition/ErxComposition|1.1.1"/>
            </meta>
            <extension url="https://gematik.de/fhir/StructureDefinition/BeneficiaryExtension">
               <valueIdentifier>
                  <system value="https://gematik.de/fhir/NamingSystem/TelematikID"/>
                  <value value="3-SMC-B-Testkarte-883110000116873"/>
               </valueIdentifier>
            </extension>
            <status value="final"/>
            <type>
               <coding>
                  <system value="https://gematik.de/fhir/CodeSystem/Documenttype"/>
                  <code value="3"/>
                  <display value="Receipt"/>
               </coding>
            </type>
            <date value="2023-03-16T11:51:08.368+00:00"/>
            <author>
               <reference value="https://erp-test.zentral.erp.splitdns.ti-dienste.de/Device/1"/>
            </author>
            <title value="Quittung"/>
            <event>
               <period>
                  <start value="2023-03-16T11:51:06.699+00:00"/>
                  <end value="2023-03-16T11:51:08.368+00:00"/>
               </period>
            </event>
            <section>
               <entry>
                  <reference value="Binary/PrescriptionDigest-160.000.006.300.829.57"/>
               </entry>
            </section>
         </Composition>
      </resource>
   </entry>
   <entry>
      <fullUrl value="https://erp-test.zentral.erp.splitdns.ti-dienste.de/Device/1"/>
      <resource>
         <Device xmlns="http://hl7.org/fhir">
            <id value="1"/>
            <meta>
               <profile value="https://gematik.de/fhir/StructureDefinition/ErxDevice|1.1.1"/>
            </meta>
            <status value="active"/>
            <serialNumber value="1.8.1"/>
            <deviceName>
               <name value="E-Rezept Fachdienst"/>
               <type value="user-friendly-name"/>
            </deviceName>
            <version>
               <value value="1.8.1"/>
            </version>
            <contact>
               <system value="email"/>
               <value value="betrieb@gematik.de"/>
            </contact>
         </Device>
      </resource>
   </entry>
   <entry>
      <fullUrl value="https://erp-test.zentral.erp.splitdns.ti-dienste.de/Task/160.000.006.300.829.57/PrescriptionDigest"/>
      <resource>
         <Binary xmlns="http://hl7.org/fhir">
            <id value="PrescriptionDigest-160.000.006.300.829.57"/>
            <meta>
               <versionId value="1"/>
               <profile value="http://hl7.org/fhir/StructureDefinition/Binary|4.0.1"/>
            </meta>
            <contentType value="application/octet-stream"/>
            <data value="qQHZVQxvXZShPmdbR7QoRhb1T2jAT+TvyPJ8hSWvIoI="/>
         </Binary>
      </resource>
   </entry>
   <signature>
      <type>
         <system value="urn:iso-astm:E1762-95:2013"/>
         <code value="1.2.840.10065.1.12.1.1"/>
      </type>
      <when value="2023-03-16T11:51:08.369+00:00"/>
      <who>
         <reference value="https://erp-test.zentral.erp.splitdns.ti-dienste.de/Device/1"/>
      </who>
      <sigFormat value="application/pkcs7-mime"/>
      <data value=""/>
   </signature>
</Bundle>