{
  "resourceType": "Bundle",
  "id": "baf89507-ba99-4201-b2a0-149b02b35053",
  "meta": {
    "profile": [
      "https://gematik.de/fhir/erp/StructureDefinition/GEM_ERP_PR_Bundle|1.4"
    ]
  },
  "identifier": {
    "system": "https://gematik.de/fhir/erp/NamingSystem/GEM_ERP_NS_PrescriptionId",
    "value": "200.424.187.927.272.20"
  },
  "type": "document",
  "timestamp": "2025-02-03T11:40:00+00:00",
  "link": [
    {
      "relation": "self",
      "url": "https://erp-ref.zentral.erp.splitdns.ti-dienste.de/Task/200.424.187.927.272.20/$close/"
    }
  ],
  "entry": [
    {
      "fullUrl": "urn:uuid:4cba5974-7383-48f4-9c66-81dc94dbd0a7",
      "resource": {
        "resourceType": "Composition",
        "id": "4cba5974-7383-48f4-9c66-81dc94dbd0a7",
        "meta": {
          "profile": [
            "https://gematik.de/fhir/erp/StructureDefinition/GEM_ERP_PR_Composition|1.4"
          ]
        },
        "extension": [
          {
            "url": "https://gematik.de/fhir/erp/StructureDefinition/GEM_ERP_EX_Beneficiary",
            "valueIdentifier": {
              "system": "https://gematik.de/fhir/sid/telematik-id",
              "value": "3-11.2.0000044180.360"
            }
          }
        ],
        "status": "final",
        "type": {
          "coding": [
            {
              "system": "https://gematik.de/fhir/erp/CodeSystem/GEM_ERP_CS_DocumentType",
              "code": "3",
              "display": "Receipt"
            }
          ]
        },
        "date": "2025-02-03T11:40:00.000+00:00",
        "author": [
          {
            "reference": "urn:uuid:44eaed0d-50ef-4662-855d-bef93957c2ba"
          }
        ],
        "title": "Quittung",
        "event": [
          {
            "period": {
              "start": "2025-02-03T11:20:00.000+00:00",
              "end": "2025-02-03T11:40:00.000+00:00"
            }
          }
        ],
        "section": [
          {
            "entry": [
              {
                "reference": "urn:uuid:aa915f17-2b44-4167-8b5f-f977227e272f"
              }
            ]
          }
        ]
      }
    },
    {
      "fullUrl": "urn:uuid:44eaed0d-50ef-4662-855d-bef93957c2ba",
      "resource": {
        "resourceType": "Device",
        "id": "1",
        "meta": {
          "profile": [
            "https://gematik.de/fhir/erp/StructureDefinition/GEM_ERP_PR_Device|1.4"
          ]
        },
        "status": "active",
        "serialNumber": "1.15.0",
        "deviceName": [
          {
            "name": "E-Rezept Fachdienst",
            "type": "user-friendly-name"
          }
        ],
        "version": [
          {
            "value": "1.15.0"
          }
        ],
        "contact": [
          {
            "system": "email",
            "value": "betrieb@gematik.de"
          }
        ]
      }
    },
    {
      "fullUrl": "urn:uuid:aa915f17-2b44-4167-8b5f-f977227e272f",
      "resource": {
        "resourceType": "Binary",
        "id": "aa915f17-2b44-4167-8b5f-f977227e272f",
        "meta": {
          "versionId": "1",
          "profile": [
            "https://gematik.de/fhir/erp/StructureDefinition/GEM_ERP_PR_Digest|1.4"
          ]
        },
        "contentType": "application/octet-stream",
        "data": "PM4dE+0J/Ug9MB6sKSuwzstg0UBt9L/3YHQjg1DUvVg="
      }
    }
  ],
  "signature": {
    "type": [
      {
        "system": "urn:iso-astm:E1762-95:2013",
        "code": "1.2.840.10065.1.12.1.1"
      }
    ],
    "when": "2025-02-03T11:40:00+00:00",
    "who": {
      "reference": "urn:uuid:44eaed0d-50ef-4662-855d-bef93957c2ba"
    },
    "sigFormat": "application/pkcs7-mime",
    "data": "Y2RjMTVjNThkMzlkMjllNDdjMTk1MjIzNDlkODRjMThiNTliYTZkMGFhZmI5NGYyZjM2NDFkNGJiZTk1ODhiMQ=="
  }
}