<Bundle xmlns="http://hl7.org/fhir">
   <id value="c8df0125-0000-0000-0003-000000000000"/>
   <meta>
      <profile value="https://gematik.de/fhir/erp/StructureDefinition/GEM_ERP_PR_Bundle|1.4"/>
   </meta>
   <identifier>
      <system value="https://gematik.de/fhir/erp/NamingSystem/GEM_ERP_NS_PrescriptionId"/>
      <value value="200.000.002.425.311.11"/>
   </identifier>
   <type value="document"/>
   <timestamp value="2025-03-28T08:07:08.058+00:00"/>
   <link>
      <relation value="self"/>
      <url value="https://erp-ref.zentral.erp.splitdns.ti-dienste.de/Task/200.000.002.425.311.11/$close/"/>
   </link>
   <entry>
      <fullUrl value="urn:uuid:d5a1b223-f23f-4ef0-9e69-bbcc0df09ec8"/>
      <resource>
         <Composition xmlns="http://hl7.org/fhir">
            <id value="d5a1b223-f23f-4ef0-9e69-bbcc0df09ec8"/>
            <meta>
               <profile value="https://gematik.de/fhir/erp/StructureDefinition/GEM_ERP_PR_Composition|1.4"/>
            </meta>
            <extension url="https://gematik.de/fhir/erp/StructureDefinition/GEM_ERP_EX_Beneficiary">
               <valueIdentifier>
                  <system value="https://gematik.de/fhir/sid/telematik-id"/>
                  <value value="3-SMC-B-Testkarte--883110000163973"/>
               </valueIdentifier>
            </extension>
            <status value="final"/>
            <type>
               <coding>
                  <system value="https://gematik.de/fhir/erp/CodeSystem/GEM_ERP_CS_DocumentType"/>
                  <code value="3"/>
                  <display value="Receipt"/>
               </coding>
            </type>
            <date value="2025-03-28T08:07:08.048+00:00"/>
            <author>
               <reference value="urn:uuid:7f0972b4-4a66-4b19-ab99-cfda570b8d33"/>
            </author>
            <title value="Quittung"/>
            <event>
               <period>
                  <start value="2025-03-28T08:07:07.746+00:00"/>
                  <end value="2025-03-28T08:07:08.048+00:00"/>
               </period>
            </event>
            <section>
               <entry>
                  <reference value="urn:uuid:902576de-4082-452a-87f1-99972d575fff"/>
               </entry>
            </section>
         </Composition>
      </resource>
   </entry>
   <entry>
      <fullUrl value="urn:uuid:7f0972b4-4a66-4b19-ab99-cfda570b8d33"/>
      <resource>
         <Device xmlns="http://hl7.org/fhir">
            <id value="1"/>
            <meta>
               <profile value="https://gematik.de/fhir/erp/StructureDefinition/GEM_ERP_PR_Device|1.4"/>
            </meta>
            <status value="active"/>
            <serialNumber value="1.17.0"/>
            <deviceName>
               <name value="E-Rezept Fachdienst"/>
               <type value="user-friendly-name"/>
            </deviceName>
            <version>
               <value value="1.17.0"/>
            </version>
            <contact>
               <system value="email"/>
               <value value="betrieb@gematik.de"/>
            </contact>
         </Device>
      </resource>
   </entry>
   <entry>
      <fullUrl value="urn:uuid:902576de-4082-452a-87f1-99972d575fff"/>
      <resource>
         <Binary xmlns="http://hl7.org/fhir">
            <id value="902576de-4082-452a-87f1-99972d575fff"/>
            <meta>
               <versionId value="1"/>
               <profile value="https://gematik.de/fhir/erp/StructureDefinition/GEM_ERP_PR_Digest|1.4"/>
            </meta>
            <contentType value="application/octet-stream"/>
            <data value="5bgx4m9VLe+1I4t/cxl7AbB+1P8sE+4YQNVxkcaBazo="/>
         </Binary>
      </resource>
   </entry>
   <signature>
      <type>
         <system value="urn:iso-astm:E1762-95:2013"/>
         <code value="1.2.840.10065.1.12.1.1"/>
      </type>
      <when value="2025-03-28T08:07:08.060+00:00"/>
      <who>
         <reference value="urn:uuid:7f0972b4-4a66-4b19-ab99-cfda570b8d33"/>
      </who>
      <sigFormat value="application/pkcs7-mime"/>
      <data value=""/>
   </signature>
</Bundle>