<Bundle xmlns="http://hl7.org/fhir">
	<id value="c040d8ff-ffb3-1234-asdf-dec3de4f4ff3"/>
	<meta>
		<profile value="https://gematik.de/fhir/StructureDefinition/ErxReceipt|1.1.0" />
		<tag>
			<display value="Beispiel Quittung für erfolgreich durchlaufenen E-Rezept-Workflow = dispensiertes E-Rezept" />
		</tag>
	</meta>
	<identifier>
		<system value="https://gematik.de/fhir/NamingSystem/PrescriptionID" />
		<value value="160.123.456.789.123.58" />
	</identifier>
	<type value="document" />
	<timestamp value="2020-03-20T07:31:34.328+00:00" />
	<entry>
		<fullUrl value="https://erp.zentral.erp.splitdns.ti-dienste.de/Composition/2186f464-1f9c-11ec-9621-0242ac130002" />
		<resource>
			<Composition>
				<id value="2186f464-1f9c-11ec-9621-0242ac130002" />
				<meta>
					<profile value="https://gematik.de/fhir/StructureDefinition/ErxComposition|1.1.0" />
				</meta>
				<extension url="https://gematik.de/fhir/StructureDefinition/BeneficiaryExtension">
					<valueIdentifier>
						<system value="https://gematik.de/fhir/NamingSystem/TelematikID" />
						<value value="3-abc-1234567890" />
					</valueIdentifier>
				</extension>
				<status value="final" />
				<type>
					<coding>
						<system value="https://gematik.de/fhir/CodeSystem/Documenttype" />
						<code value="3" />
						<display value="Receipt"/>
					</coding>
				</type>
				<date value="2020-03-20T07:31:34.328+00:00" />
				<author>
					<reference value="Device/1" />
					<type value="Device"/>
				</author>
				<title value="Quittung" />
				<event>
					<period>
						<start value="2020-03-20T07:23:34.328+00:00" />
						<end value="2020-03-20T07:31:34.328+00:00" />
					</period>
				</event>
				<section>
					<entry>
						<reference value="Binary/Prescription123" />
						<type value="Binary"/>
					</entry>
				</section>
			</Composition>
		</resource>
	</entry>
	<entry>
		<fullUrl value="https://erp.zentral.erp.splitdns.ti-dienste.de/Device/1" />
		<resource>
			<Device>
				<id value="1"/>
				<meta>
					<profile value="https://gematik.de/fhir/StructureDefinition/ErxDevice|1.1.0" />
				</meta>
				<status value="active"/>
				<serialNumber value="1.0.0"/>
				<deviceName>
					<name value="E-Rezept Fachdienst"/>
					<type value="user-friendly-name"/>
				</deviceName>
				<version>
					<value value="1.0.0"/>
				</version>
				<contact>
					<system value="email"/>
					<value value="betrieb@gematik.de"/>
				</contact>
			</Device>
		</resource>
	</entry>
	<entry>
		<fullUrl value="https://erp.zentral.erp.splitdns.ti-dienste.de/Binary/Prescription123" />
		<resource>
			<Binary>
				<id value="Prescription123"/>
				<contentType value="application/octet-stream"/>
				<data value="Y2RjMTVjNThkMzlkMjllNDdjMTk1MjIzNDlkODRjMThiNTliYTZkMGFhZmI5NGYyZjM2NDFkNGJiZTk1ODhiMQ=="/>
			</Binary>
		</resource>
	</entry>
	<signature>
		<type>
			<system value="urn:iso-astm:E1762-95:2013" />
			<code value="1.2.840.10065.1.12.1.1" />
		</type>
		<when value="2020-03-20T07:31:34.328+00:00" />
		<who>
			<reference value="https://erp-ref.zentral.erp.splitdns.ti-dienste.de/Device/1" />
		</who>
		<sigFormat value="application/pkcs7-mime" />
		<data value="MIII FQYJ KoZI hvcN AQcC oIII BjCC CAIC AQEx DzAN Bglg hkgB ZQME AgEF ADAL" />
	</signature>
</Bundle>