<Bundle xmlns="http://hl7.org/fhir"><id value="5d065995-4200-45ab-8452-48bc5171a626"/><meta><lastUpdated value="2023-04-21T09:12:20.308+02:00"/><profile value="http://fhir.abda.de/eRezeptAbgabedaten/StructureDefinition/DAV-PKV-PR-ERP-AbgabedatenBundle|1.1"/></meta><identifier><system value="https://gematik.de/fhir/erp/NamingSystem/GEM_ERP_NS_PrescriptionId"/><value value="200.000.001.944.090.23"/></identifier><type value="document"/><timestamp value="2023-04-21T09:12:20.308+02:00"/><entry><fullUrl value="urn:uuid:aae01f56-dbcc-4d1c-9fae-8cdf4027a7a1"/><resource><Composition xmlns="http://hl7.org/fhir"><id value="aae01f56-dbcc-4d1c-9fae-8cdf4027a7a1"/><meta><profile value="http://fhir.abda.de/eRezeptAbgabedaten/StructureDefinition/DAV-PKV-PR-ERP-AbgabedatenComposition|1.1"/></meta><status value="final"/><type><coding><system value="http://fhir.abda.de/eRezeptAbgabedaten/CodeSystem/DAV-CS-ERP-CompositionTypes"/><code value="ERezeptAbgabedaten"/></coding></type><date value="2023-04-21T09:12:20+02:00"/><author><reference value="urn:uuid:cdf57796-a282-43bc-a772-504866919d79"/></author><title value="ERezeptAbgabedaten"/><section><title value="Apotheke"/><entry><reference value="urn:uuid:cdf57796-a282-43bc-a772-504866919d79"/></entry></section><section><title value="Abgabeinformationen"/><entry><reference value="urn:uuid:a6fb0705-348e-4310-a7be-55555f8a1acf"/></entry></section></Composition></resource></entry><entry><fullUrl value="urn:uuid:cdf57796-a282-43bc-a772-504866919d79"/><resource><Organization xmlns="http://hl7.org/fhir"><id value="cdf57796-a282-43bc-a772-504866919d79"/><meta><profile value="http://fhir.abda.de/eRezeptAbgabedaten/StructureDefinition/DAV-PKV-PR-ERP-Apotheke|1.1"/></meta><identifier><system value="http://fhir.de/sid/arge-ik/iknr"/><value value="964607550"/></identifier><name value="Apotheke Earl E. Byrd"/><address><type value="physical"/><line value="Treuburger Str. 56a"><extension url="http://hl7.org/fhir/StructureDefinition/iso21090-ADXP-houseNumber"><valueString value="56a"/></extension><extension url="http://hl7.org/fhir/StructureDefinition/iso21090-ADXP-streetName"><valueString value="Treuburger Str."/></extension></line><city value="Klein Zarastadt"/><postalCode value="22541"/><country value="D"/></address></Organization></resource></entry><entry><fullUrl value="urn:uuid:ed84bb95-04f6-4025-aa75-8085e39beff0"/><resource><Invoice xmlns="http://hl7.org/fhir"><id value="ed84bb95-04f6-4025-aa75-8085e39beff0"/><meta><profile value="http://fhir.abda.de/eRezeptAbgabedaten/StructureDefinition/DAV-PKV-PR-ERP-Abrechnungszeilen|1.1"/></meta><status value="issued"/><type><coding><system value="http://fhir.abda.de/eRezeptAbgabedaten/CodeSystem/DAV-CS-ERP-InvoiceTyp"/><code value="Abrechnungszeilen"/></coding></type><lineItem><sequence value="1"/><chargeItemCodeableConcept><coding><system value="http://fhir.de/CodeSystem/ifa/pzn"/><code value="32574348"/></coding></chargeItemCodeableConcept><priceComponent><extension url="http://fhir.abda.de/eRezeptAbgabedaten/StructureDefinition/DAV-EX-ERP-KostenVersicherter"><extension url="Kategorie"><valueCodeableConcept><coding><system value="http://fhir.abda.de/eRezeptAbgabedaten/CodeSystem/DAV-PKV-CS-ERP-KostenVersicherterKategorie"/><code value="0"/></coding></valueCodeableConcept></extension><extension url="Kostenbetrag"><valueMoney><value value="139.33"/><currency value="EUR"/></valueMoney></extension></extension><extension url="http://fhir.abda.de/eRezeptAbgabedaten/StructureDefinition/DAV-EX-ERP-MwStSatz"><valueDecimal value="18.77"/></extension><type value="informational"/><factor value="1"/><amount><value value="318.80"/><currency value="EUR"/></amount></priceComponent></lineItem><totalGross><extension url="http://fhir.abda.de/eRezeptAbgabedaten/StructureDefinition/DAV-EX-ERP-Gesamtzuzahlung"><valueMoney><value value="139.33"/><currency value="EUR"/></valueMoney></extension><value value="318.80"/><currency value="EUR"/></totalGross></Invoice></resource></entry><entry><fullUrl value="urn:uuid:a6fb0705-348e-4310-a7be-55555f8a1acf"/><resource><MedicationDispense xmlns="http://hl7.org/fhir"><id value="a6fb0705-348e-4310-a7be-55555f8a1acf"/><meta><profile value="http://fhir.abda.de/eRezeptAbgabedaten/StructureDefinition/DAV-PKV-PR-ERP-Abgabeinformationen|1.1"/></meta><extension url="http://fhir.abda.de/eRezeptAbgabedaten/StructureDefinition/DAV-PKV-EX-ERP-AbrechnungsTyp"><valueCodeableConcept><coding><system value="http://fhir.abda.de/eRezeptAbgabedaten/CodeSystem/DAV-PKV-CS-ERP-AbrechnungsTyp"/><code value="1"/></coding></valueCodeableConcept></extension><extension url="http://fhir.abda.de/eRezeptAbgabedaten/StructureDefinition/DAV-EX-ERP-Abrechnungszeilen"><valueReference><reference value="urn:uuid:ed84bb95-04f6-4025-aa75-8085e39beff0"/></valueReference></extension><status value="completed"/><medicationCodeableConcept><coding><system value="http://terminology.hl7.org/CodeSystem/data-absent-reason"/><code value="not-applicable"/></coding></medicationCodeableConcept><performer><actor><reference value="urn:uuid:cdf57796-a282-43bc-a772-504866919d79"/></actor></performer><authorizingPrescription><identifier><system value="https://gematik.de/fhir/erp/NamingSystem/GEM_ERP_NS_PrescriptionId"/><value value="200.000.001.944.090.23"/></identifier></authorizingPrescription><type><coding><system value="http://fhir.abda.de/eRezeptAbgabedaten/CodeSystem/DAV-CS-ERP-MedicationDispenseTyp"/><code value="Abgabeinformationen"/></coding></type><whenHandedOver value="2023-04-21"/></MedicationDispense></resource></entry></Bundle>