{
  "resourceType": "Bundle",
  "id": "1730fb75-9a3b-40de-8d95-ddf2f6acc93e",
  "meta": {
    "profile": [
      "https://fhir.gkvsv.de/StructureDefinition/GKVSV_PR_TA7_Rechnung_Bundle|1.4"
    ],
    "tag": [
      {
        "display": "Beispiel der TA7/eAbrechnungsdaten."
      },
      {
        "display": "ACHTUNG! Der fachlich korrekte Inhalt der Beispielinstanz kann nicht gew채hrleistet werden. Wir sind jederzeit dankbar f체r Hinweise auf Fehler oder f체r Verbesserungsvorschl채ge."
      }
    ]
  },
  "identifier": {
    "extension": [
      {
        "url": "https://fhir.gkvsv.de/StructureDefinition/GKVSV_EX_ERP_TA7_Dateinummer",
        "valueString": "00001"
      }
    ],
    "system": "https://fhir.gkvsv.de/NamingSystem/GKVSV_NS_Dateiname",
    "value": "B00FHR24001"
  },
  "type": "document",
  "timestamp": "2025-02-02T10:00:00+00:00",
  "entry": [
    {
      "fullUrl": "urn:uuid:b2328a38-ed42-47d4-bf2c-295556ea408d",
      "resource": {
        "resourceType": "Composition",
        "id": "b2328a38-ed42-47d4-bf2c-295556ea408d",
        "meta": {
          "profile": [
            "https://fhir.gkvsv.de/StructureDefinition/GKVSV_PR_TA7_Rechnung_Composition|1.4"
          ]
        },
        "extension": [
          {
            "url": "https://fhir.gkvsv.de/StructureDefinition/GKVSV_EX_TA7_IK_Empfaenger",
            "valueIdentifier": {
              "system": "http://fhir.de/sid/arge-ik/iknr",
              "value": "101575519"
            }
          },
          {
            "url": "https://fhir.gkvsv.de/StructureDefinition/GKVSV_EX_TA7_IK_Kostentraeger",
            "valueIdentifier": {
              "system": "http://fhir.de/sid/arge-ik/iknr",
              "value": "101575519"
            }
          }
        ],
        "identifier": {
          "system": "https://fhir.gkvsv.de/NamingSystem/GKVSV_NS_Rechnungsnummer",
          "value": "109777509-01-020225"
        },
        "status": "final",
        "type": {
          "coding": [
            {
              "system": "https://fhir.gkvsv.de/CodeSystem/GKVSV_CS_ERP_Rechnungsart",
              "code": "6"
            }
          ]
        },
        "date": "2025-01-31",
        "_date": {
          "extension": [
            {
              "url": "https://fhir.gkvsv.de/StructureDefinition/GKVSV_EX_ERP_TA7_Rechnungsdatum",
              "valueDateTime": "2025-02-02"
            }
          ]
        },
        "author": [
          {
            "identifier": {
              "system": "http://fhir.de/sid/arge-ik/iknr",
              "value": "987654321"
            }
          }
        ],
        "title": "elektronische Rechnung",
        "section": [
          {
            "code": {
              "coding": [
                {
                  "system": "https://fhir.gkvsv.de/CodeSystem/GKVSV_CS_ERP_TA7",
                  "code": "LR"
                }
              ]
            },
            "entry": [
              {
                "reference": "urn:uuid:ceecc4dd-8b8c-4a17-8fa1-b1b063821446"
              }
            ]
          },
          {
            "code": {
              "coding": [
                {
                  "system": "https://fhir.gkvsv.de/CodeSystem/GKVSV_CS_ERP_TA7",
                  "code": "RB",
                  "display": "Rezept-Bundle"
                }
              ]
            },
            "entry": [
              {
                "reference": "urn:uuid:e5c55b6e-215e-4052-8e21-5bbd9ba7d5af"
              }
            ]
          }
        ]
      }
    },
    {
      "fullUrl": "urn:uuid:ceecc4dd-8b8c-4a17-8fa1-b1b063821446",
      "resource": {
        "resourceType": "List",
        "id": "ceecc4dd-8b8c-4a17-8fa1-b1b063821446",
        "meta": {
          "profile": [
            "https://fhir.gkvsv.de/StructureDefinition/GKVSV_PR_TA7_Rechnung_List|1.4"
          ]
        },
        "status": "current",
        "mode": "working",
        "entry": [
          {
            "item": {
              "identifier": {
                "system": "https://fhir.gkvsv.de/NamingSystem/GKVSV_NS_Dateiname",
                "value": "B00FHR24001"
              }
            }
          }
        ]
      }
    },
    {
      "fullUrl": "urn:uuid:e5c55b6e-215e-4052-8e21-5bbd9ba7d5af",
      "resource": {
        "resourceType": "Bundle",
        "id": "e5c55b6e-215e-4052-8e21-5bbd9ba7d5af",
        "meta": {
          "profile": [
            "https://fhir.gkvsv.de/StructureDefinition/GKVSV_PR_TA7_RezeptBundle|1.4"
          ]
        },
        "type": "collection",
        "entry": [
          {
            "link": [
              {
                "relation": "item",
                "url": "https://fhir.kbv.de/StructureDefinition/KBV_PR_ERP_Bundle"
              }
            ],
            "fullUrl": "urn:uuid:31e00cf5-e90a-4fc9-a438-1d98041483ff",
            "resource": {
              "resourceType": "Binary",
              "id": "31e00cf5-e90a-4fc9-a438-1d98041483ff",
              "meta": {
                "profile": [
                  "https://fhir.gkvsv.de/StructureDefinition/GKVSV_PR_Binary|1.4"
                ]
              },
              "contentType": "application/pkcs7-mime",
              "data": "VmVyb3JkbnVuZ3NkYXRlbiBCZWlzcGllbCBFcnN0ZWxsdW5nIEJlaXNwaWVsIGVBYnJlY2hudW5nc2RhdGVu"
            }
          },
          {
            "link": [
              {
                "relation": "item",
                "url": "https://gematik.de/fhir/StructureDefinition/ErxReceipt"
              }
            ],
            "fullUrl": "urn:uuid:3370028b-ae75-4cc2-a251-5ec40cb8ef25",
            "resource": {
              "resourceType": "Binary",
              "id": "3370028b-ae75-4cc2-a251-5ec40cb8ef25",
              "meta": {
                "profile": [
                  "https://fhir.gkvsv.de/StructureDefinition/GKVSV_PR_Binary|1.4"
                ]
              },
              "contentType": "application/pkcs7-mime",
              "data": "UXVpdHR1bmdzLUJlaXNwaWVsIEVyc3RlbGx1bmcgQmVpc3BpZWwgZUFicmVjaG51bmdzZGF0ZW4="
            }
          },
          {
            "link": [
              {
                "relation": "item",
                "url": "http://fhir.abda.de/eRezeptAbgabedaten/StructureDefinition/DAV-PR-ERP-AbgabedatenBundle"
              }
            ],
            "fullUrl": "urn:uuid:0124a84a-7792-4f13-8a39-dfb20176a399",
            "resource": {
              "resourceType": "Binary",
              "id": "0124a84a-7792-4f13-8a39-dfb20176a399",
              "meta": {
                "profile": [
                  "https://fhir.gkvsv.de/StructureDefinition/GKVSV_PR_Binary|1.4"
                ]
              },
              "contentType": "application/pkcs7-mime",
              "data": "ZUFiZ2FiZWRhdGVuIEJlaXNwaWVsIEVyc3RlbGx1bmcgQmVpc3BpZWwgZUFicmVjaG51bmdzZGF0ZW4="
            }
          },
          {
            "link": [
              {
                "relation": "item",
                "url": "https://fhir.gkvsv.de/StructureDefinition/GKVSV_PR_ERP_eAbrechnungsdaten"
              }
            ],
            "fullUrl": "urn:uuid:acd37e98-2b59-42f0-b163-51cea0f6c1f8",
            "resource": {
              "resourceType": "Invoice",
              "id": "acd37e98-2b59-42f0-b163-51cea0f6c1f8",
              "meta": {
                "profile": [
                  "https://fhir.gkvsv.de/StructureDefinition/GKVSV_PR_ERP_eAbrechnungsdaten|1.4"
                ]
              },
              "extension": [
                {
                  "url": "https://fhir.gkvsv.de/StructureDefinition/GKVSV_EX_ERP_Irrlaeufer",
                  "valueBoolean": false
                }
              ],
              "identifier": [
                {
                  "system": "https://gematik.de/fhir/erp/NamingSystem/GEM_ERP_NS_PrescriptionId",
                  "value": "160.100.000.000.010.12"
                },
                {
                  "system": "https://fhir.gkvsv.de/NamingSystem/GKVSV_NS_Belegnummer",
                  "value": "2105000000013456789"
                }
              ],
              "status": "issued",
              "issuer": {
                "extension": [
                  {
                    "url": "https://fhir.gkvsv.de/StructureDefinition/GKVSV_EX_ERP_LE_Sitz",
                    "valueCoding": {
                      "system": "https://fhir.gkvsv.de/CodeSystem/GKVSV_CS_ERP_Leistungserbringer_Sitz",
                      "code": "1"
                    }
                  }
                ],
                "identifier": {
                  "type": {
                    "coding": [
                      {
                        "system": "https://fhir.gkvsv.de/CodeSystem/GKVSV_CS_ERP_Leistungserbringertyp",
                        "code": "A"
                      }
                    ]
                  },
                  "system": "http://fhir.de/sid/arge-ik/iknr",
                  "value": "308412345"
                }
              },
              "lineItem": [
                {
                  "extension": [
                    {
                      "url": "https://fhir.gkvsv.de/StructureDefinition/GKVSV_EX_ERP_Positionstyp",
                      "valueCodeableConcept": {
                        "coding": [
                          {
                            "system": "https://fhir.gkvsv.de/CodeSystem/GKVSV_CS_ERP_Positionstyp",
                            "code": "0",
                            "display": "Nullposition"
                          }
                        ]
                      }
                    },
                    {
                      "url": "https://fhir.gkvsv.de/StructureDefinition/GKVSV_EX_ERP_VAT_VALUE",
                      "valueMoney": {
                        "value": 2.42,
                        "currency": "EUR"
                      }
                    },
                    {
                      "url": "https://fhir.gkvsv.de/StructureDefinition/GKVSV_EX_ERP_Import",
                      "valueCodeableConcept": {
                        "coding": [
                          {
                            "system": "https://fhir.gkvsv.de/CodeSystem/GKVSV_CS_ERP_Import",
                            "code": "0"
                          }
                        ]
                      }
                    }
                  ],
                  "sequence": 1,
                  "chargeItemCodeableConcept": {
                    "coding": [
                      {
                        "system": "http://terminology.hl7.org/CodeSystem/v3-NullFlavor",
                        "code": "UNC"
                      }
                    ]
                  },
                  "priceComponent": [
                    {
                      "type": "deduction",
                      "code": {
                        "coding": [
                          {
                            "system": "https://fhir.gkvsv.de/CodeSystem/GKVSV_CS_ERP_ZuAbschlagKey",
                            "code": "R001"
                          }
                        ]
                      },
                      "amount": {
                        "value": -1.77,
                        "currency": "EUR"
                      }
                    }
                  ]
                }
              ]
            }
          }
        ]
      }
    }
  ]
}