<Parameters xmlns="http://hl7.org/fhir">
   <id value="33953e1e-ba6f-4ad9-9d0f-3d655a48239f"/>
   <meta>
      <profile value="https://gematik.de/fhir/epa-medication/StructureDefinition/epa-op-provide-dispensation-input-parameters"/>
   </meta>
   <parameter>
      <name value="dispensation"/>
      <part>
         <name value="medicationDispense"/>
         <resource>
            <MedicationDispense xmlns="http://hl7.org/fhir">
               <id value="c1515e45-31cf-4dc2-8c00-c4d205934bb5"/>
               <meta>
                  <profile value="https://gematik.de/fhir/epa-medication/StructureDefinition/epa-medication-dispense"/>
               </meta>
               <identifier>
                  <system value="https://gematik.de/fhir/erp/NamingSystem/GEM_ERP_NS_PrescriptionId"/>
                  <value value="160.000.764.737.300.50"/>
               </identifier>
               <status value="completed"/>
               <category>
                  <coding>
                     <system value="https://gematik.de/fhir/epa-medication/CodeSystem/EPAMedicationDispenseCategoryCS"/>
                     <code value="prescription"/>
                     <display value="prescription dispense"/>
                  </coding>
               </category>
               <medicationReference>
                  <reference value="Medication/41502ff4-dc48-4824-994e-10e97ed41532"/>
               </medicationReference>
               <subject>
                  <identifier>
                     <system value="http://fhir.de/sid/gkv/kvid-10"/>
                     <value value="X234567891"/>
                  </identifier>
               </subject>
               <performer>
                  <actor>
                     <reference value="Organization/676512a0-466d-4500-8570-8fef16fe4935"/>
                  </actor>
               </performer>
               <whenHandedOver value="2023-07-30"/>
               <dosageInstruction>
                  <text value="1-0-1-0"/>
               </dosageInstruction>
            </MedicationDispense>
         </resource>
      </part>
      <part>
         <name value="medication"/>
         <resource>
            <Medication xmlns="http://hl7.org/fhir">
               <id value="41502ff4-dc48-4824-994e-10e97ed41532"/>
               <meta>
                  <profile value="https://gematik.de/fhir/epa-medication/StructureDefinition/epa-medication"/>
               </meta>
               <extension url="https://gematik.de/fhir/epa-medication/StructureDefinition/drug-category-extension">
                  <valueCoding>
                     <system value="https://gematik.de/fhir/epa-medication/CodeSystem/epa-drug-category-cs"/>
                     <code value="00"/>
                  </valueCoding>
               </extension>
               <extension url="https://gematik.de/fhir/epa-medication/StructureDefinition/medication-id-vaccine-extension">
                  <valueBoolean value="false"/>
               </extension>
               <extension url="http://fhir.de/StructureDefinition/normgroesse">
                  <valueCode value="N3"/>
               </extension>
               <code>
                  <coding>
                     <system value="http://fhir.de/CodeSystem/ifa/pzn"/>
                     <code value="05454378"/>
                  </coding>
                  <text value="SUMATRIPTAN Aurobindo 100 mg Tabletten"/>
               </code>
               <form>
                  <coding>
                     <system value="https://fhir.kbv.de/CodeSystem/KBV_CS_SFHIR_KBV_DARREICHUNGSFORM"/>
                     <code value="TAB"/>
                  </coding>
               </form>
               <amount>
                  <numerator>
                     <extension url="https://gematik.de/fhir/epa-medication/StructureDefinition/medication-packaging-size-extension">
                        <valueString value="12"/>
                     </extension>
                     <unit value="Tabletten"/>
                  </numerator>
                  <denominator>
                     <value value="1"/>
                  </denominator>
               </amount>
               <batch>
                  <lotNumber value="A123456789-1"/>
                  <expirationDate value="2024-12-31"/>
               </batch>
            </Medication>
         </resource>
      </part>
   </parameter>
   <parameter>
      <name value="performerInstitution"/>
      <resource>
         <Organization xmlns="http://hl7.org/fhir">
            <id value="676512a0-466d-4500-8570-8fef16fe4935"/>
            <meta>
               <profile value="https://gematik.de/fhir/directory/StructureDefinition/OrganizationDirectory"/>
               <tag>
                  <system value="https://gematik.de/fhir/directory/CodeSystem/Origin"/>
                  <code value="ldap"/>
               </tag>
            </meta>
            <identifier>
               <system value="https://gematik.de/fhir/sid/telematik-id"/>
               <value value="3-07.2.1234560000.10.789"/>
            </identifier>
            <type>
               <coding>
                  <system value="https://gematik.de/fhir/directory/CodeSystem/OrganizationProfessionOID"/>
                  <code value="1.2.276.0.76.4.58"/>
               </coding>
            </type>
            <name value="Alec Tricity"/>
         </Organization>
      </resource>
   </parameter>
</Parameters>