{
  "resourceType": "Bundle",
  "id": "erp-versicherte-02-response-taskGetSingle",
  "meta": {
    "lastUpdated": "2025-01-15T15:29:00.434+00:00"
  },
  "type": "collection",
  "link": [
    {
      "relation": "self",
      "url": "https://erp.app.ti-dienste.de/Task/160.000.000.000.000.01"
    }
  ],
  "entry": [
    {
      "fullUrl": "https://erp.app.ti-dienste.de/Task/160.000.000.000.000.01",
      "resource": {
        "resourceType": "Task",
        "id": "160.000.000.000.000.01",
        "meta": {
          "profile": [
            "https://gematik.de/fhir/erp/StructureDefinition/GEM_ERP_PR_Task|1.5"
          ]
        },
        "intent": "order",
        "extension": [
          {
            "url": "https://gematik.de/fhir/erp/StructureDefinition/GEM_ERP_EX_PrescriptionType",
            "valueCoding": {
              "code": "160",
              "system": "https://gematik.de/fhir/erp/CodeSystem/GEM_ERP_CS_FlowType",
              "display": "Muster 16 (Apothekenpflichtige Arzneimittel)"
            }
          },
          {
            "url": "https://gematik.de/fhir/erp/StructureDefinition/GEM_ERP_EX_AcceptDate",
            "valueDate": "2025-02-12"
          },
          {
            "url": "https://gematik.de/fhir/erp/StructureDefinition/GEM_ERP_EX_ExpiryDate",
            "valueDate": "2025-04-15"
          }
        ],
        "identifier": [
          {
            "use": "official",
            "system": "https://gematik.de/fhir/erp/NamingSystem/GEM_ERP_NS_PrescriptionId",
            "value": "160.000.000.000.000.01"
          },
          {
            "system": "https://gematik.de/fhir/erp/NamingSystem/GEM_ERP_NS_AccessCode",
            "use": "official",
            "value": "777bea0e13cc9c42ceec14aec3ddee2263325dc2c6c699db115f58fe423607ea"
          }
        ],
        "for": {
          "identifier": {
            "system": "http://fhir.de/sid/gkv/kvid-10",
            "value": "X123456789"
          }
        },
        "input": [
          {
            "type": {
              "coding": [
                {
                  "code": "2",
                  "system": "https://gematik.de/fhir/erp/CodeSystem/GEM_ERP_CS_DocumentType"
                }
              ]
            },
            "valueReference": {
              "reference": "414ca393-dde3-4082-9a3b-3752e629e4aa"
            }
          }
        ],
        "status": "ready",
        "authoredOn": "2025-01-15T15:29:00+00:00",
        "lastModified": "2025-01-15T15:29:00.434+00:00",
        "performerType": [
          {
            "coding": [
              {
                "code": "urn:oid:1.2.276.0.76.4.54",
                "system": "https://gematik.de/fhir/erp/CodeSystem/GEM_ERP_CS_OrganizationType",
                "display": "Öffentliche Apotheke"
              }
            ],
            "text": "Öffentliche Apotheke"
          }
        ]
      }
    },
    {
      "fullUrl": "urn:uuid:414ca393-dde3-4082-9a3b-3752e629e4aa",
      "resource": {
        "resourceType": "Bundle",
        "id": "414ca393-dde3-4082-9a3b-3752e629e4aa",
        "meta": {
          "profile": [
            "https://fhir.kbv.de/StructureDefinition/KBV_PR_ERP_Bundle|1.2"
          ],
          "lastUpdated": "2025-01-15T15:29:00.434+00:00"
        },
        "type": "document",
        "identifier": {
          "system": "https://gematik.de/fhir/erp/NamingSystem/GEM_ERP_NS_PrescriptionId",
          "value": "160.000.000.000.000.01"
        },
        "timestamp": "2025-01-15T15:29:00.434+00:00",
        "entry": [
          {
            "fullUrl": "http://pvs.praxis-topp-gluecklich.local/fhir/Composition/b0e22b86-e7e9-46c1-80fe-e6e24442d77c",
            "resource": {
              "resourceType": "Composition",
              "id": "b0e22b86-e7e9-46c1-80fe-e6e24442d77c",
              "meta": {
                "profile": [
                  "https://fhir.kbv.de/StructureDefinition/KBV_PR_ERP_Composition|1.2"
                ]
              },
              "status": "final",
              "title": "elektronische Arzneimittelverordnung",
              "author": [
                {
                  "type": "Practitioner",
                  "reference": "Practitioner/d8463daf-258e-4cad-a86a-6fd42fac161c"
                },
                {
                  "identifier": {
                    "system": "https://fhir.kbv.de/NamingSystem/KBV_NS_FOR_Pruefnummer",
                    "value": "Y/400/1910/36/346"
                  },
                  "type": "Device"
                }
              ],
              "type": {
                "coding": [
                  {
                    "system": "https://fhir.kbv.de/CodeSystem/KBV_CS_SFHIR_KBV_FORMULAR_ART",
                    "code": "e16A"
                  }
                ]
              },
              "extension": [
                {
                  "url": "https://fhir.kbv.de/StructureDefinition/KBV_EX_FOR_Legal_basis",
                  "valueCoding": {
                    "code": "00",
                    "system": "https://fhir.kbv.de/CodeSystem/KBV_CS_SFHIR_KBV_STATUSKENNZEICHEN"
                  }
                }
              ],
              "attester": [
                {
                  "mode": "legal",
                  "party": {
                    "reference": "Practitioner/20597e0e-cb2a-45b3-95f0-dc3dbdb617c3"
                  }
                }
              ],
              "section": [
                {
                  "code": {
                    "coding": [
                      {
                        "system": "https://fhir.kbv.de/CodeSystem/KBV_CS_ERP_Section_Type",
                        "code": "Prescription"
                      }
                    ]
                  },
                  "entry": [
                    {
                      "reference": "MedicationRequest/f58f4403-7a3a-4a12-bb15-b2fa25b02561"
                    }
                  ]
                },
                {
                  "code": {
                    "coding": [
                      {
                        "system": "https://fhir.kbv.de/CodeSystem/KBV_CS_ERP_Section_Type",
                        "code": "Coverage"
                      }
                    ]
                  },
                  "entry": [
                    {
                      "reference": "Coverage/1b1ffb6e-eb05-43d7-87eb-Cov-GKV"
                    }
                  ]
                }
              ],
              "subject": {
                "reference": "Patient/9774f67f-a238-4daf-b4e6-Pat-GKV"
              },
              "date": "2025-01-15T15:29:00.434+00:00",
              "custodian": {
                "reference": "Organization/cf042e44-086a-4d51-9c77-172f9a972e3b"
              }
            }
          },
          {
            "fullUrl": "http://pvs.praxis-topp-gluecklich.local/fhir/MedicationRequest/f58f4403-7a3a-4a12-bb15-b2fa25b02561",
            "resource": {
              "resourceType": "MedicationRequest",
              "id": "f58f4403-7a3a-4a12-bb15-b2fa25b02561",
              "meta": {
                "profile": [
                  "https://fhir.kbv.de/StructureDefinition/KBV_PR_ERP_Prescription|1.2"
                ]
              },
              "status": "active",
              "intent": "order",
              "extension": [
                {
                  "url": "https://fhir.kbv.de/StructureDefinition/KBV_EX_ERP_EmergencyServicesFee",
                  "valueBoolean": false
                },
                {
                  "url": "https://fhir.kbv.de/StructureDefinition/KBV_EX_FOR_SER",
                  "valueBoolean": false
                },
                {
                  "url": "https://fhir.kbv.de/StructureDefinition/KBV_EX_ERP_Multiple_Prescription",
                  "extension": [
                    {
                      "url": "Kennzeichen",
                      "valueBoolean": true
                    },
                    {
                      "url": "Nummerierung",
                      "valueRatio": {
                        "numerator": {
                          "value": 2
                        },
                        "denominator": {
                          "value": 4
                        }
                      }
                    },
                    {
                      "url": "Zeitraum",
                      "valuePeriod": {
                        "start": "2025-01-15",
                        "end": "2025-02-14"
                      }
                    },
                    {
                      "valueIdentifier": {
                        "system": "urn:ietf:rfc:3986",
                        "value": "urn:uuid:24e2e10d-e962-4d1c-be4f-8760e690a5f0"
                      },
                      "url": "ID"
                    }
                  ]
                },
                {
                  "url": "https://fhir.kbv.de/StructureDefinition/KBV_EX_FOR_StatusCoPayment",
                  "valueCoding": {
                    "code": "0",
                    "system": "https://fhir.kbv.de/CodeSystem/KBV_CS_FOR_StatusCoPayment"
                  }
                },
                {
                  "extension": [
                    {
                      "url": "Unfallkennzeichen",
                      "valueCoding": {
                        "code": "1",
                        "system": "https://fhir.kbv.de/CodeSystem/KBV_CS_FOR_Ursache_Type"
                      }
                    },
                    {
                      "url": "Unfalltag",
                      "valueDate": "2025-01-15"
                    }
                  ],
                  "url": "https://fhir.kbv.de/StructureDefinition/KBV_EX_FOR_Accident"
                }
              ],
              "dispenseRequest": {
                "quantity": {
                  "unit": "Packung",
                  "value": 2,
                  "code": "{Package}",
                  "system": "http://unitsofmeasure.org"
                }
              },
              "dosageInstruction": [
                {
                  "extension": [
                    {
                      "url": "https://fhir.kbv.de/StructureDefinition/KBV_EX_ERP_DosageFlag",
                      "valueBoolean": false
                    }
                  ]
                }
              ],
              "medicationReference": {
                "reference": "Medication/e3a4efa7-84fc-465b-b14c-720195097783"
              },
              "subject": {
                "reference": "Patient/9774f67f-a238-4daf-b4e6-Pat-GKV"
              },
              "authoredOn": "2025-01-15",
              "requester": {
                "reference": "Practitioner/d8463daf-258e-4cad-a86a-6fd42fac161c"
              },
              "insurance": [
                {
                  "reference": "Coverage/1b1ffb6e-eb05-43d7-87eb-Cov-GKV"
                }
              ],
              "note": [
                {
                  "text": "Dummy-Hinweis für die Apotheke"
                }
              ]
            }
          },
          {
            "fullUrl": "http://pvs.praxis-topp-gluecklich.local/fhir/Medication/e3a4efa7-84fc-465b-b14c-720195097783",
            "resource": {
              "resourceType": "Medication",
              "id": "e3a4efa7-84fc-465b-b14c-720195097783",
              "meta": {
                "profile": [
                  "https://fhir.kbv.de/StructureDefinition/KBV_PR_ERP_Medication_Ingredient|1.2"
                ]
              },
              "extension": [
                {
                  "url": "https://fhir.kbv.de/StructureDefinition/KBV_EX_ERP_Medication_Category",
                  "valueCoding": {
                    "code": "00",
                    "system": "https://fhir.kbv.de/CodeSystem/KBV_CS_ERP_Medication_Category"
                  }
                },
                {
                  "url": "https://fhir.kbv.de/StructureDefinition/KBV_EX_ERP_Medication_Vaccine",
                  "valueBoolean": false
                }
              ],
              "code": {
                "coding": [
                  {
                    "system": "https://fhir.kbv.de/CodeSystem/KBV_CS_ERP_Medication_Type",
                    "code": "wirkstoff"
                  }
                ]
              },
              "ingredient": [
                {
                  "strength": {
                    "denominator": {
                      "value": 1
                    },
                    "numerator": {
                      "value": 800,
                      "unit": "mg"
                    }
                  },
                  "itemCodeableConcept": {
                    "coding": [
                      {
                        "code": "Dummy-ASK",
                        "system": "http://fhir.de/CodeSystem/ask"
                      }
                    ],
                    "text": "Ibuprofen"
                  }
                }
              ],
              "amount": {
                "numerator": {
                  "extension": [
                    {
                      "url": "https://fhir.kbv.de/StructureDefinition/KBV_EX_ERP_Medication_PackagingSize",
                      "valueString": "2x20"
                    }
                  ],
                  "unit": "Stk"
                },
                "denominator": {
                  "value": 1
                }
              },
              "form": {
                "text": "Tabletten"
              }
            }
          },
          {
            "fullUrl": "http://pvs.praxis-topp-gluecklich.local/fhir/Patient/9774f67f-a238-4daf-b4e6-Pat-GKV",
            "resource": {
              "resourceType": "Patient",
              "id": "9774f67f-a238-4daf-b4e6-Pat-GKV",
              "meta": {
                "profile": [
                  "https://fhir.kbv.de/StructureDefinition/KBV_PR_FOR_Patient|1.2"
                ]
              },
              "name": [
                {
                  "use": "official",
                  "family": "Ludger Königsstein",
                  "_family": {
                    "extension": [
                      {
                        "url": "http://hl7.org/fhir/StructureDefinition/humanname-own-name",
                        "valueString": "Königsstein"
                      }
                    ]
                  },
                  "given": [
                    "Ludger"
                  ]
                }
              ],
              "identifier": [
                {
                  "type": {
                    "coding": [
                      {
                        "system": "http://fhir.de/CodeSystem/identifier-type-de-basis",
                        "code": "KVZ10"
                      }
                    ]
                  },
                  "system": "http://fhir.de/sid/gkv/kvid-10",
                  "value": "X234567890"
                }
              ],
              "address": [
                {
                  "type": "both",
                  "line": [
                    "Musterstr. 1"
                  ],
                  "_line": [
                    {
                      "extension": [
                        {
                          "url": "http://hl7.org/fhir/StructureDefinition/iso21090-ADXP-houseNumber",
                          "valueString": "1"
                        },
                        {
                          "url": "http://hl7.org/fhir/StructureDefinition/iso21090-ADXP-streetName",
                          "valueString": "Musterstr."
                        }
                      ]
                    }
                  ],
                  "city": "Berlin",
                  "postalCode": "10623"
                }
              ],
              "birthDate": "1935-06-22"
            }
          },
          {
            "fullUrl": "http://pvs.praxis-topp-gluecklich.local/fhir/Practitioner/20597e0e-cb2a-45b3-95f0-dc3dbdb617c3",
            "resource": {
              "resourceType": "Practitioner",
              "id": "20597e0e-cb2a-45b3-95f0-dc3dbdb617c3",
              "meta": {
                "profile": [
                  "https://fhir.kbv.de/StructureDefinition/KBV_PR_FOR_Practitioner|1.2"
                ]
              },
              "name": [
                {
                  "use": "official",
                  "prefix": [
                    "Dr. med."
                  ],
                  "_prefix": [
                    {
                      "extension": [
                        {
                          "url": "http://hl7.org/fhir/StructureDefinition/iso21090-EN-qualifier",
                          "valueCode": "AC"
                        }
                      ]
                    }
                  ],
                  "family": "Topp-Glücklich",
                  "_family": {
                    "extension": [
                      {
                        "url": "http://hl7.org/fhir/StructureDefinition/humanname-own-name",
                        "valueString": "Topp-Glücklich"
                      }
                    ]
                  },
                  "given": [
                    "Hans"
                  ]
                }
              ],
              "qualification": [
                {
                  "code": {
                    "coding": [
                      {
                        "system": "https://fhir.kbv.de/CodeSystem/KBV_CS_FOR_Qualification_Type",
                        "code": "00"
                      }
                    ]
                  }
                },
                {
                  "code": {
                    "coding": [
                      {
                        "system": "https://fhir.kbv.de/CodeSystem/KBV_CS_FOR_Berufsbezeichnung",
                        "code": "Berufsbezeichnung"
                      }
                    ],
                    "text": "FA Biochemie"
                  }
                }
              ],
              "identifier": [
                {
                  "type": {
                    "coding": [
                      {
                        "system": "http://terminology.hl7.org/CodeSystem/v2-0203",
                        "code": "LANR"
                      }
                    ]
                  },
                  "system": "https://fhir.kbv.de/NamingSystem/KBV_NS_Base_ANR",
                  "value": "838382202"
                }
              ]
            }
          },
          {
            "fullUrl": "http://pvs.praxis-topp-gluecklich.local/fhir/Practitioner/d8463daf-258e-4cad-a86a-6fd42fac161c",
            "resource": {
              "resourceType": "Practitioner",
              "id": "d8463daf-258e-4cad-a86a-6fd42fac161c",
              "meta": {
                "profile": [
                  "https://fhir.kbv.de/StructureDefinition/KBV_PR_FOR_Practitioner|1.2"
                ]
              },
              "name": [
                {
                  "use": "official",
                  "family": "Meier",
                  "_family": {
                    "extension": [
                      {
                        "url": "http://hl7.org/fhir/StructureDefinition/humanname-own-name",
                        "valueString": "Meier"
                      }
                    ]
                  },
                  "given": [
                    "Jörgen"
                  ]
                }
              ],
              "qualification": [
                {
                  "code": {
                    "coding": [
                      {
                        "system": "https://fhir.kbv.de/CodeSystem/KBV_CS_FOR_Qualification_Type",
                        "code": "03"
                      }
                    ]
                  }
                },
                {
                  "code": {
                    "coding": [
                      {
                        "system": "https://fhir.kbv.de/CodeSystem/KBV_CS_FOR_Berufsbezeichnung",
                        "code": "Berufsbezeichnung"
                      }
                    ],
                    "text": "FA Onkologie"
                  }
                }
              ],
              "identifier": [
                {
                  "type": {
                    "coding": [
                      {
                        "system": "http://terminology.hl7.org/CodeSystem/v2-0203",
                        "code": "LANR"
                      }
                    ]
                  },
                  "system": "https://fhir.kbv.de/NamingSystem/KBV_NS_Base_ANR",
                  "value": "838382210"
                }
              ]
            }
          },
          {
            "fullUrl": "http://pvs.praxis-topp-gluecklich.local/fhir/Organization/cf042e44-086a-4d51-9c77-172f9a972e3b",
            "resource": {
              "resourceType": "Organization",
              "id": "cf042e44-086a-4d51-9c77-172f9a972e3b",
              "meta": {
                "profile": [
                  "https://fhir.kbv.de/StructureDefinition/KBV_PR_FOR_Organization|1.2"
                ]
              },
              "telecom": [
                {
                  "system": "phone",
                  "value": "0301234567"
                }
              ],
              "address": [
                {
                  "type": "both",
                  "line": [
                    "Musterstr. 2"
                  ],
                  "_line": [
                    {
                      "extension": [
                        {
                          "url": "http://hl7.org/fhir/StructureDefinition/iso21090-ADXP-houseNumber",
                          "valueString": "2"
                        },
                        {
                          "url": "http://hl7.org/fhir/StructureDefinition/iso21090-ADXP-streetName",
                          "valueString": "Musterstr."
                        }
                      ]
                    }
                  ],
                  "city": "Berlin",
                  "postalCode": "10623"
                }
              ],
              "identifier": [
                {
                  "type": {
                    "coding": [
                      {
                        "system": "http://terminology.hl7.org/CodeSystem/v2-0203",
                        "code": "BSNR"
                      }
                    ]
                  },
                  "system": "https://fhir.kbv.de/NamingSystem/KBV_NS_Base_BSNR",
                  "value": "031234567"
                }
              ],
              "name": "Hausarztpraxis Dr. Topp-Glücklich"
            }
          },
          {
            "fullUrl": "http://pvs.praxis-topp-gluecklich.local/fhir/Coverage/1b1ffb6e-eb05-43d7-87eb-Cov-GKV",
            "resource": {
              "resourceType": "Coverage",
              "id": "1b1ffb6e-eb05-43d7-87eb-Cov-GKV",
              "meta": {
                "profile": [
                  "https://fhir.kbv.de/StructureDefinition/KBV_PR_FOR_Coverage|1.2"
                ]
              },
              "status": "active",
              "payor": [
                {
                  "identifier": {
                    "system": "http://fhir.de/sid/arge-ik/iknr",
                    "value": "104212059"
                  },
                  "display": "AOK Rheinland/Hamburg"
                }
              ],
              "extension": [
                {
                  "url": "http://fhir.de/StructureDefinition/gkv/besondere-personengruppe",
                  "valueCoding": {
                    "code": "00",
                    "system": "https://fhir.kbv.de/CodeSystem/KBV_CS_SFHIR_KBV_PERSONENGRUPPE"
                  }
                },
                {
                  "url": "http://fhir.de/StructureDefinition/gkv/dmp-kennzeichen",
                  "valueCoding": {
                    "code": "00",
                    "system": "https://fhir.kbv.de/CodeSystem/KBV_CS_SFHIR_KBV_DMP"
                  }
                },
                {
                  "url": "http://fhir.de/StructureDefinition/gkv/wop",
                  "valueCoding": {
                    "code": "03",
                    "system": "https://fhir.kbv.de/CodeSystem/KBV_CS_SFHIR_ITA_WOP"
                  }
                },
                {
                  "url": "http://fhir.de/StructureDefinition/gkv/versichertenart",
                  "valueCoding": {
                    "code": "1",
                    "system": "https://fhir.kbv.de/CodeSystem/KBV_CS_SFHIR_KBV_VERSICHERTENSTATUS"
                  }
                }
              ],
              "type": {
                "coding": [
                  {
                    "code": "GKV",
                    "system": "http://fhir.de/CodeSystem/versicherungsart-de-basis"
                  }
                ]
              },
              "beneficiary": {
                "reference": "Patient/9774f67f-a238-4daf-b4e6-Pat-GKV"
              }
            }
          }
        ]
      }
    }
  ]
}
