{
  "resourceType": "Bundle",
  "id": "7eb9fce3-9ce0-4b1c-ba2a-fab6fdd7a81e",
  "type": "collection",
  "timestamp": "2023-04-21T07:11:44.777+00:00",
  "entry": [
    {
      "fullUrl": "https://erp-dev.zentral.erp.splitdns.ti-dienste.de/ChargeItem/200.000.001.944.086.35",
      "resource": {
        "resourceType": "ChargeItem",
        "id": "200.000.001.944.086.35",
        "meta": {
          "profile": [
            "https://gematik.de/fhir/erpchrg/StructureDefinition/GEM_ERPCHRG_PR_ChargeItem|1.0"
          ]
        },
        "identifier": [
          {
            "system": "https://gematik.de/fhir/erp/NamingSystem/GEM_ERP_NS_AccessCode",
            "value": "0bc246e16521707ba78ee489ea0e049e6c9efd3761b0762d942c6b203421d766"
          },
          {
            "system": "https://gematik.de/fhir/erp/NamingSystem/GEM_ERP_NS_PrescriptionId",
            "value": "200.000.001.944.086.35"
          }
        ],
        "status": "billable",
        "code": {
          "coding": [
            {
              "system": "http://terminology.hl7.org/CodeSystem/data-absent-reason",
              "code": "not-applicable"
            }
          ]
        },
        "subject": {
          "identifier": {
            "system": "http://fhir.de/sid/pkv/kvid-10",
            "value": "X110465770"
          }
        },
        "enterer": {
          "identifier": {
            "system": "https://gematik.de/fhir/sid/telematik-id",
            "value": "3-SMC-B-Testkarte-883110000116873"
          }
        },
        "enteredDate": "2023-04-21T07:11:44.243+00:00",
        "supportingInformation": [
          {
            "reference": "urn:uuid:c816aa1d-0000-0000-0001-000000000000",
            "display": "https://fhir.kbv.de/StructureDefinition/KBV_PR_ERP_Bundle"
          },
          {
            "reference": "urn:uuid:c816aa1d-0000-0000-0004-000000000000",
            "display": "http://fhir.abda.de/eRezeptAbgabedaten/StructureDefinition/DAV-PKV-PR-ERP-AbgabedatenBundle"
          },
          {
            "reference": "urn:uuid:c816aa1d-0000-0000-0003-000000000000",
            "display": "https://gematik.de/fhir/erp/StructureDefinition/GEM_ERP_PR_Bundle"
          }
        ]
      }
    },
    {
      "fullUrl": "urn:uuid:c816aa1d-0000-0000-0004-000000000000",
      "resource": {
        "resourceType": "Bundle",
        "id": "ad67a89d-5847-47d8-9a44-44cbc7fd9cd5",
        "meta": {
          "lastUpdated": "2023-04-21T09:11:42.346+02:00",
          "profile": [
            "http://fhir.abda.de/eRezeptAbgabedaten/StructureDefinition/DAV-PKV-PR-ERP-AbgabedatenBundle|1.1"
          ]
        },
        "identifier": {
          "system": "https://gematik.de/fhir/erp/NamingSystem/GEM_ERP_NS_PrescriptionId",
          "value": "200.000.001.944.086.35"
        },
        "type": "document",
        "timestamp": "2023-04-21T09:11:42.346+02:00",
        "entry": [
          {
            "fullUrl": "urn:uuid:fae48a13-b4b1-4bfa-9241-9bd971f21a87",
            "resource": {
              "resourceType": "Composition",
              "meta": {
                "profile": [
                  "http://fhir.abda.de/eRezeptAbgabedaten/StructureDefinition/DAV-PKV-PR-ERP-AbgabedatenComposition|1.1"
                ]
              },
              "status": "final",
              "type": {
                "coding": [
                  {
                    "system": "http://fhir.abda.de/eRezeptAbgabedaten/CodeSystem/DAV-CS-ERP-CompositionTypes",
                    "code": "ERezeptAbgabedaten"
                  }
                ]
              },
              "date": "2023-04-21T09:11:42+02:00",
              "author": [
                {
                  "reference": "urn:uuid:83241b48-dec8-41e4-b7ec-f63c04ebee1e"
                }
              ],
              "title": "ERezeptAbgabedaten",
              "section": [
                {
                  "title": "Apotheke",
                  "entry": [
                    {
                      "reference": "urn:uuid:83241b48-dec8-41e4-b7ec-f63c04ebee1e"
                    }
                  ]
                },
                {
                  "title": "Abgabeinformationen",
                  "entry": [
                    {
                      "reference": "urn:uuid:8d0f2c9e-07b4-423d-918f-f5082eddae1d"
                    }
                  ]
                }
              ]
            }
          },
          {
            "fullUrl": "urn:uuid:83241b48-dec8-41e4-b7ec-f63c04ebee1e",
            "resource": {
              "resourceType": "Organization",
              "meta": {
                "profile": [
                  "http://fhir.abda.de/eRezeptAbgabedaten/StructureDefinition/DAV-PKV-PR-ERP-Apotheke|1.1"
                ]
              },
              "identifier": [
                {
                  "system": "http://fhir.de/sid/arge-ik/iknr",
                  "value": "191342579"
                }
              ],
              "name": "Apotheke Howie Doohan",
              "address": [
                {
                  "type": "physical",
                  "line": ["Grünstr. 84a"],
                  "_line": [
                    {
                      "extension": [
                        {
                          "url": "http://hl7.org/fhir/StructureDefinition/iso21090-ADXP-houseNumber",
                          "valueString": "84a"
                        },
                        {
                          "url": "http://hl7.org/fhir/StructureDefinition/iso21090-ADXP-streetName",
                          "valueString": "Grünstr."
                        }
                      ]
                    }
                  ],
                  "city": "Schön Elly",
                  "postalCode": "86115",
                  "country": "D"
                }
              ]
            }
          },
          {
            "fullUrl": "urn:uuid:05d619bc-b2e9-43ec-a58c-8acbab3f1926",
            "resource": {
              "resourceType": "Invoice",
              "meta": {
                "profile": [
                  "http://fhir.abda.de/eRezeptAbgabedaten/StructureDefinition/DAV-PKV-PR-ERP-Abrechnungszeilen|1.1"
                ]
              },
              "status": "issued",
              "type": {
                "coding": [
                  {
                    "system": "http://fhir.abda.de/eRezeptAbgabedaten/CodeSystem/DAV-CS-ERP-InvoiceTyp",
                    "code": "Abrechnungszeilen"
                  }
                ]
              },
              "lineItem": [
                {
                  "sequence": 1,
                  "chargeItemCodeableConcept": {
                    "coding": [
                      {
                        "system": "http://fhir.de/CodeSystem/ifa/pzn",
                        "code": "24916343"
                      }
                    ]
                  },
                  "priceComponent": [
                    {
                      "extension": [
                        {
                          "url": "http://fhir.abda.de/eRezeptAbgabedaten/StructureDefinition/DAV-EX-ERP-KostenVersicherter",
                          "extension": [
                            {
                              "url": "Kategorie",
                              "valueCodeableConcept": {
                                "coding": [
                                  {
                                    "system": "http://fhir.abda.de/eRezeptAbgabedaten/CodeSystem/DAV-PKV-CS-ERP-KostenVersicherterKategorie",
                                    "code": "0"
                                  }
                                ]
                              }
                            },
                            {
                              "url": "Kostenbetrag",
                              "valueMoney": {
                                "value": 1.97,
                                "currency": "EUR"
                              }
                            }
                          ]
                        },
                        {
                          "url": "http://fhir.abda.de/eRezeptAbgabedaten/StructureDefinition/DAV-EX-ERP-MwStSatz",
                          "valueDecimal": 12.99
                        }
                      ],
                      "type": "informational",
                      "factor": 1,
                      "amount": {
                        "value": 3.67,
                        "currency": "EUR"
                      }
                    }
                  ]
                },
                {
                  "sequence": 2,
                  "chargeItemCodeableConcept": {
                    "coding": [
                      {
                        "system": "http://fhir.de/CodeSystem/ifa/pzn",
                        "code": "01169106"
                      }
                    ]
                  },
                  "priceComponent": [
                    {
                      "extension": [
                        {
                          "url": "http://fhir.abda.de/eRezeptAbgabedaten/StructureDefinition/DAV-EX-ERP-KostenVersicherter",
                          "extension": [
                            {
                              "url": "Kategorie",
                              "valueCodeableConcept": {
                                "coding": [
                                  {
                                    "system": "http://fhir.abda.de/eRezeptAbgabedaten/CodeSystem/DAV-PKV-CS-ERP-KostenVersicherterKategorie",
                                    "code": "0"
                                  }
                                ]
                              }
                            },
                            {
                              "url": "Kostenbetrag",
                              "valueMoney": {
                                "value": 1.08,
                                "currency": "EUR"
                              }
                            }
                          ]
                        },
                        {
                          "url": "http://fhir.abda.de/eRezeptAbgabedaten/StructureDefinition/DAV-EX-ERP-MwStSatz",
                          "valueDecimal": 12.99
                        }
                      ],
                      "type": "informational",
                      "factor": 1,
                      "amount": {
                        "value": 4.24,
                        "currency": "EUR"
                      }
                    }
                  ]
                },
                {
                  "sequence": 3,
                  "chargeItemCodeableConcept": {
                    "coding": [
                      {
                        "system": "http://fhir.de/CodeSystem/ifa/pzn",
                        "code": "93195904"
                      }
                    ]
                  },
                  "priceComponent": [
                    {
                      "extension": [
                        {
                          "url": "http://fhir.abda.de/eRezeptAbgabedaten/StructureDefinition/DAV-EX-ERP-KostenVersicherter",
                          "extension": [
                            {
                              "url": "Kategorie",
                              "valueCodeableConcept": {
                                "coding": [
                                  {
                                    "system": "http://fhir.abda.de/eRezeptAbgabedaten/CodeSystem/DAV-PKV-CS-ERP-KostenVersicherterKategorie",
                                    "code": "0"
                                  }
                                ]
                              }
                            },
                            {
                              "url": "Kostenbetrag",
                              "valueMoney": {
                                "value": 45.06,
                                "currency": "EUR"
                              }
                            }
                          ]
                        },
                        {
                          "url": "http://fhir.abda.de/eRezeptAbgabedaten/StructureDefinition/DAV-EX-ERP-MwStSatz",
                          "valueDecimal": 12.99
                        }
                      ],
                      "type": "informational",
                      "factor": 1,
                      "amount": {
                        "value": 54.41,
                        "currency": "EUR"
                      }
                    }
                  ]
                },
                {
                  "sequence": 4,
                  "chargeItemCodeableConcept": {
                    "coding": [
                      {
                        "system": "http://fhir.de/CodeSystem/ifa/pzn",
                        "code": "04290496"
                      }
                    ]
                  },
                  "priceComponent": [
                    {
                      "extension": [
                        {
                          "url": "http://fhir.abda.de/eRezeptAbgabedaten/StructureDefinition/DAV-EX-ERP-KostenVersicherter",
                          "extension": [
                            {
                              "url": "Kategorie",
                              "valueCodeableConcept": {
                                "coding": [
                                  {
                                    "system": "http://fhir.abda.de/eRezeptAbgabedaten/CodeSystem/DAV-PKV-CS-ERP-KostenVersicherterKategorie",
                                    "code": "0"
                                  }
                                ]
                              }
                            },
                            {
                              "url": "Kostenbetrag",
                              "valueMoney": {
                                "value": 29.74,
                                "currency": "EUR"
                              }
                            }
                          ]
                        },
                        {
                          "url": "http://fhir.abda.de/eRezeptAbgabedaten/StructureDefinition/DAV-EX-ERP-MwStSatz",
                          "valueDecimal": 12.99
                        }
                      ],
                      "type": "informational",
                      "factor": 1,
                      "amount": {
                        "value": 65.35,
                        "currency": "EUR"
                      }
                    }
                  ]
                },
                {
                  "sequence": 5,
                  "chargeItemCodeableConcept": {
                    "coding": [
                      {
                        "system": "http://fhir.de/CodeSystem/ifa/pzn",
                        "code": "71187366"
                      }
                    ]
                  },
                  "priceComponent": [
                    {
                      "extension": [
                        {
                          "url": "http://fhir.abda.de/eRezeptAbgabedaten/StructureDefinition/DAV-EX-ERP-KostenVersicherter",
                          "extension": [
                            {
                              "url": "Kategorie",
                              "valueCodeableConcept": {
                                "coding": [
                                  {
                                    "system": "http://fhir.abda.de/eRezeptAbgabedaten/CodeSystem/DAV-PKV-CS-ERP-KostenVersicherterKategorie",
                                    "code": "0"
                                  }
                                ]
                              }
                            },
                            {
                              "url": "Kostenbetrag",
                              "valueMoney": {
                                "value": 2.53,
                                "currency": "EUR"
                              }
                            }
                          ]
                        },
                        {
                          "url": "http://fhir.abda.de/eRezeptAbgabedaten/StructureDefinition/DAV-EX-ERP-MwStSatz",
                          "valueDecimal": 12.99
                        }
                      ],
                      "type": "informational",
                      "factor": 1,
                      "amount": {
                        "value": 7.54,
                        "currency": "EUR"
                      }
                    }
                  ]
                }
              ],
              "totalGross": {
                "extension": [
                  {
                    "url": "http://fhir.abda.de/eRezeptAbgabedaten/StructureDefinition/DAV-EX-ERP-Gesamtzuzahlung",
                    "valueMoney": {
                      "value": 80.38,
                      "currency": "EUR"
                    }
                  }
                ],
                "value": 135.21,
                "currency": "EUR"
              }
            }
          },
          {
            "fullUrl": "urn:uuid:8d0f2c9e-07b4-423d-918f-f5082eddae1d",
            "resource": {
              "resourceType": "MedicationDispense",
              "meta": {
                "profile": [
                  "http://fhir.abda.de/eRezeptAbgabedaten/StructureDefinition/DAV-PKV-PR-ERP-Abgabeinformationen|1.1"
                ]
              },
              "extension": [
                {
                  "url": "http://fhir.abda.de/eRezeptAbgabedaten/StructureDefinition/DAV-PKV-EX-ERP-AbrechnungsTyp",
                  "valueCodeableConcept": {
                    "coding": [
                      {
                        "system": "http://fhir.abda.de/eRezeptAbgabedaten/CodeSystem/DAV-PKV-CS-ERP-AbrechnungsTyp",
                        "code": "1"
                      }
                    ]
                  }
                },
                {
                  "url": "http://fhir.abda.de/eRezeptAbgabedaten/StructureDefinition/DAV-EX-ERP-Abrechnungszeilen",
                  "valueReference": {
                    "reference": "urn:uuid:05d619bc-b2e9-43ec-a58c-8acbab3f1926"
                  }
                }
              ],
              "status": "completed",
              "medicationCodeableConcept": {
                "coding": [
                  {
                    "system": "http://terminology.hl7.org/CodeSystem/data-absent-reason",
                    "code": "not-applicable"
                  }
                ]
              },
              "performer": [
                {
                  "actor": {
                    "reference": "urn:uuid:83241b48-dec8-41e4-b7ec-f63c04ebee1e"
                  }
                }
              ],
              "authorizingPrescription": [
                {
                  "identifier": {
                    "system": "https://gematik.de/fhir/erp/NamingSystem/GEM_ERP_NS_PrescriptionId",
                    "value": "200.000.001.944.086.35"
                  }
                }
              ],
              "type": {
                "coding": [
                  {
                    "system": "http://fhir.abda.de/eRezeptAbgabedaten/CodeSystem/DAV-CS-ERP-MedicationDispenseTyp",
                    "code": "Abgabeinformationen"
                  }
                ]
              },
              "whenHandedOver": "2023-04-21"
            }
          }
        ],
        "signature": {
          "type": [
            {
              "system": "urn:iso-astm:E1762-95:2013",
              "code": "1.2.840.10065.1.12.1.1"
            }
          ],
          "when": "2023-04-21T07:11:44.797+00:00",
          "who": {
            "reference": "https://erp-dev.zentral.erp.splitdns.ti-dienste.de/Device/1"
          },
          "sigFormat": "application/pkcs7-mime",
          "data": ""
        }
      }
    },
    {
      "fullUrl": "urn:uuid:c816aa1d-0000-0000-0001-000000000000",
      "resource": {
        "resourceType": "Bundle",
        "id": "46fee66e-ce5a-482c-953d-99732e69490d",
        "meta": {
          "lastUpdated": "2023-04-21T09:11:39.827+02:00",
          "profile": [
            "https://fhir.kbv.de/StructureDefinition/KBV_PR_ERP_Bundle|1.1.0"
          ]
        },
        "identifier": {
          "system": "https://gematik.de/fhir/erp/NamingSystem/GEM_ERP_NS_PrescriptionId",
          "value": "200.000.001.944.086.35"
        },
        "type": "document",
        "timestamp": "2023-04-21T09:11:39.827+02:00",
        "entry": [
          {
            "fullUrl": "https://pvs.gematik.de/fhir/Composition/ed242952-dcb2-46a7-9701-c0feec24172f",
            "resource": {
              "resourceType": "Composition",
              "id": "ed242952-dcb2-46a7-9701-c0feec24172f",
              "meta": {
                "profile": [
                  "https://fhir.kbv.de/StructureDefinition/KBV_PR_ERP_Composition|1.1.0"
                ]
              },
              "extension": [
                {
                  "url": "https://fhir.kbv.de/StructureDefinition/KBV_EX_FOR_Legal_basis",
                  "valueCoding": {
                    "system": "https://fhir.kbv.de/CodeSystem/KBV_CS_SFHIR_KBV_STATUSKENNZEICHEN",
                    "code": "00"
                  }
                }
              ],
              "status": "final",
              "type": {
                "coding": [
                  {
                    "system": "https://fhir.kbv.de/CodeSystem/KBV_CS_SFHIR_KBV_FORMULAR_ART",
                    "code": "e16A"
                  }
                ]
              },
              "subject": {
                "reference": "Patient/4955c643-8add-40e2-8c18-8b063f5f757d"
              },
              "date": "2023-04-21T09:11:39+02:00",
              "author": [
                {
                  "reference": "Practitioner/ef5142af-a568-4659-a0a8-3893c69a1834",
                  "type": "Practitioner"
                },
                {
                  "type": "Device",
                  "identifier": {
                    "system": "https://fhir.kbv.de/NamingSystem/KBV_NS_FOR_Pruefnummer",
                    "value": "GEMATIK/410/2109/36/123"
                  }
                }
              ],
              "title": "elektronische Arzneimittelverordnung",
              "custodian": {
                "reference": "Organization/f5e99de3-1a7e-471e-93d4-6fb8f6d4d7b6"
              },
              "section": [
                {
                  "code": {
                    "coding": [
                      {
                        "system": "https://fhir.kbv.de/CodeSystem/KBV_CS_ERP_Section_Type",
                        "code": "Coverage"
                      }
                    ]
                  },
                  "entry": [
                    {
                      "reference": "Coverage/eaf2efb1-d0e6-438e-9402-fad63569f1f8"
                    }
                  ]
                },
                {
                  "code": {
                    "coding": [
                      {
                        "system": "https://fhir.kbv.de/CodeSystem/KBV_CS_ERP_Section_Type",
                        "code": "Prescription"
                      }
                    ]
                  },
                  "entry": [
                    {
                      "reference": "MedicationRequest/0f3dda26-881c-4616-a79a-878042836f79"
                    }
                  ]
                }
              ]
            }
          },
          {
            "fullUrl": "https://pvs.gematik.de/fhir/MedicationRequest/0f3dda26-881c-4616-a79a-878042836f79",
            "resource": {
              "resourceType": "MedicationRequest",
              "id": "0f3dda26-881c-4616-a79a-878042836f79",
              "meta": {
                "profile": [
                  "https://fhir.kbv.de/StructureDefinition/KBV_PR_ERP_Prescription|1.1.0"
                ]
              },
              "extension": [
                {
                  "url": "https://fhir.kbv.de/StructureDefinition/KBV_EX_ERP_BVG",
                  "valueBoolean": false
                },
                {
                  "url": "https://fhir.kbv.de/StructureDefinition/KBV_EX_ERP_EmergencyServicesFee",
                  "valueBoolean": false
                },
                {
                  "url": "https://fhir.kbv.de/StructureDefinition/KBV_EX_ERP_Multiple_Prescription",
                  "extension": [
                    {
                      "url": "Kennzeichen",
                      "valueBoolean": false
                    }
                  ]
                },
                {
                  "url": "https://fhir.kbv.de/StructureDefinition/KBV_EX_FOR_StatusCoPayment",
                  "valueCoding": {
                    "system": "https://fhir.kbv.de/CodeSystem/KBV_CS_FOR_StatusCoPayment",
                    "code": "0"
                  }
                }
              ],
              "status": "active",
              "intent": "order",
              "medicationReference": {
                "reference": "Medication/883d351a-0b01-415c-9524-c20ff8e32140"
              },
              "subject": {
                "reference": "Patient/4955c643-8add-40e2-8c18-8b063f5f757d"
              },
              "authoredOn": "2023-04-21",
              "requester": {
                "reference": "Practitioner/ef5142af-a568-4659-a0a8-3893c69a1834"
              },
              "insurance": [
                {
                  "reference": "Coverage/eaf2efb1-d0e6-438e-9402-fad63569f1f8"
                }
              ],
              "dosageInstruction": [
                {
                  "extension": [
                    {
                      "url": "https://fhir.kbv.de/StructureDefinition/KBV_EX_ERP_DosageFlag",
                      "valueBoolean": true
                    }
                  ],
                  "text": "1-0-0-0"
                }
              ],
              "dispenseRequest": {
                "quantity": {
                  "value": 1,
                  "system": "http://unitsofmeasure.org",
                  "code": "{Package}"
                }
              },
              "substitution": {
                "allowedBoolean": true
              }
            }
          },
          {
            "fullUrl": "https://pvs.gematik.de/fhir/Medication/883d351a-0b01-415c-9524-c20ff8e32140",
            "resource": {
              "resourceType": "Medication",
              "id": "883d351a-0b01-415c-9524-c20ff8e32140",
              "meta": {
                "profile": [
                  "https://fhir.kbv.de/StructureDefinition/KBV_PR_ERP_Medication_PZN|1.1.0"
                ]
              },
              "extension": [
                {
                  "url": "https://fhir.kbv.de/StructureDefinition/KBV_EX_Base_Medication_Type",
                  "valueCodeableConcept": {
                    "coding": [
                      {
                        "system": "http://snomed.info/sct",
                        "version": "http://snomed.info/sct/900000000000207008/version/20220331",
                        "code": "763158003",
                        "display": "Medicinal product (product)"
                      }
                    ]
                  }
                },
                {
                  "url": "https://fhir.kbv.de/StructureDefinition/KBV_EX_ERP_Medication_Category",
                  "valueCoding": {
                    "system": "https://fhir.kbv.de/CodeSystem/KBV_CS_ERP_Medication_Category",
                    "code": "00"
                  }
                },
                {
                  "url": "https://fhir.kbv.de/StructureDefinition/KBV_EX_ERP_Medication_Vaccine",
                  "valueBoolean": false
                },
                {
                  "url": "http://fhir.de/StructureDefinition/normgroesse",
                  "valueCode": "NB"
                }
              ],
              "code": {
                "coding": [
                  {
                    "system": "http://fhir.de/CodeSystem/ifa/pzn",
                    "code": "70885790"
                  }
                ],
                "text": "Schmerzmittel"
              },
              "form": {
                "coding": [
                  {
                    "system": "https://fhir.kbv.de/CodeSystem/KBV_CS_SFHIR_KBV_DARREICHUNGSFORM",
                    "code": "TAB"
                  }
                ]
              },
              "amount": {
                "numerator": {
                  "extension": [
                    {
                      "url": "https://fhir.kbv.de/StructureDefinition/KBV_EX_ERP_Medication_PackagingSize",
                      "valueString": "1"
                    }
                  ],
                  "unit": "Stk"
                },
                "denominator": {
                  "value": 1
                }
              }
            }
          },
          {
            "fullUrl": "https://pvs.gematik.de/fhir/Patient/4955c643-8add-40e2-8c18-8b063f5f757d",
            "resource": {
              "resourceType": "Patient",
              "id": "4955c643-8add-40e2-8c18-8b063f5f757d",
              "meta": {
                "profile": [
                  "https://fhir.kbv.de/StructureDefinition/KBV_PR_FOR_Patient|1.1.0"
                ]
              },
              "identifier": [
                {
                  "type": {
                    "coding": [
                      {
                        "system": "http://fhir.de/CodeSystem/identifier-type-de-basis",
                        "code": "PKV"
                      }
                    ]
                  },
                  "system": "http://fhir.de/sid/pkv/kvid-10",
                  "value": "X110465770"
                }
              ],
              "name": [
                {
                  "use": "official",
                  "family": "Angermänn",
                  "_family": {
                    "extension": [
                      {
                        "url": "http://hl7.org/fhir/StructureDefinition/humanname-own-name",
                        "valueString": "Angermänn"
                      }
                    ]
                  },
                  "given": ["Günther"]
                }
              ],
              "birthDate": "1987-05-14",
              "address": [
                {
                  "type": "both",
                  "line": ["Adalbert-Stifter-Str. 2"],
                  "_line": [
                    {
                      "extension": [
                        {
                          "url": "http://hl7.org/fhir/StructureDefinition/iso21090-ADXP-houseNumber",
                          "valueString": "2"
                        },
                        {
                          "url": "http://hl7.org/fhir/StructureDefinition/iso21090-ADXP-streetName",
                          "valueString": "Adalbert-Stifter-Str."
                        }
                      ]
                    }
                  ],
                  "city": "Groß Taylorburg",
                  "postalCode": "25543",
                  "country": "D"
                }
              ]
            }
          },
          {
            "fullUrl": "https://pvs.gematik.de/fhir/Organization/f5e99de3-1a7e-471e-93d4-6fb8f6d4d7b6",
            "resource": {
              "resourceType": "Organization",
              "id": "f5e99de3-1a7e-471e-93d4-6fb8f6d4d7b6",
              "meta": {
                "profile": [
                  "https://fhir.kbv.de/StructureDefinition/KBV_PR_FOR_Organization|1.1.0"
                ]
              },
              "identifier": [
                {
                  "type": {
                    "coding": [
                      {
                        "system": "http://terminology.hl7.org/CodeSystem/v2-0203",
                        "code": "BSNR"
                      }
                    ]
                  },
                  "system": "https://fhir.kbv.de/NamingSystem/KBV_NS_Base_BSNR",
                  "value": "466522667"
                }
              ],
              "name": "Arztpraxis Schraßer",
              "telecom": [
                {
                  "system": "phone",
                  "value": "(07243) 9002674"
                },
                {
                  "system": "email",
                  "value": "ivan.bedewitz@xn--stringer-m4a.com"
                }
              ],
              "address": [
                {
                  "type": "both",
                  "line": ["Schillerstr. 64c"],
                  "_line": [
                    {
                      "extension": [
                        {
                          "url": "http://hl7.org/fhir/StructureDefinition/iso21090-ADXP-houseNumber",
                          "valueString": "64c"
                        },
                        {
                          "url": "http://hl7.org/fhir/StructureDefinition/iso21090-ADXP-streetName",
                          "valueString": "Schillerstr."
                        }
                      ]
                    }
                  ],
                  "city": "West Milostadt",
                  "postalCode": "51640",
                  "country": "D"
                }
              ]
            }
          },
          {
            "fullUrl": "https://pvs.gematik.de/fhir/Coverage/eaf2efb1-d0e6-438e-9402-fad63569f1f8",
            "resource": {
              "resourceType": "Coverage",
              "id": "eaf2efb1-d0e6-438e-9402-fad63569f1f8",
              "meta": {
                "profile": [
                  "https://fhir.kbv.de/StructureDefinition/KBV_PR_FOR_Coverage|1.1.0"
                ]
              },
              "extension": [
                {
                  "url": "http://fhir.de/StructureDefinition/gkv/besondere-personengruppe",
                  "valueCoding": {
                    "system": "https://fhir.kbv.de/CodeSystem/KBV_CS_SFHIR_KBV_PERSONENGRUPPE",
                    "code": "00"
                  }
                },
                {
                  "url": "http://fhir.de/StructureDefinition/gkv/dmp-kennzeichen",
                  "valueCoding": {
                    "system": "https://fhir.kbv.de/CodeSystem/KBV_CS_SFHIR_KBV_DMP",
                    "code": "00"
                  }
                },
                {
                  "url": "http://fhir.de/StructureDefinition/gkv/wop",
                  "valueCoding": {
                    "system": "https://fhir.kbv.de/CodeSystem/KBV_CS_SFHIR_ITA_WOP",
                    "code": "02"
                  }
                },
                {
                  "url": "http://fhir.de/StructureDefinition/gkv/versichertenart",
                  "valueCoding": {
                    "system": "https://fhir.kbv.de/CodeSystem/KBV_CS_SFHIR_KBV_VERSICHERTENSTATUS",
                    "code": "1"
                  }
                }
              ],
              "status": "active",
              "type": {
                "coding": [
                  {
                    "system": "http://fhir.de/CodeSystem/versicherungsart-de-basis",
                    "code": "PKV"
                  }
                ]
              },
              "beneficiary": {
                "reference": "Patient/40fde5af-21aa-4391-9e9c-3335c0f413da"
              },
              "payor": [
                {
                  "identifier": {
                    "system": "http://fhir.de/sid/arge-ik/iknr",
                    "value": "518310935"
                  },
                  "display": "KVED Krankenversicherungs-AG Hessen"
                }
              ]
            }
          },
          {
            "fullUrl": "https://pvs.gematik.de/fhir/Practitioner/ef5142af-a568-4659-a0a8-3893c69a1834",
            "resource": {
              "resourceType": "Practitioner",
              "id": "ef5142af-a568-4659-a0a8-3893c69a1834",
              "meta": {
                "profile": [
                  "https://fhir.kbv.de/StructureDefinition/KBV_PR_FOR_Practitioner|1.1.0"
                ]
              },
              "identifier": [
                {
                  "type": {
                    "coding": [
                      {
                        "system": "http://terminology.hl7.org/CodeSystem/v2-0203",
                        "code": "LANR"
                      }
                    ]
                  },
                  "system": "https://fhir.kbv.de/NamingSystem/KBV_NS_Base_ANR",
                  "value": "610560858"
                }
              ],
              "name": [
                {
                  "use": "official",
                  "family": "Schraßer",
                  "_family": {
                    "extension": [
                      {
                        "url": "http://hl7.org/fhir/StructureDefinition/humanname-own-name",
                        "valueString": "Schraßer"
                      }
                    ]
                  },
                  "given": ["Dr."],
                  "prefix": ["Dr."],
                  "_prefix": [
                    {
                      "extension": [
                        {
                          "url": "http://hl7.org/fhir/StructureDefinition/iso21090-EN-qualifier",
                          "valueCode": "AC"
                        }
                      ]
                    }
                  ]
                }
              ],
              "qualification": [
                {
                  "code": {
                    "coding": [
                      {
                        "system": "https://fhir.kbv.de/CodeSystem/KBV_CS_FOR_Qualification_Type",
                        "code": "00"
                      }
                    ]
                  }
                },
                {
                  "code": {
                    "coding": [
                      {
                        "system": "https://fhir.kbv.de/CodeSystem/KBV_CS_FOR_Berufsbezeichnung",
                        "code": "Berufsbezeichnung"
                      }
                    ],
                    "text": "Super-Facharzt für alles Mögliche"
                  }
                }
              ]
            }
          }
        ],
        "signature": {
          "type": [
            {
              "system": "urn:iso-astm:E1762-95:2013",
              "code": "1.2.840.10065.1.12.1.1"
            }
          ],
          "when": "2023-04-21T07:11:44.795+00:00",
          "who": {
            "reference": "https://erp-dev.zentral.erp.splitdns.ti-dienste.de/Device/1"
          },
          "sigFormat": "application/pkcs7-mime",
          "data": ""
        }
      }
    },
    {
      "fullUrl": "urn:uuid:c816aa1d-0000-0000-0003-000000000000",
      "resource": {
        "resourceType": "Bundle",
        "meta": {
          "profile": [
            "https://gematik.de/fhir/erp/StructureDefinition/GEM_ERP_PR_Bundle|1.2"
          ]
        },
        "identifier": {
          "system": "https://gematik.de/fhir/erp/NamingSystem/GEM_ERP_NS_PrescriptionId",
          "value": "200.000.001.944.086.35"
        },
        "type": "document",
        "timestamp": "2023-04-21T07:11:42.784+00:00",
        "link": [
          {
            "relation": "self",
            "url": "https://erp-dev.zentral.erp.splitdns.ti-dienste.de/Task/200.000.001.944.086.35/$close/"
          }
        ],
        "entry": [
          {
            "fullUrl": "urn:uuid:fe8e83e2-3d5c-4768-9dfd-1cd6c683a64a",
            "resource": {
              "resourceType": "Composition",
              "id": "fe8e83e2-3d5c-4768-9dfd-1cd6c683a64a",
              "meta": {
                "profile": [
                  "https://gematik.de/fhir/erp/StructureDefinition/GEM_ERP_PR_Composition|1.2"
                ]
              },
              "extension": [
                {
                  "url": "https://gematik.de/fhir/erp/StructureDefinition/GEM_ERP_EX_Beneficiary",
                  "valueIdentifier": {
                    "system": "https://gematik.de/fhir/sid/telematik-id",
                    "value": "3-SMC-B-Testkarte-883110000116873"
                  }
                }
              ],
              "status": "final",
              "type": {
                "coding": [
                  {
                    "system": "https://gematik.de/fhir/erp/CodeSystem/GEM_ERP_CS_DocumentType",
                    "code": "3",
                    "display": "Receipt"
                  }
                ]
              },
              "date": "2023-04-21T07:11:42.784+00:00",
              "author": [
                {
                  "reference": "https://erp-dev.zentral.erp.splitdns.ti-dienste.de/Device/1"
                }
              ],
              "title": "Quittung",
              "event": [
                {
                  "period": {
                    "start": "2023-04-21T07:11:41.219+00:00",
                    "end": "2023-04-21T07:11:42.784+00:00"
                  }
                }
              ],
              "section": [
                {
                  "entry": [
                    {
                      "reference": "Binary/PrescriptionDigest-200.000.001.944.086.35"
                    }
                  ]
                }
              ]
            }
          },
          {
            "fullUrl": "https://erp-dev.zentral.erp.splitdns.ti-dienste.de/Device/1",
            "resource": {
              "resourceType": "Device",
              "id": "1",
              "meta": {
                "profile": [
                  "https://gematik.de/fhir/erp/StructureDefinition/GEM_ERP_PR_Device|1.2"
                ]
              },
              "status": "active",
              "serialNumber": "1.10.0",
              "deviceName": [
                {
                  "name": "E-Rezept Fachdienst",
                  "type": "user-friendly-name"
                }
              ],
              "version": [
                {
                  "value": "1.10.0"
                }
              ],
              "contact": [
                {
                  "system": "email",
                  "value": "betrieb@gematik.de"
                }
              ]
            }
          },
          {
            "fullUrl": "https://erp-dev.zentral.erp.splitdns.ti-dienste.de/Binary/PrescriptionDigest-200.000.001.944.086.35",
            "resource": {
              "resourceType": "Binary",
              "id": "PrescriptionDigest-200.000.001.944.086.35",
              "meta": {
                "versionId": "1",
                "profile": [
                  "https://gematik.de/fhir/erp/StructureDefinition/GEM_ERP_PR_Digest|1.2"
                ]
              },
              "contentType": "application/octet-stream",
              "data": "NvIUB93YHLj1Kv4gCVPrKzz/q8rkmV1+uj1YQyxVILc="
            }
          }
        ],
        "signature": {
          "type": [
            {
              "system": "urn:iso-astm:E1762-95:2013",
              "code": "1.2.840.10065.1.12.1.1"
            }
          ],
          "when": "2023-04-21T07:11:44.796+00:00",
          "who": {
            "reference": "https://erp-dev.zentral.erp.splitdns.ti-dienste.de/Device/1"
          },
          "sigFormat": "application/pkcs7-mime",
          "data": ""
        }
      }
    }
  ]
}
