{
  "resourceType": "Bundle",
  "id": "ddc83056-5dab-4411-ab13-48abfaf9c47d",
  "meta": {
    "profile": [
      "https://fhir.kbv.de/StructureDefinition/KBV_PR_ERP_Bundle|1.2"
    ]
  },
  "identifier": {
    "system": "https://gematik.de/fhir/erp/NamingSystem/GEM_ERP_NS_PrescriptionId",
    "value": "160.100.000.000.050.86"
  },
  "type": "document",
  "timestamp": "2024-05-20T08:30:00+00:00",
  "entry": [
    {
      "fullUrl": "http://pvs.praxis.local/fhir/Composition/4a6b0467-1949-4e3e-b361-9c9a838d1878",
      "resource": {
        "resourceType": "Composition",
        "id": "4a6b0467-1949-4e3e-b361-9c9a838d1878",
        "meta": {
          "profile": [
            "https://fhir.kbv.de/StructureDefinition/KBV_PR_ERP_Composition|1.2"
          ]
        },
        "extension": [
          {
            "url": "https://fhir.kbv.de/StructureDefinition/KBV_EX_FOR_Legal_basis",
            "valueCoding": {
              "system": "https://fhir.kbv.de/CodeSystem/KBV_CS_SFHIR_KBV_STATUSKENNZEICHEN",
              "code": "00"
            }
          }
        ],
        "status": "final",
        "type": {
          "coding": [
            {
              "system": "https://fhir.kbv.de/CodeSystem/KBV_CS_SFHIR_KBV_FORMULAR_ART",
              "code": "e16A"
            }
          ]
        },
        "subject": {
          "reference": "Patient/1d36152b-40c6-4aeb-a552-86a4d3277edc"
        },
        "date": "2024-05-20T08:00:00Z",
        "author": [
          {
            "reference": "Practitioner/d6f3b55d-3095-4655-96dc-da3bec21271c",
            "type": "Practitioner"
          },
          {
            "type": "Device",
            "identifier": {
              "system": "https://fhir.kbv.de/NamingSystem/KBV_NS_FOR_Pruefnummer",
              "value": "Y/400/2107/36/999"
            }
          }
        ],
        "title": "elektronische Arzneimittelverordnung",
        "custodian": {
          "reference": "Organization/2a555cd3-0543-483c-88b3-f68647620962"
        },
        "section": [
          {
            "code": {
              "coding": [
                {
                  "system": "https://fhir.kbv.de/CodeSystem/KBV_CS_ERP_Section_Type",
                  "code": "Prescription"
                }
              ]
            },
            "entry": [
              {
                "reference": "MedicationRequest/6f5059fe-fe6d-423e-88a7-337957039486"
              }
            ]
          },
          {
            "code": {
              "coding": [
                {
                  "system": "https://fhir.kbv.de/CodeSystem/KBV_CS_ERP_Section_Type",
                  "code": "Coverage"
                }
              ]
            },
            "entry": [
              {
                "reference": "Coverage/e51239e1-ba74-48e0-97fb-9754d2b05c60"
              }
            ]
          }
        ]
      }
    },
    {
      "fullUrl": "http://pvs.praxis.local/fhir/MedicationRequest/6f5059fe-fe6d-423e-88a7-337957039486",
      "resource": {
        "resourceType": "MedicationRequest",
        "id": "6f5059fe-fe6d-423e-88a7-337957039486",
        "meta": {
          "profile": [
            "https://fhir.kbv.de/StructureDefinition/KBV_PR_ERP_Prescription|1.2"
          ]
        },
        "extension": [
          {
            "url": "https://fhir.kbv.de/StructureDefinition/KBV_EX_FOR_StatusCoPayment",
            "valueCoding": {
              "system": "https://fhir.kbv.de/CodeSystem/KBV_CS_FOR_StatusCoPayment",
              "code": "0"
            }
          },
          {
            "url": "https://fhir.kbv.de/StructureDefinition/KBV_EX_ERP_EmergencyServicesFee",
            "valueBoolean": false
          },
          {
            "url": "https://fhir.kbv.de/StructureDefinition/KBV_EX_FOR_SER",
            "valueBoolean": false
          },
          {
            "extension": [
              {
                "url": "Kennzeichen",
                "valueBoolean": false
              }
            ],
            "url": "https://fhir.kbv.de/StructureDefinition/KBV_EX_ERP_Multiple_Prescription"
          }
        ],
        "status": "active",
        "intent": "order",
        "medicationReference": {
          "reference": "Medication/8d33ae42-2329-463c-8c36-06255bee16f8"
        },
        "subject": {
          "reference": "Patient/1d36152b-40c6-4aeb-a552-86a4d3277edc"
        },
        "authoredOn": "2024-05-20",
        "requester": {
          "reference": "Practitioner/d6f3b55d-3095-4655-96dc-da3bec21271c"
        },
        "insurance": [
          {
            "reference": "Coverage/e51239e1-ba74-48e0-97fb-9754d2b05c60"
          }
        ],
        "dosageInstruction": [
          {
            "patientInstruction": "T채glich eine zum Fr체hst체ck"
          }
        ],
        "dispenseRequest": {
          "quantity": {
            "value": 1,
            "unit": "Packung"
          }
        },
        "substitution": {
          "allowedBoolean": false
        }
      }
    },
    {
      "fullUrl": "http://pvs.praxis.local/fhir/Medication/8d33ae42-2329-463c-8c36-06255bee16f8",
      "resource": {
        "resourceType": "Medication",
        "id": "8d33ae42-2329-463c-8c36-06255bee16f8",
        "meta": {
          "profile": [
            "https://fhir.kbv.de/StructureDefinition/KBV_PR_ERP_Medication_Compounding|1.2"
          ]
        },
        "extension": [
          {
            "url": "https://fhir.kbv.de/StructureDefinition/KBV_EX_Base_Medication_Type",
            "valueCodeableConcept": {
              "coding": [
                {
                  "system": "http://snomed.info/sct",
                  "version": "http://snomed.info/sct/11000274103/version/20240515",
                  "code": "1208954007",
                  "display": "Extemporaneous preparation (product)"
                }
              ]
            }
          },
          {
            "url": "https://fhir.kbv.de/StructureDefinition/KBV_EX_ERP_Medication_Category",
            "valueCoding": {
              "system": "https://fhir.kbv.de/CodeSystem/KBV_CS_ERP_Medication_Category",
              "code": "00"
            }
          },
          {
            "url": "https://fhir.kbv.de/StructureDefinition/KBV_EX_ERP_Medication_Vaccine",
            "valueBoolean": false
          }
        ],
        "code": {
          "coding": [
            {
              "system": "https://fhir.kbv.de/CodeSystem/KBV_CS_ERP_Medication_Type",
              "code": "rezeptur"
            }
          ]
        },
        "form": {
          "text": "Kapseln"
        },
        "amount": {
          "numerator": {
            "extension": [
              {
                "url": "https://fhir.kbv.de/StructureDefinition/KBV_EX_ERP_Medication_PackagingSize",
                "valueString": "50"
              }
            ],
            "unit": "St체ck"
          },
          "denominator": {
            "value": 1
          }
        },
        "ingredient": [
          {
            "itemCodeableConcept": {
              "text": "Hydrocortison"
            },
            "strength": {
              "numerator": {
                "value": 0.06,
                "unit": "g"
              },
              "denominator": {
                "value": 1
              }
            }
          },
          {
            "itemCodeableConcept": {
              "text": "Mannit"
            },
            "strength": {
              "numerator": {
                "value": 12.5,
                "unit": "g"
              },
              "denominator": {
                "value": 1
              }
            }
          },
          {
            "itemCodeableConcept": {
              "text": "Siliciumdioxid"
            },
            "strength": {
              "numerator": {
                "value": 0.5,
                "unit": "g"
              },
              "denominator": {
                "value": 1
              }
            }
          }
        ]
      }
    },
    {
      "fullUrl": "http://pvs.praxis.local/fhir/Patient/1d36152b-40c6-4aeb-a552-86a4d3277edc",
      "resource": {
        "resourceType": "Patient",
        "id": "1d36152b-40c6-4aeb-a552-86a4d3277edc",
        "meta": {
          "profile": [
            "https://fhir.kbv.de/StructureDefinition/KBV_PR_FOR_Patient|1.2"
          ]
        },
        "identifier": [
          {
            "type": {
              "coding": [
                {
                  "system": "http://fhir.de/CodeSystem/identifier-type-de-basis",
                  "code": "KVZ10"
                }
              ]
            },
            "system": "http://fhir.de/sid/gkv/kvid-10",
            "value": "H030170228"
          }
        ],
        "name": [
          {
            "use": "official",
            "family": "Grossherzog von und zu der Schaumberg-von-und-zu-Schaumburg-und-Radeberg",
            "_family": {
              "extension": [
                {
                  "url": "http://fhir.de/StructureDefinition/humanname-namenszusatz",
                  "valueString": "Grossherzog"
                },
                {
                  "url": "http://hl7.org/fhir/StructureDefinition/humanname-own-prefix",
                  "valueString": "von und zu der"
                },
                {
                  "url": "http://hl7.org/fhir/StructureDefinition/humanname-own-name",
                  "valueString": "Schaumberg-von-und-zu-Schaumburg-und-Radeberg"
                }
              ]
            },
            "given": [
              "Friedrich-Wilhelm-Karl-Gustav-Justus-Gotfried"
            ],
            "prefix": [
              "Prof. habil. Dr. med"
            ],
            "_prefix": [
              {
                "extension": [
                  {
                    "url": "http://hl7.org/fhir/StructureDefinition/iso21090-EN-qualifier",
                    "valueCode": "AC"
                  }
                ]
              }
            ]
          }
        ],
        "birthDate": "1951-07-12",
        "address": [
          {
            "type": "postal",
            "line": [
              "124589"
            ],
            "_line": [
              {
                "extension": [
                  {
                    "url": "http://hl7.org/fhir/StructureDefinition/iso21090-ADXP-postBox",
                    "valueString": "124589"
                  }
                ]
              }
            ],
            "city": "Berlin",
            "postalCode": "12489",
            "country": "D"
          }
        ]
      }
    },
    {
      "fullUrl": "http://pvs.praxis.local/fhir/Practitioner/d6f3b55d-3095-4655-96dc-da3bec21271c",
      "resource": {
        "resourceType": "Practitioner",
        "id": "d6f3b55d-3095-4655-96dc-da3bec21271c",
        "meta": {
          "profile": [
            "https://fhir.kbv.de/StructureDefinition/KBV_PR_FOR_Practitioner|1.2"
          ]
        },
        "identifier": [
          {
            "type": {
              "coding": [
                {
                  "system": "http://terminology.hl7.org/CodeSystem/v2-0203",
                  "code": "LANR"
                }
              ]
            },
            "system": "https://fhir.kbv.de/NamingSystem/KBV_NS_Base_ANR",
            "value": "754236701"
          }
        ],
        "name": [
          {
            "use": "official",
            "family": "Schulz",
            "_family": {
              "extension": [
                {
                  "url": "http://hl7.org/fhir/StructureDefinition/humanname-own-name",
                  "valueString": "Schulz"
                }
              ]
            },
            "given": [
              "Ben"
            ]
          }
        ],
        "qualification": [
          {
            "code": {
              "coding": [
                {
                  "system": "https://fhir.kbv.de/CodeSystem/KBV_CS_FOR_Qualification_Type",
                  "code": "00"
                }
              ]
            }
          },
          {
            "code": {
              "coding": [
                {
                  "system": "https://fhir.kbv.de/CodeSystem/KBV_CS_FOR_Berufsbezeichnung",
                  "code": "Berufsbezeichnung"
                }
              ],
              "text": "Facharzt f체r Allgemeinmedizin"
            }
          }
        ]
      }
    },
    {
      "fullUrl": "http://pvs.praxis.local/fhir/Organization/2a555cd3-0543-483c-88b3-f68647620962",
      "resource": {
        "resourceType": "Organization",
        "id": "2a555cd3-0543-483c-88b3-f68647620962",
        "meta": {
          "profile": [
            "https://fhir.kbv.de/StructureDefinition/KBV_PR_FOR_Organization|1.2"
          ]
        },
        "identifier": [
          {
            "type": {
              "coding": [
                {
                  "system": "http://terminology.hl7.org/CodeSystem/v2-0203",
                  "code": "BSNR"
                }
              ]
            },
            "system": "https://fhir.kbv.de/NamingSystem/KBV_NS_Base_BSNR",
            "value": "724444400"
          }
        ],
        "name": "Hausarztpraxis",
        "telecom": [
          {
            "system": "phone",
            "value": "030321654987"
          },
          {
            "system": "email",
            "value": "hausarztpraxis@e-mail.de"
          }
        ],
        "address": [
          {
            "type": "both",
            "line": [
              "Herbert-Lewin-Platz 2",
              "Erdgeschoss"
            ],
            "_line": [
              {
                "extension": [
                  {
                    "url": "http://hl7.org/fhir/StructureDefinition/iso21090-ADXP-houseNumber",
                    "valueString": "2"
                  },
                  {
                    "url": "http://hl7.org/fhir/StructureDefinition/iso21090-ADXP-streetName",
                    "valueString": "Herbert-Lewin-Platz"
                  }
                ]
              },
              {
                "extension": [
                  {
                    "url": "http://hl7.org/fhir/StructureDefinition/iso21090-ADXP-additionalLocator",
                    "valueString": "Erdgeschoss"
                  }
                ]
              }
            ],
            "city": "Berlin",
            "postalCode": "10623",
            "country": "D"
          }
        ]
      }
    },
    {
      "fullUrl": "http://pvs.praxis.local/fhir/Coverage/e51239e1-ba74-48e0-97fb-9754d2b05c60",
      "resource": {
        "resourceType": "Coverage",
        "id": "e51239e1-ba74-48e0-97fb-9754d2b05c60",
        "meta": {
          "profile": [
            "https://fhir.kbv.de/StructureDefinition/KBV_PR_FOR_Coverage|1.2"
          ]
        },
        "extension": [
          {
            "url": "http://fhir.de/StructureDefinition/gkv/besondere-personengruppe",
            "valueCoding": {
              "system": "https://fhir.kbv.de/CodeSystem/KBV_CS_SFHIR_KBV_PERSONENGRUPPE",
              "code": "00"
            }
          },
          {
            "url": "http://fhir.de/StructureDefinition/gkv/dmp-kennzeichen",
            "valueCoding": {
              "system": "https://fhir.kbv.de/CodeSystem/KBV_CS_SFHIR_KBV_DMP",
              "code": "00"
            }
          },
          {
            "url": "http://fhir.de/StructureDefinition/gkv/wop",
            "valueCoding": {
              "system": "https://fhir.kbv.de/CodeSystem/KBV_CS_SFHIR_ITA_WOP",
              "code": "72"
            }
          },
          {
            "url": "http://fhir.de/StructureDefinition/gkv/versichertenart",
            "valueCoding": {
              "system": "https://fhir.kbv.de/CodeSystem/KBV_CS_SFHIR_KBV_VERSICHERTENSTATUS",
              "code": "1"
            }
          }
        ],
        "status": "active",
        "type": {
          "coding": [
            {
              "system": "http://fhir.de/CodeSystem/versicherungsart-de-basis",
              "code": "GKV"
            }
          ]
        },
        "beneficiary": {
          "reference": "Patient/1d36152b-40c6-4aeb-a552-86a4d3277edc"
        },
        "period": {
          "end": "2034-12-31"
        },
        "payor": [
          {
            "identifier": {
              "system": "http://fhir.de/sid/arge-ik/iknr",
              "value": "108035612"
            },
            "display": "mhplus BKK"
          }
        ]
      }
    }
  ]
}