{
  "resourceType": "Bundle",
  "id": "cda33584-10b7-4199-a32a-3e8280d98937",
  "type": "searchset",
  "timestamp": "2023-04-21T07:30:34.304+00:00",
  "total": 1244,
  "link": [
    {
      "relation": "next",
      "url": "https://erp-test.zentral.erp.splitdns.ti-dienste.de/Communication?_sort=-sent&_count=50&__offset=50"
    },
    {
      "relation": "self",
      "url": "https://erp-test.zentral.erp.splitdns.ti-dienste.de/Communication?_sort=-sent"
    }
  ],
  "entry": [
    {
      "fullUrl": "https://erp-test.zentral.erp.splitdns.ti-dienste.de/Communication/01eba3b1-791e-5918-97fe-e683d6845f6e",
      "resource": {
        "resourceType": "Communication",
        "id": "01eba3b1-791e-5918-97fe-e683d6845f6e",
        "meta": {
          "profile": [
            "https://gematik.de/fhir/StructureDefinition/ErxCommunicationInfoReq"
          ]
        },
        "contained": [
          {
            "resourceType": "Medication",
            "id": "51827567-4336-400f-89e1-4449e6f0af34",
            "meta": {
              "profile": [
                "https://fhir.kbv.de/StructureDefinition/KBV_PR_ERP_Medication_PZN|1.0.2"
              ]
            },
            "extension": [
              {
                "url": "https://fhir.kbv.de/StructureDefinition/KBV_EX_ERP_Medication_Category",
                "valueCoding": {
                  "system": "https://fhir.kbv.de/CodeSystem/KBV_CS_ERP_Medication_Category",
                  "code": "00"
                }
              },
              {
                "url": "https://fhir.kbv.de/StructureDefinition/KBV_EX_ERP_Medication_Vaccine",
                "valueBoolean": false
              },
              {
                "url": "http://fhir.de/StructureDefinition/normgroesse",
                "valueCode": "NB"
              }
            ],
            "code": {
              "coding": [
                {
                  "system": "http://fhir.de/CodeSystem/ifa/pzn",
                  "code": "12345678"
                }
              ],
              "text": "Schmerzmittel"
            },
            "form": {
              "coding": [
                {
                  "system": "https://fhir.kbv.de/CodeSystem/KBV_CS_SFHIR_KBV_DARREICHUNGSFORM",
                  "code": "TAB"
                }
              ]
            },
            "amount": {
              "numerator": {
                "value": 1,
                "unit": "Stk"
              },
              "denominator": {
                "value": 1
              }
            }
          }
        ],
        "basedOn": [
          {
            "reference": "Task/160.000.006.315.505.67"
          }
        ],
        "status": "unknown",
        "about": [
          {
            "reference": "#51827567-4336-400f-89e1-4449e6f0af34"
          }
        ],
        "sent": "2023-04-21T07:30:01.503+00:00",
        "received": "2023-04-21T07:30:02.000+00:00",
        "recipient": [
          {
            "identifier": {
              "system": "https://gematik.de/fhir/NamingSystem/TelematikID",
              "value": "3-SMC-B-Testkarte-883110000116873"
            }
          }
        ],
        "sender": {
          "identifier": {
            "system": "http://fhir.de/NamingSystem/gkv/kvid-10",
            "value": "X110498565"
          }
        },
        "payload": [
          {
            "extension": [
              {
                "url": "https://gematik.de/fhir/StructureDefinition/InsuranceProvider",
                "valueIdentifier": {
                  "system": "http://fhir.de/NamingSystem/arge-ik/iknr",
                  "value": "117043510"
                }
              },
              {
                "url": "https://gematik.de/fhir/StructureDefinition/SubstitutionAllowedType",
                "valueBoolean": true
              },
              {
                "url": "https://gematik.de/fhir/StructureDefinition/PrescriptionType",
                "valueCoding": {
                  "system": "https://gematik.de/fhir/CodeSystem/Flowtype",
                  "code": "160",
                  "display": "Muster 16 (Apothekenpflichtige Arzneimittel)"
                }
              }
            ],
            "contentString": "Here I am, brain the size of a planet, and they tell me to take you up to the bridge. Call that job satisfaction? 'Cos I don't."
          }
        ]
      },
      "search": {
        "mode": "match"
      }
    },
    {
      "fullUrl": "https://erp-test.zentral.erp.splitdns.ti-dienste.de/Communication/01eba3b1-784e-6aa0-7240-50209b3b0214",
      "resource": {
        "resourceType": "Communication",
        "id": "01eba3b1-784e-6aa0-7240-50209b3b0214",
        "meta": {
          "profile": [
            "https://gematik.de/fhir/StructureDefinition/ErxCommunicationDispReq"
          ]
        },
        "basedOn": [
          {
            "reference": "/Task/160.000.006.315.504.70/$accept?ac=db6bffca97f9d1486b9d380e0d2840dd3ca1b8737cad2eb77d10f887efc401f7"
          }
        ],
        "status": "unknown",
        "sent": "2023-04-21T07:29:47.876+00:00",
        "received": "2023-04-21T07:29:49.000+00:00",
        "recipient": [
          {
            "identifier": {
              "system": "https://gematik.de/fhir/NamingSystem/TelematikID",
              "value": "3-SMC-B-Testkarte-883110000116873"
            }
          }
        ],
        "sender": {
          "identifier": {
            "system": "http://fhir.de/NamingSystem/gkv/kvid-10",
            "value": "X110498565"
          }
        },
        "payload": [
          {
            "contentString": "All right. This is an oldie, but, uh... well, it's an oldie where I come from."
          }
        ]
      },
      "search": {
        "mode": "match"
      }
    },
    {
      "fullUrl": "https://erp-test.zentral.erp.splitdns.ti-dienste.de/Communication/01eba3ab-2d0b-00b8-eeb2-cb0e09c6f959",
      "resource": {
        "resourceType": "Communication",
        "id": "01eba3ab-2d0b-00b8-eeb2-cb0e09c6f959",
        "meta": {
          "profile": [
            "https://gematik.de/fhir/StructureDefinition/ErxCommunicationInfoReq"
          ]
        },
        "contained": [
          {
            "resourceType": "Medication",
            "id": "99671b2b-c2fd-48d1-8e3b-961b02d25e0d",
            "meta": {
              "profile": [
                "https://fhir.kbv.de/StructureDefinition/KBV_PR_ERP_Medication_PZN|1.0.2"
              ]
            },
            "extension": [
              {
                "url": "https://fhir.kbv.de/StructureDefinition/KBV_EX_ERP_Medication_Category",
                "valueCoding": {
                  "system": "https://fhir.kbv.de/CodeSystem/KBV_CS_ERP_Medication_Category",
                  "code": "00"
                }
              },
              {
                "url": "https://fhir.kbv.de/StructureDefinition/KBV_EX_ERP_Medication_Vaccine",
                "valueBoolean": false
              },
              {
                "url": "http://fhir.de/StructureDefinition/normgroesse",
                "valueCode": "N1"
              }
            ],
            "code": {
              "coding": [
                {
                  "system": "http://fhir.de/CodeSystem/ifa/pzn",
                  "code": "12345678"
                }
              ],
              "text": "Schmerzmittel"
            },
            "form": {
              "coding": [
                {
                  "system": "https://fhir.kbv.de/CodeSystem/KBV_CS_SFHIR_KBV_DARREICHUNGSFORM",
                  "code": "TAB"
                }
              ]
            },
            "amount": {
              "numerator": {
                "value": 1,
                "unit": "Stk"
              },
              "denominator": {
                "value": 1
              }
            }
          }
        ],
        "basedOn": [
          {
            "reference": "Task/160.000.006.315.279.66"
          }
        ],
        "status": "unknown",
        "about": [
          {
            "reference": "#99671b2b-c2fd-48d1-8e3b-961b02d25e0d"
          }
        ],
        "sent": "2023-04-20T23:59:15.363+00:00",
        "received": "2023-04-21T07:29:49.000+00:00",
        "recipient": [
          {
            "identifier": {
              "system": "https://gematik.de/fhir/NamingSystem/TelematikID",
              "value": "3-SMC-B-Testkarte-883110000116873"
            }
          }
        ],
        "sender": {
          "identifier": {
            "system": "http://fhir.de/NamingSystem/gkv/kvid-10",
            "value": "X110498565"
          }
        },
        "payload": [
          {
            "extension": [
              {
                "url": "https://gematik.de/fhir/StructureDefinition/InsuranceProvider",
                "valueIdentifier": {
                  "system": "http://fhir.de/NamingSystem/arge-ik/iknr",
                  "value": "940419859"
                }
              },
              {
                "url": "https://gematik.de/fhir/StructureDefinition/SubstitutionAllowedType",
                "valueBoolean": true
              },
              {
                "url": "https://gematik.de/fhir/StructureDefinition/PrescriptionType",
                "valueCoding": {
                  "system": "https://gematik.de/fhir/CodeSystem/Flowtype",
                  "code": "160",
                  "display": "Muster 16 (Apothekenpflichtige Arzneimittel)"
                }
              }
            ],
            "contentString": "There's only one life-form as intelligent as me within thirty parsecs of here and that's me."
          }
        ]
      },
      "search": {
        "mode": "match"
      }
    },
    {
      "fullUrl": "https://erp-test.zentral.erp.splitdns.ti-dienste.de/Communication/01eba3ab-1f8f-4430-f3a0-1a11f248bffb",
      "resource": {
        "resourceType": "Communication",
        "id": "01eba3ab-1f8f-4430-f3a0-1a11f248bffb",
        "meta": {
          "profile": [
            "https://gematik.de/fhir/StructureDefinition/ErxCommunicationRepresentative"
          ]
        },
        "basedOn": [
          {
            "reference": "/Task/160.000.006.315.246.68/$accept?ac=fbf45da74a14655fa5a0d5905e500f461674f75e9fe685a374814a7031888745"
          }
        ],
        "status": "unknown",
        "sent": "2023-04-20T23:55:29.150+00:00",
        "received": "2023-04-20T23:55:29.000+00:00",
        "recipient": [
          {
            "identifier": {
              "system": "http://fhir.de/NamingSystem/gkv/kvid-10",
              "value": "X110465770"
            }
          }
        ],
        "sender": {
          "identifier": {
            "system": "http://fhir.de/NamingSystem/gkv/kvid-10",
            "value": "X110498565"
          }
        },
        "payload": [
          {
            "extension": [
              {
                "url": "https://gematik.de/fhir/StructureDefinition/SubstitutionAllowedType",
                "valueBoolean": true
              },
              {
                "url": "https://gematik.de/fhir/StructureDefinition/PrescriptionType",
                "valueCoding": {
                  "system": "https://gematik.de/fhir/CodeSystem/Flowtype",
                  "code": "160",
                  "display": "Muster 16 (Apothekenpflichtige Arzneimittel)"
                }
              }
            ],
            "contentString": "Chuck Norris ließ sich an einen Lügendetektor anschließen. Die Maschine gestand."
          }
        ]
      },
      "search": {
        "mode": "match"
      }
    },
    {
      "fullUrl": "https://erp-test.zentral.erp.splitdns.ti-dienste.de/Communication/01eba3ab-168f-0578-fc1b-b716eec5dc59",
      "resource": {
        "resourceType": "Communication",
        "id": "01eba3ab-168f-0578-fc1b-b716eec5dc59",
        "meta": {
          "profile": [
            "https://gematik.de/fhir/StructureDefinition/ErxCommunicationInfoReq"
          ]
        },
        "contained": [
          {
            "resourceType": "Medication",
            "id": "9e7a4fc7-974f-43f8-b783-9d002433c77a",
            "meta": {
              "profile": [
                "https://fhir.kbv.de/StructureDefinition/KBV_PR_ERP_Medication_PZN|1.0.2"
              ]
            },
            "extension": [
              {
                "url": "https://fhir.kbv.de/StructureDefinition/KBV_EX_ERP_Medication_Category",
                "valueCoding": {
                  "system": "https://fhir.kbv.de/CodeSystem/KBV_CS_ERP_Medication_Category",
                  "code": "00"
                }
              },
              {
                "url": "https://fhir.kbv.de/StructureDefinition/KBV_EX_ERP_Medication_Vaccine",
                "valueBoolean": false
              },
              {
                "url": "http://fhir.de/StructureDefinition/normgroesse",
                "valueCode": "NB"
              }
            ],
            "code": {
              "coding": [
                {
                  "system": "http://fhir.de/CodeSystem/ifa/pzn",
                  "code": "12345678"
                }
              ],
              "text": "Schmerzmittel"
            },
            "form": {
              "coding": [
                {
                  "system": "https://fhir.kbv.de/CodeSystem/KBV_CS_SFHIR_KBV_DARREICHUNGSFORM",
                  "code": "TAB"
                }
              ]
            },
            "amount": {
              "numerator": {
                "value": 1,
                "unit": "Stk"
              },
              "denominator": {
                "value": 1
              }
            }
          }
        ],
        "basedOn": [
          {
            "reference": "Task/160.000.006.315.223.40"
          }
        ],
        "status": "unknown",
        "about": [
          {
            "reference": "#9e7a4fc7-974f-43f8-b783-9d002433c77a"
          }
        ],
        "sent": "2023-04-20T23:52:58.139+00:00",
        "recipient": [
          {
            "identifier": {
              "system": "https://gematik.de/fhir/NamingSystem/TelematikID",
              "value": "1-2-ARZT-BerndClaudius01"
            }
          }
        ],
        "sender": {
          "identifier": {
            "system": "http://fhir.de/NamingSystem/gkv/kvid-10",
            "value": "X110498565"
          }
        },
        "payload": [
          {
            "extension": [
              {
                "url": "https://gematik.de/fhir/StructureDefinition/InsuranceProvider",
                "valueIdentifier": {
                  "system": "http://fhir.de/NamingSystem/arge-ik/iknr",
                  "value": "522438861"
                }
              },
              {
                "url": "https://gematik.de/fhir/StructureDefinition/SubstitutionAllowedType",
                "valueBoolean": true
              },
              {
                "url": "https://gematik.de/fhir/StructureDefinition/PrescriptionType",
                "valueCoding": {
                  "system": "https://gematik.de/fhir/CodeSystem/Flowtype",
                  "code": "160",
                  "display": "Muster 16 (Apothekenpflichtige Arzneimittel)"
                }
              }
            ],
            "contentString": "Life? Don't talk to me about life."
          }
        ]
      },
      "search": {
        "mode": "match"
      }
    },
    {
      "fullUrl": "https://erp-test.zentral.erp.splitdns.ti-dienste.de/Communication/01eba3ab-1617-58c0-a094-18ca22ee8eab",
      "resource": {
        "resourceType": "Communication",
        "id": "01eba3ab-1617-58c0-a094-18ca22ee8eab",
        "meta": {
          "profile": [
            "https://gematik.de/fhir/StructureDefinition/ErxCommunicationInfoReq"
          ]
        },
        "contained": [
          {
            "resourceType": "Medication",
            "id": "1e491404-3692-4dad-8a85-aa07b8d98cf8",
            "meta": {
              "profile": [
                "https://fhir.kbv.de/StructureDefinition/KBV_PR_ERP_Medication_PZN|1.0.2"
              ]
            },
            "extension": [
              {
                "url": "https://fhir.kbv.de/StructureDefinition/KBV_EX_ERP_Medication_Category",
                "valueCoding": {
                  "system": "https://fhir.kbv.de/CodeSystem/KBV_CS_ERP_Medication_Category",
                  "code": "00"
                }
              },
              {
                "url": "https://fhir.kbv.de/StructureDefinition/KBV_EX_ERP_Medication_Vaccine",
                "valueBoolean": false
              },
              {
                "url": "http://fhir.de/StructureDefinition/normgroesse",
                "valueCode": "NB"
              }
            ],
            "code": {
              "coding": [
                {
                  "system": "http://fhir.de/CodeSystem/ifa/pzn",
                  "code": "12345678"
                }
              ],
              "text": "Schmerzmittel"
            },
            "form": {
              "coding": [
                {
                  "system": "https://fhir.kbv.de/CodeSystem/KBV_CS_SFHIR_KBV_DARREICHUNGSFORM",
                  "code": "TAB"
                }
              ]
            },
            "amount": {
              "numerator": {
                "value": 1,
                "unit": "Stk"
              },
              "denominator": {
                "value": 1
              }
            }
          }
        ],
        "basedOn": [
          {
            "reference": "Task/160.000.006.315.222.43"
          }
        ],
        "status": "unknown",
        "about": [
          {
            "reference": "#1e491404-3692-4dad-8a85-aa07b8d98cf8"
          }
        ],
        "sent": "2023-04-20T23:52:50.296+00:00",
        "received": "2023-04-20T23:52:50.000+00:00",
        "recipient": [
          {
            "identifier": {
              "system": "https://gematik.de/fhir/NamingSystem/TelematikID",
              "value": "3-SMC-B-Testkarte-883110000116873"
            }
          }
        ],
        "sender": {
          "identifier": {
            "system": "http://fhir.de/NamingSystem/gkv/kvid-10",
            "value": "X110498565"
          }
        },
        "payload": [
          {
            "extension": [
              {
                "url": "https://gematik.de/fhir/StructureDefinition/InsuranceProvider",
                "valueIdentifier": {
                  "system": "http://fhir.de/NamingSystem/arge-ik/iknr",
                  "value": "988590706"
                }
              },
              {
                "url": "https://gematik.de/fhir/StructureDefinition/SubstitutionAllowedType",
                "valueBoolean": true
              },
              {
                "url": "https://gematik.de/fhir/StructureDefinition/PrescriptionType",
                "valueCoding": {
                  "system": "https://gematik.de/fhir/CodeSystem/Flowtype",
                  "code": "160",
                  "display": "Muster 16 (Apothekenpflichtige Arzneimittel)"
                }
              }
            ],
            "contentString": "I won't enjoy it."
          }
        ]
      },
      "search": {
        "mode": "match"
      }
    },
    {
      "fullUrl": "https://erp-test.zentral.erp.splitdns.ti-dienste.de/Communication/01eba3ab-15c9-c178-26c1-66e442176226",
      "resource": {
        "resourceType": "Communication",
        "id": "01eba3ab-15c9-c178-26c1-66e442176226",
        "meta": {
          "profile": [
            "https://gematik.de/fhir/StructureDefinition/ErxCommunicationInfoReq"
          ]
        },
        "contained": [
          {
            "resourceType": "Medication",
            "id": "b10e8fc3-5023-45d6-aa43-0fdb90dde173",
            "meta": {
              "profile": [
                "https://fhir.kbv.de/StructureDefinition/KBV_PR_ERP_Medication_PZN|1.0.2"
              ]
            },
            "extension": [
              {
                "url": "https://fhir.kbv.de/StructureDefinition/KBV_EX_ERP_Medication_Category",
                "valueCoding": {
                  "system": "https://fhir.kbv.de/CodeSystem/KBV_CS_ERP_Medication_Category",
                  "code": "00"
                }
              },
              {
                "url": "https://fhir.kbv.de/StructureDefinition/KBV_EX_ERP_Medication_Vaccine",
                "valueBoolean": false
              },
              {
                "url": "http://fhir.de/StructureDefinition/normgroesse",
                "valueCode": "NB"
              }
            ],
            "code": {
              "coding": [
                {
                  "system": "http://fhir.de/CodeSystem/ifa/pzn",
                  "code": "12345678"
                }
              ],
              "text": "Schmerzmittel"
            },
            "form": {
              "coding": [
                {
                  "system": "https://fhir.kbv.de/CodeSystem/KBV_CS_SFHIR_KBV_DARREICHUNGSFORM",
                  "code": "TAB"
                }
              ]
            },
            "amount": {
              "numerator": {
                "value": 1,
                "unit": "Stk"
              },
              "denominator": {
                "value": 1
              }
            }
          }
        ],
        "basedOn": [
          {
            "reference": "Task/160.000.006.315.221.46"
          }
        ],
        "status": "unknown",
        "about": [
          {
            "reference": "#b10e8fc3-5023-45d6-aa43-0fdb90dde173"
          }
        ],
        "sent": "2023-04-20T23:52:45.211+00:00",
        "received": "2023-04-20T23:52:45.000+00:00",
        "recipient": [
          {
            "identifier": {
              "system": "https://gematik.de/fhir/NamingSystem/TelematikID",
              "value": "3-SMC-B-Testkarte-883110000116873"
            }
          }
        ],
        "sender": {
          "identifier": {
            "system": "http://fhir.de/NamingSystem/gkv/kvid-10",
            "value": "X110498565"
          }
        },
        "payload": [
          {
            "extension": [
              {
                "url": "https://gematik.de/fhir/StructureDefinition/InsuranceProvider",
                "valueIdentifier": {
                  "system": "http://fhir.de/NamingSystem/arge-ik/iknr",
                  "value": "624242851"
                }
              },
              {
                "url": "https://gematik.de/fhir/StructureDefinition/SubstitutionAllowedType",
                "valueBoolean": true
              },
              {
                "url": "https://gematik.de/fhir/StructureDefinition/PrescriptionType",
                "valueCoding": {
                  "system": "https://gematik.de/fhir/CodeSystem/Flowtype",
                  "code": "160",
                  "display": "Muster 16 (Apothekenpflichtige Arzneimittel)"
                }
              }
            ],
            "contentString": "I wish you'd just tell me rather trying to engage my enthusiasm, because I haven't got one."
          }
        ]
      },
      "search": {
        "mode": "match"
      }
    },
    {
      "fullUrl": "https://erp-test.zentral.erp.splitdns.ti-dienste.de/Communication/01eba3ab-1438-5ba8-eb14-35332f8a57ed",
      "resource": {
        "resourceType": "Communication",
        "id": "01eba3ab-1438-5ba8-eb14-35332f8a57ed",
        "meta": {
          "profile": [
            "https://gematik.de/fhir/StructureDefinition/ErxCommunicationInfoReq"
          ]
        },
        "contained": [
          {
            "resourceType": "Medication",
            "id": "7aeda41d-e5ef-438a-8e70-cb07d05c5205",
            "meta": {
              "profile": [
                "https://fhir.kbv.de/StructureDefinition/KBV_PR_ERP_Medication_PZN|1.0.2"
              ]
            },
            "extension": [
              {
                "url": "https://fhir.kbv.de/StructureDefinition/KBV_EX_ERP_Medication_Category",
                "valueCoding": {
                  "system": "https://fhir.kbv.de/CodeSystem/KBV_CS_ERP_Medication_Category",
                  "code": "00"
                }
              },
              {
                "url": "https://fhir.kbv.de/StructureDefinition/KBV_EX_ERP_Medication_Vaccine",
                "valueBoolean": false
              },
              {
                "url": "http://fhir.de/StructureDefinition/normgroesse",
                "valueCode": "NB"
              }
            ],
            "code": {
              "coding": [
                {
                  "system": "http://fhir.de/CodeSystem/ifa/pzn",
                  "code": "12345678"
                }
              ],
              "text": "Schmerzmittel"
            },
            "form": {
              "coding": [
                {
                  "system": "https://fhir.kbv.de/CodeSystem/KBV_CS_SFHIR_KBV_DARREICHUNGSFORM",
                  "code": "TAB"
                }
              ]
            },
            "amount": {
              "numerator": {
                "value": 1,
                "unit": "Stk"
              },
              "denominator": {
                "value": 1
              }
            }
          }
        ],
        "basedOn": [
          {
            "reference": "Task/160.000.006.315.216.61"
          }
        ],
        "status": "unknown",
        "about": [
          {
            "reference": "#7aeda41d-e5ef-438a-8e70-cb07d05c5205"
          }
        ],
        "sent": "2023-04-20T23:52:18.905+00:00",
        "received": "2023-04-20T23:52:19.000+00:00",
        "recipient": [
          {
            "identifier": {
              "system": "https://gematik.de/fhir/NamingSystem/TelematikID",
              "value": "3-SMC-B-Testkarte-883110000116873"
            }
          }
        ],
        "sender": {
          "identifier": {
            "system": "http://fhir.de/NamingSystem/gkv/kvid-10",
            "value": "X110498565"
          }
        },
        "payload": [
          {
            "extension": [
              {
                "url": "https://gematik.de/fhir/StructureDefinition/InsuranceProvider",
                "valueIdentifier": {
                  "system": "http://fhir.de/NamingSystem/arge-ik/iknr",
                  "value": "075810223"
                }
              },
              {
                "url": "https://gematik.de/fhir/StructureDefinition/SubstitutionAllowedType",
                "valueBoolean": true
              },
              {
                "url": "https://gematik.de/fhir/StructureDefinition/PrescriptionType",
                "valueCoding": {
                  "system": "https://gematik.de/fhir/CodeSystem/Flowtype",
                  "code": "160",
                  "display": "Muster 16 (Apothekenpflichtige Arzneimittel)"
                }
              }
            ],
            "contentString": "I think you ought to know I'm feeling very depressed."
          }
        ]
      },
      "search": {
        "mode": "match"
      }
    },
    {
      "fullUrl": "https://erp-test.zentral.erp.splitdns.ti-dienste.de/Communication/01eba3ab-13ce-dfc0-c629-874c208ff53c",
      "resource": {
        "resourceType": "Communication",
        "id": "01eba3ab-13ce-dfc0-c629-874c208ff53c",
        "meta": {
          "profile": [
            "https://gematik.de/fhir/StructureDefinition/ErxCommunicationDispReq"
          ]
        },
        "basedOn": [
          {
            "reference": "/Task/160.000.006.315.215.64/$accept?ac=d058df89f7bd773a50464e321b9f101b978e148c558090f2c08a7a465927a351"
          }
        ],
        "status": "unknown",
        "sent": "2023-04-20T23:52:11.992+00:00",
        "received": "2023-04-20T23:52:12.000+00:00",
        "recipient": [
          {
            "identifier": {
              "system": "https://gematik.de/fhir/NamingSystem/TelematikID",
              "value": "3-SMC-B-Testkarte-883110000116873"
            }
          }
        ],
        "sender": {
          "identifier": {
            "system": "http://fhir.de/NamingSystem/gkv/kvid-10",
            "value": "X110498565"
          }
        },
        "payload": [
          {
            "contentString": "Hey, hey, listen, guys... Look, I don't wanna mess with no reefer addicts, okay?"
          }
        ]
      },
      "search": {
        "mode": "match"
      }
    },
    {
      "fullUrl": "https://erp-test.zentral.erp.splitdns.ti-dienste.de/Communication/01eba397-101b-12b8-c463-c534048ea472",
      "resource": {
        "resourceType": "Communication",
        "id": "01eba397-101b-12b8-c463-c534048ea472",
        "meta": {
          "profile": [
            "https://gematik.de/fhir/StructureDefinition/ErxCommunicationInfoReq"
          ]
        },
        "contained": [
          {
            "resourceType": "Medication",
            "id": "2eed8651-249d-4e81-9e8c-344190da8da1",
            "meta": {
              "profile": [
                "https://fhir.kbv.de/StructureDefinition/KBV_PR_ERP_Medication_PZN|1.0.2"
              ]
            },
            "extension": [
              {
                "url": "https://fhir.kbv.de/StructureDefinition/KBV_EX_ERP_Medication_Category",
                "valueCoding": {
                  "system": "https://fhir.kbv.de/CodeSystem/KBV_CS_ERP_Medication_Category",
                  "code": "00"
                }
              },
              {
                "url": "https://fhir.kbv.de/StructureDefinition/KBV_EX_ERP_Medication_Vaccine",
                "valueBoolean": false
              },
              {
                "url": "http://fhir.de/StructureDefinition/normgroesse",
                "valueCode": "N1"
              }
            ],
            "code": {
              "coding": [
                {
                  "system": "http://fhir.de/CodeSystem/ifa/pzn",
                  "code": "12345678"
                }
              ],
              "text": "Schmerzmittel"
            },
            "form": {
              "coding": [
                {
                  "system": "https://fhir.kbv.de/CodeSystem/KBV_CS_SFHIR_KBV_DARREICHUNGSFORM",
                  "code": "TAB"
                }
              ]
            },
            "amount": {
              "numerator": {
                "value": 1,
                "unit": "Stk"
              },
              "denominator": {
                "value": 1
              }
            }
          }
        ],
        "basedOn": [
          {
            "reference": "Task/160.000.006.314.953.74"
          }
        ],
        "status": "unknown",
        "about": [
          {
            "reference": "#2eed8651-249d-4e81-9e8c-344190da8da1"
          }
        ],
        "sent": "2023-04-19T23:59:30.531+00:00",
        "received": "2023-04-20T23:52:12.000+00:00",
        "recipient": [
          {
            "identifier": {
              "system": "https://gematik.de/fhir/NamingSystem/TelematikID",
              "value": "3-SMC-B-Testkarte-883110000116873"
            }
          }
        ],
        "sender": {
          "identifier": {
            "system": "http://fhir.de/NamingSystem/gkv/kvid-10",
            "value": "X110498565"
          }
        },
        "payload": [
          {
            "extension": [
              {
                "url": "https://gematik.de/fhir/StructureDefinition/InsuranceProvider",
                "valueIdentifier": {
                  "system": "http://fhir.de/NamingSystem/arge-ik/iknr",
                  "value": "462779597"
                }
              },
              {
                "url": "https://gematik.de/fhir/StructureDefinition/SubstitutionAllowedType",
                "valueBoolean": true
              },
              {
                "url": "https://gematik.de/fhir/StructureDefinition/PrescriptionType",
                "valueCoding": {
                  "system": "https://gematik.de/fhir/CodeSystem/Flowtype",
                  "code": "160",
                  "display": "Muster 16 (Apothekenpflichtige Arzneimittel)"
                }
              }
            ],
            "contentString": "There's only one life-form as intelligent as me within thirty parsecs of here and that's me."
          }
        ]
      },
      "search": {
        "mode": "match"
      }
    },
    {
      "fullUrl": "https://erp-test.zentral.erp.splitdns.ti-dienste.de/Communication/01eba397-02b3-3fd8-3b3e-17c566580f0d",
      "resource": {
        "resourceType": "Communication",
        "id": "01eba397-02b3-3fd8-3b3e-17c566580f0d",
        "meta": {
          "profile": [
            "https://gematik.de/fhir/StructureDefinition/ErxCommunicationRepresentative"
          ]
        },
        "basedOn": [
          {
            "reference": "/Task/160.000.006.314.920.76/$accept?ac=f3bc1b56295dee3315a6bbe96a45405b0fd4d979cc6058bfcfd0af7157881415"
          }
        ],
        "status": "unknown",
        "sent": "2023-04-19T23:55:45.623+00:00",
        "received": "2023-04-19T23:55:46.000+00:00",
        "recipient": [
          {
            "identifier": {
              "system": "http://fhir.de/NamingSystem/gkv/kvid-10",
              "value": "X110465770"
            }
          }
        ],
        "sender": {
          "identifier": {
            "system": "http://fhir.de/NamingSystem/gkv/kvid-10",
            "value": "X110498565"
          }
        },
        "payload": [
          {
            "extension": [
              {
                "url": "https://gematik.de/fhir/StructureDefinition/SubstitutionAllowedType",
                "valueBoolean": true
              },
              {
                "url": "https://gematik.de/fhir/StructureDefinition/PrescriptionType",
                "valueCoding": {
                  "system": "https://gematik.de/fhir/CodeSystem/Flowtype",
                  "code": "160",
                  "display": "Muster 16 (Apothekenpflichtige Arzneimittel)"
                }
              }
            ],
            "contentString": "Chuck Norris ließ sich an einen Lügendetektor anschließen. Die Maschine gestand."
          }
        ]
      },
      "search": {
        "mode": "match"
      }
    },
    {
      "fullUrl": "https://erp-test.zentral.erp.splitdns.ti-dienste.de/Communication/01eba396-f9d7-6970-9188-437575ef0f29",
      "resource": {
        "resourceType": "Communication",
        "id": "01eba396-f9d7-6970-9188-437575ef0f29",
        "meta": {
          "profile": [
            "https://gematik.de/fhir/StructureDefinition/ErxCommunicationInfoReq"
          ]
        },
        "contained": [
          {
            "resourceType": "Medication",
            "id": "48c6b401-c44b-456b-a38d-7d7b059964a4",
            "meta": {
              "profile": [
                "https://fhir.kbv.de/StructureDefinition/KBV_PR_ERP_Medication_PZN|1.0.2"
              ]
            },
            "extension": [
              {
                "url": "https://fhir.kbv.de/StructureDefinition/KBV_EX_ERP_Medication_Category",
                "valueCoding": {
                  "system": "https://fhir.kbv.de/CodeSystem/KBV_CS_ERP_Medication_Category",
                  "code": "00"
                }
              },
              {
                "url": "https://fhir.kbv.de/StructureDefinition/KBV_EX_ERP_Medication_Vaccine",
                "valueBoolean": false
              },
              {
                "url": "http://fhir.de/StructureDefinition/normgroesse",
                "valueCode": "NB"
              }
            ],
            "code": {
              "coding": [
                {
                  "system": "http://fhir.de/CodeSystem/ifa/pzn",
                  "code": "12345678"
                }
              ],
              "text": "Schmerzmittel"
            },
            "form": {
              "coding": [
                {
                  "system": "https://fhir.kbv.de/CodeSystem/KBV_CS_SFHIR_KBV_DARREICHUNGSFORM",
                  "code": "TAB"
                }
              ]
            },
            "amount": {
              "numerator": {
                "value": 1,
                "unit": "Stk"
              },
              "denominator": {
                "value": 1
              }
            }
          }
        ],
        "basedOn": [
          {
            "reference": "Task/160.000.006.314.897.48"
          }
        ],
        "status": "unknown",
        "about": [
          {
            "reference": "#48c6b401-c44b-456b-a38d-7d7b059964a4"
          }
        ],
        "sent": "2023-04-19T23:53:16.998+00:00",
        "recipient": [
          {
            "identifier": {
              "system": "https://gematik.de/fhir/NamingSystem/TelematikID",
              "value": "1-2-ARZT-BerndClaudius01"
            }
          }
        ],
        "sender": {
          "identifier": {
            "system": "http://fhir.de/NamingSystem/gkv/kvid-10",
            "value": "X110498565"
          }
        },
        "payload": [
          {
            "extension": [
              {
                "url": "https://gematik.de/fhir/StructureDefinition/InsuranceProvider",
                "valueIdentifier": {
                  "system": "http://fhir.de/NamingSystem/arge-ik/iknr",
                  "value": "509853862"
                }
              },
              {
                "url": "https://gematik.de/fhir/StructureDefinition/SubstitutionAllowedType",
                "valueBoolean": true
              },
              {
                "url": "https://gematik.de/fhir/StructureDefinition/PrescriptionType",
                "valueCoding": {
                  "system": "https://gematik.de/fhir/CodeSystem/Flowtype",
                  "code": "160",
                  "display": "Muster 16 (Apothekenpflichtige Arzneimittel)"
                }
              }
            ],
            "contentString": "Here I am, brain the size of a planet, and they tell me to take you up to the bridge. Call that job satisfaction? 'Cos I don't."
          }
        ]
      },
      "search": {
        "mode": "match"
      }
    },
    {
      "fullUrl": "https://erp-test.zentral.erp.splitdns.ti-dienste.de/Communication/01eba396-f95b-53d0-e892-c81c0c0fc469",
      "resource": {
        "resourceType": "Communication",
        "id": "01eba396-f95b-53d0-e892-c81c0c0fc469",
        "meta": {
          "profile": [
            "https://gematik.de/fhir/StructureDefinition/ErxCommunicationInfoReq"
          ]
        },
        "contained": [
          {
            "resourceType": "Medication",
            "id": "117cf5f1-4165-462a-b298-618c636ccd5d",
            "meta": {
              "profile": [
                "https://fhir.kbv.de/StructureDefinition/KBV_PR_ERP_Medication_PZN|1.0.2"
              ]
            },
            "extension": [
              {
                "url": "https://fhir.kbv.de/StructureDefinition/KBV_EX_ERP_Medication_Category",
                "valueCoding": {
                  "system": "https://fhir.kbv.de/CodeSystem/KBV_CS_ERP_Medication_Category",
                  "code": "00"
                }
              },
              {
                "url": "https://fhir.kbv.de/StructureDefinition/KBV_EX_ERP_Medication_Vaccine",
                "valueBoolean": false
              },
              {
                "url": "http://fhir.de/StructureDefinition/normgroesse",
                "valueCode": "NB"
              }
            ],
            "code": {
              "coding": [
                {
                  "system": "http://fhir.de/CodeSystem/ifa/pzn",
                  "code": "12345678"
                }
              ],
              "text": "Schmerzmittel"
            },
            "form": {
              "coding": [
                {
                  "system": "https://fhir.kbv.de/CodeSystem/KBV_CS_SFHIR_KBV_DARREICHUNGSFORM",
                  "code": "TAB"
                }
              ]
            },
            "amount": {
              "numerator": {
                "value": 1,
                "unit": "Stk"
              },
              "denominator": {
                "value": 1
              }
            }
          }
        ],
        "basedOn": [
          {
            "reference": "Task/160.000.006.314.896.51"
          }
        ],
        "status": "unknown",
        "about": [
          {
            "reference": "#117cf5f1-4165-462a-b298-618c636ccd5d"
          }
        ],
        "sent": "2023-04-19T23:53:08.866+00:00",
        "received": "2023-04-19T23:53:09.000+00:00",
        "recipient": [
          {
            "identifier": {
              "system": "https://gematik.de/fhir/NamingSystem/TelematikID",
              "value": "3-SMC-B-Testkarte-883110000116873"
            }
          }
        ],
        "sender": {
          "identifier": {
            "system": "http://fhir.de/NamingSystem/gkv/kvid-10",
            "value": "X110498565"
          }
        },
        "payload": [
          {
            "extension": [
              {
                "url": "https://gematik.de/fhir/StructureDefinition/InsuranceProvider",
                "valueIdentifier": {
                  "system": "http://fhir.de/NamingSystem/arge-ik/iknr",
                  "value": "817189079"
                }
              },
              {
                "url": "https://gematik.de/fhir/StructureDefinition/SubstitutionAllowedType",
                "valueBoolean": true
              },
              {
                "url": "https://gematik.de/fhir/StructureDefinition/PrescriptionType",
                "valueCoding": {
                  "system": "https://gematik.de/fhir/CodeSystem/Flowtype",
                  "code": "160",
                  "display": "Muster 16 (Apothekenpflichtige Arzneimittel)"
                }
              }
            ],
            "contentString": "Here I am, brain the size of a planet, and they tell me to take you up to the bridge. Call that job satisfaction? 'Cos I don't."
          }
        ]
      },
      "search": {
        "mode": "match"
      }
    },
    {
      "fullUrl": "https://erp-test.zentral.erp.splitdns.ti-dienste.de/Communication/01eba396-f914-a9f8-5a7d-3ff5eb8b164a",
      "resource": {
        "resourceType": "Communication",
        "id": "01eba396-f914-a9f8-5a7d-3ff5eb8b164a",
        "meta": {
          "profile": [
            "https://gematik.de/fhir/StructureDefinition/ErxCommunicationReply"
          ]
        },
        "basedOn": [
          {
            "reference": "Task/160.000.006.314.895.54"
          }
        ],
        "status": "unknown",
        "sent": "2023-04-19T23:53:04.235+00:00",
        "received": "2023-04-20T23:52:40.000+00:00",
        "recipient": [
          {
            "identifier": {
              "system": "http://fhir.de/NamingSystem/gkv/kvid-10",
              "value": "X110498565"
            }
          }
        ],
        "sender": {
          "identifier": {
            "system": "https://gematik.de/fhir/NamingSystem/TelematikID",
            "value": "3-SMC-B-Testkarte-883110000116873"
          }
        },
        "payload": [
          {
            "extension": [
              {
                "url": "https://gematik.de/fhir/StructureDefinition/AvailabilityStateExtension",
                "valueCoding": {
                  "system": "https://gematik.de/fhir/CodeSystem/AvailabilityStatus",
                  "code": "30"
                }
              },
              {
                "url": "https://gematik.de/fhir/StructureDefinition/SupplyOptionsType",
                "extension": [
                  {
                    "url": "onPremise",
                    "valueBoolean": true
                  },
                  {
                    "url": "delivery",
                    "valueBoolean": false
                  },
                  {
                    "url": "shipment",
                    "valueBoolean": false
                  }
                ]
              }
            ],
            "contentString": "Never forget who you are. The rest of the world won't. Wear it like an armor and it can never be used against you."
          }
        ]
      },
      "search": {
        "mode": "match"
      }
    },
    {
      "fullUrl": "https://erp-test.zentral.erp.splitdns.ti-dienste.de/Communication/01eba396-f782-0f90-23da-35de85854938",
      "resource": {
        "resourceType": "Communication",
        "id": "01eba396-f782-0f90-23da-35de85854938",
        "meta": {
          "profile": [
            "https://gematik.de/fhir/StructureDefinition/ErxCommunicationReply"
          ]
        },
        "basedOn": [
          {
            "reference": "Task/160.000.006.314.890.69"
          }
        ],
        "status": "unknown",
        "sent": "2023-04-19T23:52:37.850+00:00",
        "received": "2023-04-19T23:52:59.000+00:00",
        "recipient": [
          {
            "identifier": {
              "system": "http://fhir.de/NamingSystem/gkv/kvid-10",
              "value": "X110498565"
            }
          }
        ],
        "sender": {
          "identifier": {
            "system": "https://gematik.de/fhir/NamingSystem/TelematikID",
            "value": "3-SMC-B-Testkarte-883110000116873"
          }
        },
        "payload": [
          {
            "extension": [
              {
                "url": "https://gematik.de/fhir/StructureDefinition/AvailabilityStateExtension",
                "valueCoding": {
                  "system": "https://gematik.de/fhir/CodeSystem/AvailabilityStatus",
                  "code": "30"
                }
              },
              {
                "url": "https://gematik.de/fhir/StructureDefinition/SupplyOptionsType",
                "extension": [
                  {
                    "url": "onPremise",
                    "valueBoolean": true
                  },
                  {
                    "url": "delivery",
                    "valueBoolean": false
                  },
                  {
                    "url": "shipment",
                    "valueBoolean": false
                  }
                ]
              }
            ],
            "contentString": "Power is a curious thing. Who lives, Who dies. Power resides where men believe it resides. It is a trick, A shadow on the wall."
          }
        ]
      },
      "search": {
        "mode": "match"
      }
    },
    {
      "fullUrl": "https://erp-test.zentral.erp.splitdns.ti-dienste.de/Communication/01eba396-f775-59a8-6794-5ed68f93cc2e",
      "resource": {
        "resourceType": "Communication",
        "id": "01eba396-f775-59a8-6794-5ed68f93cc2e",
        "meta": {
          "profile": [
            "https://gematik.de/fhir/StructureDefinition/ErxCommunicationInfoReq"
          ]
        },
        "contained": [
          {
            "resourceType": "Medication",
            "id": "de3a6f5d-9d72-471a-aac0-448fbab78ca3",
            "meta": {
              "profile": [
                "https://fhir.kbv.de/StructureDefinition/KBV_PR_ERP_Medication_PZN|1.0.2"
              ]
            },
            "extension": [
              {
                "url": "https://fhir.kbv.de/StructureDefinition/KBV_EX_ERP_Medication_Category",
                "valueCoding": {
                  "system": "https://fhir.kbv.de/CodeSystem/KBV_CS_ERP_Medication_Category",
                  "code": "00"
                }
              },
              {
                "url": "https://fhir.kbv.de/StructureDefinition/KBV_EX_ERP_Medication_Vaccine",
                "valueBoolean": false
              },
              {
                "url": "http://fhir.de/StructureDefinition/normgroesse",
                "valueCode": "NB"
              }
            ],
            "code": {
              "coding": [
                {
                  "system": "http://fhir.de/CodeSystem/ifa/pzn",
                  "code": "12345678"
                }
              ],
              "text": "Schmerzmittel"
            },
            "form": {
              "coding": [
                {
                  "system": "https://fhir.kbv.de/CodeSystem/KBV_CS_SFHIR_KBV_DARREICHUNGSFORM",
                  "code": "TAB"
                }
              ]
            },
            "amount": {
              "numerator": {
                "value": 1,
                "unit": "Stk"
              },
              "denominator": {
                "value": 1
              }
            }
          }
        ],
        "basedOn": [
          {
            "reference": "Task/160.000.006.314.890.69"
          }
        ],
        "status": "unknown",
        "about": [
          {
            "reference": "#de3a6f5d-9d72-471a-aac0-448fbab78ca3"
          }
        ],
        "sent": "2023-04-19T23:52:37.017+00:00",
        "received": "2023-04-19T23:52:37.000+00:00",
        "recipient": [
          {
            "identifier": {
              "system": "https://gematik.de/fhir/NamingSystem/TelematikID",
              "value": "3-SMC-B-Testkarte-883110000116873"
            }
          }
        ],
        "sender": {
          "identifier": {
            "system": "http://fhir.de/NamingSystem/gkv/kvid-10",
            "value": "X110498565"
          }
        },
        "payload": [
          {
            "extension": [
              {
                "url": "https://gematik.de/fhir/StructureDefinition/InsuranceProvider",
                "valueIdentifier": {
                  "system": "http://fhir.de/NamingSystem/arge-ik/iknr",
                  "value": "823681228"
                }
              },
              {
                "url": "https://gematik.de/fhir/StructureDefinition/SubstitutionAllowedType",
                "valueBoolean": true
              },
              {
                "url": "https://gematik.de/fhir/StructureDefinition/PrescriptionType",
                "valueCoding": {
                  "system": "https://gematik.de/fhir/CodeSystem/Flowtype",
                  "code": "160",
                  "display": "Muster 16 (Apothekenpflichtige Arzneimittel)"
                }
              }
            ],
            "contentString": "Here I am, brain the size of a planet, and they tell me to take you up to the bridge. Call that job satisfaction? 'Cos I don't."
          }
        ]
      },
      "search": {
        "mode": "match"
      }
    },
    {
      "fullUrl": "https://erp-test.zentral.erp.splitdns.ti-dienste.de/Communication/01eba383-0280-dd18-5b07-1f75c1107109",
      "resource": {
        "resourceType": "Communication",
        "id": "01eba383-0280-dd18-5b07-1f75c1107109",
        "meta": {
          "profile": [
            "https://gematik.de/fhir/StructureDefinition/ErxCommunicationInfoReq"
          ]
        },
        "contained": [
          {
            "resourceType": "Medication",
            "id": "7124db8f-2ff4-40ad-a582-53ba40f68fa7",
            "meta": {
              "profile": [
                "https://fhir.kbv.de/StructureDefinition/KBV_PR_ERP_Medication_PZN|1.0.2"
              ]
            },
            "extension": [
              {
                "url": "https://fhir.kbv.de/StructureDefinition/KBV_EX_ERP_Medication_Category",
                "valueCoding": {
                  "system": "https://fhir.kbv.de/CodeSystem/KBV_CS_ERP_Medication_Category",
                  "code": "00"
                }
              },
              {
                "url": "https://fhir.kbv.de/StructureDefinition/KBV_EX_ERP_Medication_Vaccine",
                "valueBoolean": false
              },
              {
                "url": "http://fhir.de/StructureDefinition/normgroesse",
                "valueCode": "N1"
              }
            ],
            "code": {
              "coding": [
                {
                  "system": "http://fhir.de/CodeSystem/ifa/pzn",
                  "code": "12345678"
                }
              ],
              "text": "Schmerzmittel"
            },
            "form": {
              "coding": [
                {
                  "system": "https://fhir.kbv.de/CodeSystem/KBV_CS_SFHIR_KBV_DARREICHUNGSFORM",
                  "code": "TAB"
                }
              ]
            },
            "amount": {
              "numerator": {
                "value": 1,
                "unit": "Stk"
              },
              "denominator": {
                "value": 1
              }
            }
          }
        ],
        "basedOn": [
          {
            "reference": "Task/160.000.006.314.666.62"
          }
        ],
        "status": "unknown",
        "about": [
          {
            "reference": "#7124db8f-2ff4-40ad-a582-53ba40f68fa7"
          }
        ],
        "sent": "2023-04-19T00:04:02.975+00:00",
        "received": "2023-04-19T23:52:30.000+00:00",
        "recipient": [
          {
            "identifier": {
              "system": "https://gematik.de/fhir/NamingSystem/TelematikID",
              "value": "3-SMC-B-Testkarte-883110000116873"
            }
          }
        ],
        "sender": {
          "identifier": {
            "system": "http://fhir.de/NamingSystem/gkv/kvid-10",
            "value": "X110498565"
          }
        },
        "payload": [
          {
            "extension": [
              {
                "url": "https://gematik.de/fhir/StructureDefinition/InsuranceProvider",
                "valueIdentifier": {
                  "system": "http://fhir.de/NamingSystem/arge-ik/iknr",
                  "value": "839489244"
                }
              },
              {
                "url": "https://gematik.de/fhir/StructureDefinition/SubstitutionAllowedType",
                "valueBoolean": true
              },
              {
                "url": "https://gematik.de/fhir/StructureDefinition/PrescriptionType",
                "valueCoding": {
                  "system": "https://gematik.de/fhir/CodeSystem/Flowtype",
                  "code": "160",
                  "display": "Muster 16 (Apothekenpflichtige Arzneimittel)"
                }
              }
            ],
            "contentString": "And then of course I've got this terrible pain in all the diodes down my left side."
          }
        ]
      },
      "search": {
        "mode": "match"
      }
    },
    {
      "fullUrl": "https://erp-test.zentral.erp.splitdns.ti-dienste.de/Communication/01eba383-0212-4c68-0104-f2f54ed60327",
      "resource": {
        "resourceType": "Communication",
        "id": "01eba383-0212-4c68-0104-f2f54ed60327",
        "meta": {
          "profile": [
            "https://gematik.de/fhir/StructureDefinition/ErxCommunicationDispReq"
          ]
        },
        "basedOn": [
          {
            "reference": "/Task/160.000.006.314.665.65/$accept?ac=82ee01ed35bc58261e38dbd614a24f52a9e389daa4510e0c0ae46a80fae2ada1"
          }
        ],
        "status": "unknown",
        "sent": "2023-04-19T00:03:55.729+00:00",
        "received": "2023-04-19T23:52:30.000+00:00",
        "recipient": [
          {
            "identifier": {
              "system": "https://gematik.de/fhir/NamingSystem/TelematikID",
              "value": "3-SMC-B-Testkarte-883110000116873"
            }
          }
        ],
        "sender": {
          "identifier": {
            "system": "http://fhir.de/NamingSystem/gkv/kvid-10",
            "value": "X110498565"
          }
        },
        "payload": [
          {
            "contentString": "I noticed your band is on the roster for the dance auditions after school today. Why even bother, McFly? You don't have a chance. You're too much like your old man. No McFly ever amounted to anything in the history of Hill Valley!"
          }
        ]
      },
      "search": {
        "mode": "match"
      }
    },
    {
      "fullUrl": "https://erp-test.zentral.erp.splitdns.ti-dienste.de/Communication/01eba382-f49d-0050-c5b0-e14a73014df7",
      "resource": {
        "resourceType": "Communication",
        "id": "01eba382-f49d-0050-c5b0-e14a73014df7",
        "meta": {
          "profile": [
            "https://gematik.de/fhir/StructureDefinition/ErxCommunicationRepresentative"
          ]
        },
        "basedOn": [
          {
            "reference": "/Task/160.000.006.314.633.64/$accept?ac=9dcbd52da1c20c7bed5e1b095e9020a36c4c4f343223c76f1eda99ab489a3cab"
          }
        ],
        "status": "unknown",
        "sent": "2023-04-19T00:00:09.938+00:00",
        "received": "2023-04-19T00:00:10.000+00:00",
        "recipient": [
          {
            "identifier": {
              "system": "http://fhir.de/NamingSystem/gkv/kvid-10",
              "value": "X110465770"
            }
          }
        ],
        "sender": {
          "identifier": {
            "system": "http://fhir.de/NamingSystem/gkv/kvid-10",
            "value": "X110498565"
          }
        },
        "payload": [
          {
            "extension": [
              {
                "url": "https://gematik.de/fhir/StructureDefinition/SubstitutionAllowedType",
                "valueBoolean": true
              },
              {
                "url": "https://gematik.de/fhir/StructureDefinition/PrescriptionType",
                "valueCoding": {
                  "system": "https://gematik.de/fhir/CodeSystem/Flowtype",
                  "code": "160",
                  "display": "Muster 16 (Apothekenpflichtige Arzneimittel)"
                }
              }
            ],
            "contentString": "Chuck Norris ließ sich an einen Lügendetektor anschließen. Die Maschine gestand."
          }
        ]
      },
      "search": {
        "mode": "match"
      }
    },
    {
      "fullUrl": "https://erp-test.zentral.erp.splitdns.ti-dienste.de/Communication/01eba382-eb99-cbc8-ed15-129f6ace72d9",
      "resource": {
        "resourceType": "Communication",
        "id": "01eba382-eb99-cbc8-ed15-129f6ace72d9",
        "meta": {
          "profile": [
            "https://gematik.de/fhir/StructureDefinition/ErxCommunicationInfoReq"
          ]
        },
        "contained": [
          {
            "resourceType": "Medication",
            "id": "528e6c89-d859-450f-8b86-ec1b84401cf3",
            "meta": {
              "profile": [
                "https://fhir.kbv.de/StructureDefinition/KBV_PR_ERP_Medication_PZN|1.0.2"
              ]
            },
            "extension": [
              {
                "url": "https://fhir.kbv.de/StructureDefinition/KBV_EX_ERP_Medication_Category",
                "valueCoding": {
                  "system": "https://fhir.kbv.de/CodeSystem/KBV_CS_ERP_Medication_Category",
                  "code": "00"
                }
              },
              {
                "url": "https://fhir.kbv.de/StructureDefinition/KBV_EX_ERP_Medication_Vaccine",
                "valueBoolean": false
              },
              {
                "url": "http://fhir.de/StructureDefinition/normgroesse",
                "valueCode": "NB"
              }
            ],
            "code": {
              "coding": [
                {
                  "system": "http://fhir.de/CodeSystem/ifa/pzn",
                  "code": "12345678"
                }
              ],
              "text": "Schmerzmittel"
            },
            "form": {
              "coding": [
                {
                  "system": "https://fhir.kbv.de/CodeSystem/KBV_CS_SFHIR_KBV_DARREICHUNGSFORM",
                  "code": "TAB"
                }
              ]
            },
            "amount": {
              "numerator": {
                "value": 1,
                "unit": "Stk"
              },
              "denominator": {
                "value": 1
              }
            }
          }
        ],
        "basedOn": [
          {
            "reference": "Task/160.000.006.314.610.36"
          }
        ],
        "status": "unknown",
        "about": [
          {
            "reference": "#528e6c89-d859-450f-8b86-ec1b84401cf3"
          }
        ],
        "sent": "2023-04-18T23:57:38.733+00:00",
        "recipient": [
          {
            "identifier": {
              "system": "https://gematik.de/fhir/NamingSystem/TelematikID",
              "value": "1-2-ARZT-BerndClaudius01"
            }
          }
        ],
        "sender": {
          "identifier": {
            "system": "http://fhir.de/NamingSystem/gkv/kvid-10",
            "value": "X110498565"
          }
        },
        "payload": [
          {
            "extension": [
              {
                "url": "https://gematik.de/fhir/StructureDefinition/InsuranceProvider",
                "valueIdentifier": {
                  "system": "http://fhir.de/NamingSystem/arge-ik/iknr",
                  "value": "143583147"
                }
              },
              {
                "url": "https://gematik.de/fhir/StructureDefinition/SubstitutionAllowedType",
                "valueBoolean": true
              },
              {
                "url": "https://gematik.de/fhir/StructureDefinition/PrescriptionType",
                "valueCoding": {
                  "system": "https://gematik.de/fhir/CodeSystem/Flowtype",
                  "code": "160",
                  "display": "Muster 16 (Apothekenpflichtige Arzneimittel)"
                }
              }
            ],
            "contentString": "I won't enjoy it."
          }
        ]
      },
      "search": {
        "mode": "match"
      }
    },
    {
      "fullUrl": "https://erp-test.zentral.erp.splitdns.ti-dienste.de/Communication/01eba382-eb1b-1260-792e-ca79616ff9b2",
      "resource": {
        "resourceType": "Communication",
        "id": "01eba382-eb1b-1260-792e-ca79616ff9b2",
        "meta": {
          "profile": [
            "https://gematik.de/fhir/StructureDefinition/ErxCommunicationInfoReq"
          ]
        },
        "contained": [
          {
            "resourceType": "Medication",
            "id": "d7aa12ee-28dc-49e0-98d8-ab2e0f85c7c9",
            "meta": {
              "profile": [
                "https://fhir.kbv.de/StructureDefinition/KBV_PR_ERP_Medication_PZN|1.0.2"
              ]
            },
            "extension": [
              {
                "url": "https://fhir.kbv.de/StructureDefinition/KBV_EX_ERP_Medication_Category",
                "valueCoding": {
                  "system": "https://fhir.kbv.de/CodeSystem/KBV_CS_ERP_Medication_Category",
                  "code": "00"
                }
              },
              {
                "url": "https://fhir.kbv.de/StructureDefinition/KBV_EX_ERP_Medication_Vaccine",
                "valueBoolean": false
              },
              {
                "url": "http://fhir.de/StructureDefinition/normgroesse",
                "valueCode": "NB"
              }
            ],
            "code": {
              "coding": [
                {
                  "system": "http://fhir.de/CodeSystem/ifa/pzn",
                  "code": "12345678"
                }
              ],
              "text": "Schmerzmittel"
            },
            "form": {
              "coding": [
                {
                  "system": "https://fhir.kbv.de/CodeSystem/KBV_CS_SFHIR_KBV_DARREICHUNGSFORM",
                  "code": "TAB"
                }
              ]
            },
            "amount": {
              "numerator": {
                "value": 1,
                "unit": "Stk"
              },
              "denominator": {
                "value": 1
              }
            }
          }
        ],
        "basedOn": [
          {
            "reference": "Task/160.000.006.314.609.39"
          }
        ],
        "status": "unknown",
        "about": [
          {
            "reference": "#d7aa12ee-28dc-49e0-98d8-ab2e0f85c7c9"
          }
        ],
        "sent": "2023-04-18T23:57:30.428+00:00",
        "received": "2023-04-18T23:57:31.000+00:00",
        "recipient": [
          {
            "identifier": {
              "system": "https://gematik.de/fhir/NamingSystem/TelematikID",
              "value": "3-SMC-B-Testkarte-883110000116873"
            }
          }
        ],
        "sender": {
          "identifier": {
            "system": "http://fhir.de/NamingSystem/gkv/kvid-10",
            "value": "X110498565"
          }
        },
        "payload": [
          {
            "extension": [
              {
                "url": "https://gematik.de/fhir/StructureDefinition/InsuranceProvider",
                "valueIdentifier": {
                  "system": "http://fhir.de/NamingSystem/arge-ik/iknr",
                  "value": "714325209"
                }
              },
              {
                "url": "https://gematik.de/fhir/StructureDefinition/SubstitutionAllowedType",
                "valueBoolean": true
              },
              {
                "url": "https://gematik.de/fhir/StructureDefinition/PrescriptionType",
                "valueCoding": {
                  "system": "https://gematik.de/fhir/CodeSystem/Flowtype",
                  "code": "160",
                  "display": "Muster 16 (Apothekenpflichtige Arzneimittel)"
                }
              }
            ],
            "contentString": "Here I am, brain the size of a planet, and they tell me to take you up to the bridge. Call that job satisfaction? 'Cos I don't."
          }
        ]
      },
      "search": {
        "mode": "match"
      }
    },
    {
      "fullUrl": "https://erp-test.zentral.erp.splitdns.ti-dienste.de/Communication/01eba382-ead0-ede8-ccf8-5b32c9cae64d",
      "resource": {
        "resourceType": "Communication",
        "id": "01eba382-ead0-ede8-ccf8-5b32c9cae64d",
        "meta": {
          "profile": [
            "https://gematik.de/fhir/StructureDefinition/ErxCommunicationReply"
          ]
        },
        "basedOn": [
          {
            "reference": "Task/160.000.006.314.608.42"
          }
        ],
        "status": "unknown",
        "sent": "2023-04-18T23:57:25.569+00:00",
        "received": "2023-04-19T23:52:59.000+00:00",
        "recipient": [
          {
            "identifier": {
              "system": "http://fhir.de/NamingSystem/gkv/kvid-10",
              "value": "X110498565"
            }
          }
        ],
        "sender": {
          "identifier": {
            "system": "https://gematik.de/fhir/NamingSystem/TelematikID",
            "value": "3-SMC-B-Testkarte-883110000116873"
          }
        },
        "payload": [
          {
            "extension": [
              {
                "url": "https://gematik.de/fhir/StructureDefinition/AvailabilityStateExtension",
                "valueCoding": {
                  "system": "https://gematik.de/fhir/CodeSystem/AvailabilityStatus",
                  "code": "30"
                }
              },
              {
                "url": "https://gematik.de/fhir/StructureDefinition/SupplyOptionsType",
                "extension": [
                  {
                    "url": "onPremise",
                    "valueBoolean": true
                  },
                  {
                    "url": "delivery",
                    "valueBoolean": false
                  },
                  {
                    "url": "shipment",
                    "valueBoolean": false
                  }
                ]
              }
            ],
            "contentString": "All dwarfs are bastards in their father's eyes"
          }
        ]
      },
      "search": {
        "mode": "match"
      }
    },
    {
      "fullUrl": "https://erp-test.zentral.erp.splitdns.ti-dienste.de/Communication/01eba382-e931-2480-2dd1-a0ff421e095a",
      "resource": {
        "resourceType": "Communication",
        "id": "01eba382-e931-2480-2dd1-a0ff421e095a",
        "meta": {
          "profile": [
            "https://gematik.de/fhir/StructureDefinition/ErxCommunicationReply"
          ]
        },
        "basedOn": [
          {
            "reference": "Task/160.000.006.314.603.57"
          }
        ],
        "status": "unknown",
        "sent": "2023-04-18T23:56:58.320+00:00",
        "received": "2023-04-18T23:57:20.000+00:00",
        "recipient": [
          {
            "identifier": {
              "system": "http://fhir.de/NamingSystem/gkv/kvid-10",
              "value": "X110498565"
            }
          }
        ],
        "sender": {
          "identifier": {
            "system": "https://gematik.de/fhir/NamingSystem/TelematikID",
            "value": "3-SMC-B-Testkarte-883110000116873"
          }
        },
        "payload": [
          {
            "extension": [
              {
                "url": "https://gematik.de/fhir/StructureDefinition/AvailabilityStateExtension",
                "valueCoding": {
                  "system": "https://gematik.de/fhir/CodeSystem/AvailabilityStatus",
                  "code": "30"
                }
              },
              {
                "url": "https://gematik.de/fhir/StructureDefinition/SupplyOptionsType",
                "extension": [
                  {
                    "url": "onPremise",
                    "valueBoolean": true
                  },
                  {
                    "url": "delivery",
                    "valueBoolean": false
                  },
                  {
                    "url": "shipment",
                    "valueBoolean": false
                  }
                ]
              }
            ],
            "contentString": "Hodor? Hodor."
          }
        ]
      },
      "search": {
        "mode": "match"
      }
    },
    {
      "fullUrl": "https://erp-test.zentral.erp.splitdns.ti-dienste.de/Communication/01eba382-e923-a760-cc9c-62a4de460a0b",
      "resource": {
        "resourceType": "Communication",
        "id": "01eba382-e923-a760-cc9c-62a4de460a0b",
        "meta": {
          "profile": [
            "https://gematik.de/fhir/StructureDefinition/ErxCommunicationInfoReq"
          ]
        },
        "contained": [
          {
            "resourceType": "Medication",
            "id": "7abde1d6-8f12-4707-8ca6-dd000784d8e8",
            "meta": {
              "profile": [
                "https://fhir.kbv.de/StructureDefinition/KBV_PR_ERP_Medication_PZN|1.0.2"
              ]
            },
            "extension": [
              {
                "url": "https://fhir.kbv.de/StructureDefinition/KBV_EX_ERP_Medication_Category",
                "valueCoding": {
                  "system": "https://fhir.kbv.de/CodeSystem/KBV_CS_ERP_Medication_Category",
                  "code": "00"
                }
              },
              {
                "url": "https://fhir.kbv.de/StructureDefinition/KBV_EX_ERP_Medication_Vaccine",
                "valueBoolean": false
              },
              {
                "url": "http://fhir.de/StructureDefinition/normgroesse",
                "valueCode": "NB"
              }
            ],
            "code": {
              "coding": [
                {
                  "system": "http://fhir.de/CodeSystem/ifa/pzn",
                  "code": "12345678"
                }
              ],
              "text": "Schmerzmittel"
            },
            "form": {
              "coding": [
                {
                  "system": "https://fhir.kbv.de/CodeSystem/KBV_CS_SFHIR_KBV_DARREICHUNGSFORM",
                  "code": "TAB"
                }
              ]
            },
            "amount": {
              "numerator": {
                "value": 1,
                "unit": "Stk"
              },
              "denominator": {
                "value": 1
              }
            }
          }
        ],
        "basedOn": [
          {
            "reference": "Task/160.000.006.314.603.57"
          }
        ],
        "status": "unknown",
        "about": [
          {
            "reference": "#7abde1d6-8f12-4707-8ca6-dd000784d8e8"
          }
        ],
        "sent": "2023-04-18T23:56:57.436+00:00",
        "received": "2023-04-18T23:56:58.000+00:00",
        "recipient": [
          {
            "identifier": {
              "system": "https://gematik.de/fhir/NamingSystem/TelematikID",
              "value": "3-SMC-B-Testkarte-883110000116873"
            }
          }
        ],
        "sender": {
          "identifier": {
            "system": "http://fhir.de/NamingSystem/gkv/kvid-10",
            "value": "X110498565"
          }
        },
        "payload": [
          {
            "extension": [
              {
                "url": "https://gematik.de/fhir/StructureDefinition/InsuranceProvider",
                "valueIdentifier": {
                  "system": "http://fhir.de/NamingSystem/arge-ik/iknr",
                  "value": "015302402"
                }
              },
              {
                "url": "https://gematik.de/fhir/StructureDefinition/SubstitutionAllowedType",
                "valueBoolean": true
              },
              {
                "url": "https://gematik.de/fhir/StructureDefinition/PrescriptionType",
                "valueCoding": {
                  "system": "https://gematik.de/fhir/CodeSystem/Flowtype",
                  "code": "160",
                  "display": "Muster 16 (Apothekenpflichtige Arzneimittel)"
                }
              }
            ],
            "contentString": "Here I am, brain the size of a planet, and they tell me to take you up to the bridge. Call that job satisfaction? 'Cos I don't."
          }
        ]
      },
      "search": {
        "mode": "match"
      }
    },
    {
      "fullUrl": "https://erp-test.zentral.erp.splitdns.ti-dienste.de/Communication/01eba382-e8b4-fb58-f039-51d2577cb608",
      "resource": {
        "resourceType": "Communication",
        "id": "01eba382-e8b4-fb58-f039-51d2577cb608",
        "meta": {
          "profile": [
            "https://gematik.de/fhir/StructureDefinition/ErxCommunicationDispReq"
          ]
        },
        "basedOn": [
          {
            "reference": "/Task/160.000.006.314.602.60/$accept?ac=b46d0ffd3522bde15ecbf6746fa13c856b36b697b9b3b94ba45a81a4ee6b8721"
          }
        ],
        "status": "unknown",
        "sent": "2023-04-18T23:56:50.183+00:00",
        "received": "2023-04-18T23:56:50.000+00:00",
        "recipient": [
          {
            "identifier": {
              "system": "https://gematik.de/fhir/NamingSystem/TelematikID",
              "value": "3-SMC-B-Testkarte-883110000116873"
            }
          }
        ],
        "sender": {
          "identifier": {
            "system": "http://fhir.de/NamingSystem/gkv/kvid-10",
            "value": "X110498565"
          }
        },
        "payload": [
          {
            "contentString": "Whoa. This is heavy."
          }
        ]
      },
      "search": {
        "mode": "match"
      }
    },
    {
      "fullUrl": "https://erp-test.zentral.erp.splitdns.ti-dienste.de/Communication/01eba36e-d1bc-3a60-2eb2-cd34fa62d0f7",
      "resource": {
        "resourceType": "Communication",
        "id": "01eba36e-d1bc-3a60-2eb2-cd34fa62d0f7",
        "meta": {
          "profile": [
            "https://gematik.de/fhir/StructureDefinition/ErxCommunicationInfoReq"
          ]
        },
        "contained": [
          {
            "resourceType": "Medication",
            "id": "018fc27d-2aa5-4194-b2d8-7062c749c46b",
            "meta": {
              "profile": [
                "https://fhir.kbv.de/StructureDefinition/KBV_PR_ERP_Medication_PZN|1.0.2"
              ]
            },
            "extension": [
              {
                "url": "https://fhir.kbv.de/StructureDefinition/KBV_EX_ERP_Medication_Category",
                "valueCoding": {
                  "system": "https://fhir.kbv.de/CodeSystem/KBV_CS_ERP_Medication_Category",
                  "code": "00"
                }
              },
              {
                "url": "https://fhir.kbv.de/StructureDefinition/KBV_EX_ERP_Medication_Vaccine",
                "valueBoolean": false
              },
              {
                "url": "http://fhir.de/StructureDefinition/normgroesse",
                "valueCode": "N1"
              }
            ],
            "code": {
              "coding": [
                {
                  "system": "http://fhir.de/CodeSystem/ifa/pzn",
                  "code": "12345678"
                }
              ],
              "text": "Schmerzmittel"
            },
            "form": {
              "coding": [
                {
                  "system": "https://fhir.kbv.de/CodeSystem/KBV_CS_SFHIR_KBV_DARREICHUNGSFORM",
                  "code": "TAB"
                }
              ]
            },
            "amount": {
              "numerator": {
                "value": 1,
                "unit": "Stk"
              },
              "denominator": {
                "value": 1
              }
            }
          }
        ],
        "basedOn": [
          {
            "reference": "Task/160.000.006.314.376.59"
          }
        ],
        "status": "unknown",
        "about": [
          {
            "reference": "#018fc27d-2aa5-4194-b2d8-7062c749c46b"
          }
        ],
        "sent": "2023-04-17T23:58:45.436+00:00",
        "received": "2023-04-18T23:56:50.000+00:00",
        "recipient": [
          {
            "identifier": {
              "system": "https://gematik.de/fhir/NamingSystem/TelematikID",
              "value": "3-SMC-B-Testkarte-883110000116873"
            }
          }
        ],
        "sender": {
          "identifier": {
            "system": "http://fhir.de/NamingSystem/gkv/kvid-10",
            "value": "X110498565"
          }
        },
        "payload": [
          {
            "extension": [
              {
                "url": "https://gematik.de/fhir/StructureDefinition/InsuranceProvider",
                "valueIdentifier": {
                  "system": "http://fhir.de/NamingSystem/arge-ik/iknr",
                  "value": "522123221"
                }
              },
              {
                "url": "https://gematik.de/fhir/StructureDefinition/SubstitutionAllowedType",
                "valueBoolean": true
              },
              {
                "url": "https://gematik.de/fhir/StructureDefinition/PrescriptionType",
                "valueCoding": {
                  "system": "https://gematik.de/fhir/CodeSystem/Flowtype",
                  "code": "160",
                  "display": "Muster 16 (Apothekenpflichtige Arzneimittel)"
                }
              }
            ],
            "contentString": "Here I am, brain the size of a planet, and they tell me to take you up to the bridge. Call that job satisfaction? 'Cos I don't."
          }
        ]
      },
      "search": {
        "mode": "match"
      }
    },
    {
      "fullUrl": "https://erp-test.zentral.erp.splitdns.ti-dienste.de/Communication/01eba36e-c41c-2cf8-e9d2-1e072627cb7f",
      "resource": {
        "resourceType": "Communication",
        "id": "01eba36e-c41c-2cf8-e9d2-1e072627cb7f",
        "meta": {
          "profile": [
            "https://gematik.de/fhir/StructureDefinition/ErxCommunicationRepresentative"
          ]
        },
        "basedOn": [
          {
            "reference": "/Task/160.000.006.314.343.61/$accept?ac=b96cceda910fc25a9db0c2efd4d7bac76c489c7632025417b1bc5665f7a2fbd3"
          }
        ],
        "status": "unknown",
        "sent": "2023-04-17T23:54:56.843+00:00",
        "received": "2023-04-17T23:54:57.000+00:00",
        "recipient": [
          {
            "identifier": {
              "system": "http://fhir.de/NamingSystem/gkv/kvid-10",
              "value": "X110465770"
            }
          }
        ],
        "sender": {
          "identifier": {
            "system": "http://fhir.de/NamingSystem/gkv/kvid-10",
            "value": "X110498565"
          }
        },
        "payload": [
          {
            "extension": [
              {
                "url": "https://gematik.de/fhir/StructureDefinition/SubstitutionAllowedType",
                "valueBoolean": true
              },
              {
                "url": "https://gematik.de/fhir/StructureDefinition/PrescriptionType",
                "valueCoding": {
                  "system": "https://gematik.de/fhir/CodeSystem/Flowtype",
                  "code": "160",
                  "display": "Muster 16 (Apothekenpflichtige Arzneimittel)"
                }
              }
            ],
            "contentString": "Wenn Chuck Norris beim Russisch Roulette verliert, will er eine Revanche."
          }
        ]
      },
      "search": {
        "mode": "match"
      }
    },
    {
      "fullUrl": "https://erp-test.zentral.erp.splitdns.ti-dienste.de/Communication/01eba36e-bb28-2ef8-38b6-ee6fb5603946",
      "resource": {
        "resourceType": "Communication",
        "id": "01eba36e-bb28-2ef8-38b6-ee6fb5603946",
        "meta": {
          "profile": [
            "https://gematik.de/fhir/StructureDefinition/ErxCommunicationInfoReq"
          ]
        },
        "contained": [
          {
            "resourceType": "Medication",
            "id": "59321620-9844-4f59-a031-d9c9eef44deb",
            "meta": {
              "profile": [
                "https://fhir.kbv.de/StructureDefinition/KBV_PR_ERP_Medication_PZN|1.0.2"
              ]
            },
            "extension": [
              {
                "url": "https://fhir.kbv.de/StructureDefinition/KBV_EX_ERP_Medication_Category",
                "valueCoding": {
                  "system": "https://fhir.kbv.de/CodeSystem/KBV_CS_ERP_Medication_Category",
                  "code": "00"
                }
              },
              {
                "url": "https://fhir.kbv.de/StructureDefinition/KBV_EX_ERP_Medication_Vaccine",
                "valueBoolean": false
              },
              {
                "url": "http://fhir.de/StructureDefinition/normgroesse",
                "valueCode": "NB"
              }
            ],
            "code": {
              "coding": [
                {
                  "system": "http://fhir.de/CodeSystem/ifa/pzn",
                  "code": "12345678"
                }
              ],
              "text": "Schmerzmittel"
            },
            "form": {
              "coding": [
                {
                  "system": "https://fhir.kbv.de/CodeSystem/KBV_CS_SFHIR_KBV_DARREICHUNGSFORM",
                  "code": "TAB"
                }
              ]
            },
            "amount": {
              "numerator": {
                "value": 1,
                "unit": "Stk"
              },
              "denominator": {
                "value": 1
              }
            }
          }
        ],
        "basedOn": [
          {
            "reference": "Task/160.000.006.314.320.33"
          }
        ],
        "status": "unknown",
        "about": [
          {
            "reference": "#59321620-9844-4f59-a031-d9c9eef44deb"
          }
        ],
        "sent": "2023-04-17T23:52:26.635+00:00",
        "recipient": [
          {
            "identifier": {
              "system": "https://gematik.de/fhir/NamingSystem/TelematikID",
              "value": "1-2-ARZT-BerndClaudius01"
            }
          }
        ],
        "sender": {
          "identifier": {
            "system": "http://fhir.de/NamingSystem/gkv/kvid-10",
            "value": "X110498565"
          }
        },
        "payload": [
          {
            "extension": [
              {
                "url": "https://gematik.de/fhir/StructureDefinition/InsuranceProvider",
                "valueIdentifier": {
                  "system": "http://fhir.de/NamingSystem/arge-ik/iknr",
                  "value": "872350625"
                }
              },
              {
                "url": "https://gematik.de/fhir/StructureDefinition/SubstitutionAllowedType",
                "valueBoolean": true
              },
              {
                "url": "https://gematik.de/fhir/StructureDefinition/PrescriptionType",
                "valueCoding": {
                  "system": "https://gematik.de/fhir/CodeSystem/Flowtype",
                  "code": "160",
                  "display": "Muster 16 (Apothekenpflichtige Arzneimittel)"
                }
              }
            ],
            "contentString": "There's only one life-form as intelligent as me within thirty parsecs of here and that's me."
          }
        ]
      },
      "search": {
        "mode": "match"
      }
    },
    {
      "fullUrl": "https://erp-test.zentral.erp.splitdns.ti-dienste.de/Communication/01eba36e-baa9-c798-d572-5ae3e00d377f",
      "resource": {
        "resourceType": "Communication",
        "id": "01eba36e-baa9-c798-d572-5ae3e00d377f",
        "meta": {
          "profile": [
            "https://gematik.de/fhir/StructureDefinition/ErxCommunicationInfoReq"
          ]
        },
        "contained": [
          {
            "resourceType": "Medication",
            "id": "ed223836-0dd4-4baf-b425-300a473c80b4",
            "meta": {
              "profile": [
                "https://fhir.kbv.de/StructureDefinition/KBV_PR_ERP_Medication_PZN|1.0.2"
              ]
            },
            "extension": [
              {
                "url": "https://fhir.kbv.de/StructureDefinition/KBV_EX_ERP_Medication_Category",
                "valueCoding": {
                  "system": "https://fhir.kbv.de/CodeSystem/KBV_CS_ERP_Medication_Category",
                  "code": "00"
                }
              },
              {
                "url": "https://fhir.kbv.de/StructureDefinition/KBV_EX_ERP_Medication_Vaccine",
                "valueBoolean": false
              },
              {
                "url": "http://fhir.de/StructureDefinition/normgroesse",
                "valueCode": "NB"
              }
            ],
            "code": {
              "coding": [
                {
                  "system": "http://fhir.de/CodeSystem/ifa/pzn",
                  "code": "12345678"
                }
              ],
              "text": "Schmerzmittel"
            },
            "form": {
              "coding": [
                {
                  "system": "https://fhir.kbv.de/CodeSystem/KBV_CS_SFHIR_KBV_DARREICHUNGSFORM",
                  "code": "TAB"
                }
              ]
            },
            "amount": {
              "numerator": {
                "value": 1,
                "unit": "Stk"
              },
              "denominator": {
                "value": 1
              }
            }
          }
        ],
        "basedOn": [
          {
            "reference": "Task/160.000.006.314.319.36"
          }
        ],
        "status": "unknown",
        "about": [
          {
            "reference": "#ed223836-0dd4-4baf-b425-300a473c80b4"
          }
        ],
        "sent": "2023-04-17T23:52:18.351+00:00",
        "received": "2023-04-17T23:52:19.000+00:00",
        "recipient": [
          {
            "identifier": {
              "system": "https://gematik.de/fhir/NamingSystem/TelematikID",
              "value": "3-SMC-B-Testkarte-883110000116873"
            }
          }
        ],
        "sender": {
          "identifier": {
            "system": "http://fhir.de/NamingSystem/gkv/kvid-10",
            "value": "X110498565"
          }
        },
        "payload": [
          {
            "extension": [
              {
                "url": "https://gematik.de/fhir/StructureDefinition/InsuranceProvider",
                "valueIdentifier": {
                  "system": "http://fhir.de/NamingSystem/arge-ik/iknr",
                  "value": "238177764"
                }
              },
              {
                "url": "https://gematik.de/fhir/StructureDefinition/SubstitutionAllowedType",
                "valueBoolean": true
              },
              {
                "url": "https://gematik.de/fhir/StructureDefinition/PrescriptionType",
                "valueCoding": {
                  "system": "https://gematik.de/fhir/CodeSystem/Flowtype",
                  "code": "160",
                  "display": "Muster 16 (Apothekenpflichtige Arzneimittel)"
                }
              }
            ],
            "contentString": "And then of course I've got this terrible pain in all the diodes down my left side."
          }
        ]
      },
      "search": {
        "mode": "match"
      }
    },
    {
      "fullUrl": "https://erp-test.zentral.erp.splitdns.ti-dienste.de/Communication/01eba36e-ba5a-6748-6143-028980138e0f",
      "resource": {
        "resourceType": "Communication",
        "id": "01eba36e-ba5a-6748-6143-028980138e0f",
        "meta": {
          "profile": [
            "https://gematik.de/fhir/StructureDefinition/ErxCommunicationReply"
          ]
        },
        "basedOn": [
          {
            "reference": "Task/160.000.006.314.318.39"
          }
        ],
        "status": "unknown",
        "sent": "2023-04-17T23:52:13.149+00:00",
        "received": "2023-04-18T23:57:20.000+00:00",
        "recipient": [
          {
            "identifier": {
              "system": "http://fhir.de/NamingSystem/gkv/kvid-10",
              "value": "X110498565"
            }
          }
        ],
        "sender": {
          "identifier": {
            "system": "https://gematik.de/fhir/NamingSystem/TelematikID",
            "value": "3-SMC-B-Testkarte-883110000116873"
          }
        },
        "payload": [
          {
            "extension": [
              {
                "url": "https://gematik.de/fhir/StructureDefinition/AvailabilityStateExtension",
                "valueCoding": {
                  "system": "https://gematik.de/fhir/CodeSystem/AvailabilityStatus",
                  "code": "30"
                }
              },
              {
                "url": "https://gematik.de/fhir/StructureDefinition/SupplyOptionsType",
                "extension": [
                  {
                    "url": "onPremise",
                    "valueBoolean": true
                  },
                  {
                    "url": "delivery",
                    "valueBoolean": false
                  },
                  {
                    "url": "shipment",
                    "valueBoolean": false
                  }
                ]
              }
            ],
            "contentString": "Some old wounds never truly heal, and bleed again at the slightest word."
          }
        ]
      },
      "search": {
        "mode": "match"
      }
    },
    {
      "fullUrl": "https://erp-test.zentral.erp.splitdns.ti-dienste.de/Communication/01eba36e-b8b9-80b8-167d-90f7cfdffb8a",
      "resource": {
        "resourceType": "Communication",
        "id": "01eba36e-b8b9-80b8-167d-90f7cfdffb8a",
        "meta": {
          "profile": [
            "https://gematik.de/fhir/StructureDefinition/ErxCommunicationReply"
          ]
        },
        "basedOn": [
          {
            "reference": "Task/160.000.006.314.313.54"
          }
        ],
        "status": "unknown",
        "sent": "2023-04-17T23:51:45.827+00:00",
        "received": "2023-04-17T23:52:07.000+00:00",
        "recipient": [
          {
            "identifier": {
              "system": "http://fhir.de/NamingSystem/gkv/kvid-10",
              "value": "X110498565"
            }
          }
        ],
        "sender": {
          "identifier": {
            "system": "https://gematik.de/fhir/NamingSystem/TelematikID",
            "value": "3-SMC-B-Testkarte-883110000116873"
          }
        },
        "payload": [
          {
            "extension": [
              {
                "url": "https://gematik.de/fhir/StructureDefinition/AvailabilityStateExtension",
                "valueCoding": {
                  "system": "https://gematik.de/fhir/CodeSystem/AvailabilityStatus",
                  "code": "30"
                }
              },
              {
                "url": "https://gematik.de/fhir/StructureDefinition/SupplyOptionsType",
                "extension": [
                  {
                    "url": "onPremise",
                    "valueBoolean": true
                  },
                  {
                    "url": "delivery",
                    "valueBoolean": false
                  },
                  {
                    "url": "shipment",
                    "valueBoolean": false
                  }
                ]
              }
            ],
            "contentString": "Give me honorable enemies rather than ambitious ones, and I'll sleep more easily by night."
          }
        ]
      },
      "search": {
        "mode": "match"
      }
    },
    {
      "fullUrl": "https://erp-test.zentral.erp.splitdns.ti-dienste.de/Communication/01eba36e-b8ab-bd48-255f-32783c1e02f8",
      "resource": {
        "resourceType": "Communication",
        "id": "01eba36e-b8ab-bd48-255f-32783c1e02f8",
        "meta": {
          "profile": [
            "https://gematik.de/fhir/StructureDefinition/ErxCommunicationInfoReq"
          ]
        },
        "contained": [
          {
            "resourceType": "Medication",
            "id": "4839a312-87d2-419c-9db1-bceddb3b4ed1",
            "meta": {
              "profile": [
                "https://fhir.kbv.de/StructureDefinition/KBV_PR_ERP_Medication_PZN|1.0.2"
              ]
            },
            "extension": [
              {
                "url": "https://fhir.kbv.de/StructureDefinition/KBV_EX_ERP_Medication_Category",
                "valueCoding": {
                  "system": "https://fhir.kbv.de/CodeSystem/KBV_CS_ERP_Medication_Category",
                  "code": "00"
                }
              },
              {
                "url": "https://fhir.kbv.de/StructureDefinition/KBV_EX_ERP_Medication_Vaccine",
                "valueBoolean": false
              },
              {
                "url": "http://fhir.de/StructureDefinition/normgroesse",
                "valueCode": "NB"
              }
            ],
            "code": {
              "coding": [
                {
                  "system": "http://fhir.de/CodeSystem/ifa/pzn",
                  "code": "12345678"
                }
              ],
              "text": "Schmerzmittel"
            },
            "form": {
              "coding": [
                {
                  "system": "https://fhir.kbv.de/CodeSystem/KBV_CS_SFHIR_KBV_DARREICHUNGSFORM",
                  "code": "TAB"
                }
              ]
            },
            "amount": {
              "numerator": {
                "value": 1,
                "unit": "Stk"
              },
              "denominator": {
                "value": 1
              }
            }
          }
        ],
        "basedOn": [
          {
            "reference": "Task/160.000.006.314.313.54"
          }
        ],
        "status": "unknown",
        "about": [
          {
            "reference": "#4839a312-87d2-419c-9db1-bceddb3b4ed1"
          }
        ],
        "sent": "2023-04-17T23:51:44.925+00:00",
        "received": "2023-04-17T23:51:45.000+00:00",
        "recipient": [
          {
            "identifier": {
              "system": "https://gematik.de/fhir/NamingSystem/TelematikID",
              "value": "3-SMC-B-Testkarte-883110000116873"
            }
          }
        ],
        "sender": {
          "identifier": {
            "system": "http://fhir.de/NamingSystem/gkv/kvid-10",
            "value": "X110498565"
          }
        },
        "payload": [
          {
            "extension": [
              {
                "url": "https://gematik.de/fhir/StructureDefinition/InsuranceProvider",
                "valueIdentifier": {
                  "system": "http://fhir.de/NamingSystem/arge-ik/iknr",
                  "value": "864897306"
                }
              },
              {
                "url": "https://gematik.de/fhir/StructureDefinition/SubstitutionAllowedType",
                "valueBoolean": true
              },
              {
                "url": "https://gematik.de/fhir/StructureDefinition/PrescriptionType",
                "valueCoding": {
                  "system": "https://gematik.de/fhir/CodeSystem/Flowtype",
                  "code": "160",
                  "display": "Muster 16 (Apothekenpflichtige Arzneimittel)"
                }
              }
            ],
            "contentString": "I think you ought to know I'm feeling very depressed."
          }
        ]
      },
      "search": {
        "mode": "match"
      }
    },
    {
      "fullUrl": "https://erp-test.zentral.erp.splitdns.ti-dienste.de/Communication/01eba36e-b840-9b80-165e-714f9f406b47",
      "resource": {
        "resourceType": "Communication",
        "id": "01eba36e-b840-9b80-165e-714f9f406b47",
        "meta": {
          "profile": [
            "https://gematik.de/fhir/StructureDefinition/ErxCommunicationDispReq"
          ]
        },
        "basedOn": [
          {
            "reference": "/Task/160.000.006.314.312.57/$accept?ac=cf2012d206e6375b7fb169562cbaff94e7243ceab772e7f49846cac5c8b52267"
          }
        ],
        "status": "unknown",
        "sent": "2023-04-17T23:51:37.904+00:00",
        "received": "2023-04-17T23:51:38.000+00:00",
        "recipient": [
          {
            "identifier": {
              "system": "https://gematik.de/fhir/NamingSystem/TelematikID",
              "value": "3-SMC-B-Testkarte-883110000116873"
            }
          }
        ],
        "sender": {
          "identifier": {
            "system": "http://fhir.de/NamingSystem/gkv/kvid-10",
            "value": "X110498565"
          }
        },
        "payload": [
          {
            "contentString": "You want a Pepsi, pal, you're gonna pay for it."
          }
        ]
      },
      "search": {
        "mode": "match"
      }
    },
    {
      "fullUrl": "https://erp-test.zentral.erp.splitdns.ti-dienste.de/Communication/01eba366-22bd-5060-0f7f-cd73a9f47cb0",
      "resource": {
        "resourceType": "Communication",
        "id": "01eba366-22bd-5060-0f7f-cd73a9f47cb0",
        "meta": {
          "profile": [
            "https://gematik.de/fhir/StructureDefinition/ErxCommunicationInfoReq"
          ]
        },
        "contained": [
          {
            "resourceType": "Medication",
            "id": "8ec24d6b-eac1-4934-87d8-d2d8b1bea8d2",
            "meta": {
              "profile": [
                "https://fhir.kbv.de/StructureDefinition/KBV_PR_ERP_Medication_PZN|1.0.2"
              ]
            },
            "extension": [
              {
                "url": "https://fhir.kbv.de/StructureDefinition/KBV_EX_ERP_Medication_Category",
                "valueCoding": {
                  "system": "https://fhir.kbv.de/CodeSystem/KBV_CS_ERP_Medication_Category",
                  "code": "00"
                }
              },
              {
                "url": "https://fhir.kbv.de/StructureDefinition/KBV_EX_ERP_Medication_Vaccine",
                "valueBoolean": false
              },
              {
                "url": "http://fhir.de/StructureDefinition/normgroesse",
                "valueCode": "N1"
              }
            ],
            "code": {
              "coding": [
                {
                  "system": "http://fhir.de/CodeSystem/ifa/pzn",
                  "code": "12345678"
                }
              ],
              "text": "Schmerzmittel"
            },
            "form": {
              "coding": [
                {
                  "system": "https://fhir.kbv.de/CodeSystem/KBV_CS_SFHIR_KBV_DARREICHUNGSFORM",
                  "code": "TAB"
                }
              ]
            },
            "amount": {
              "numerator": {
                "value": 1,
                "unit": "Stk"
              },
              "denominator": {
                "value": 1
              }
            }
          }
        ],
        "basedOn": [
          {
            "reference": "Task/160.000.006.314.090.44"
          }
        ],
        "status": "unknown",
        "about": [
          {
            "reference": "#8ec24d6b-eac1-4934-87d8-d2d8b1bea8d2"
          }
        ],
        "sent": "2023-04-17T13:37:09.756+00:00",
        "received": "2023-04-17T23:51:38.000+00:00",
        "recipient": [
          {
            "identifier": {
              "system": "https://gematik.de/fhir/NamingSystem/TelematikID",
              "value": "3-SMC-B-Testkarte-883110000116873"
            }
          }
        ],
        "sender": {
          "identifier": {
            "system": "http://fhir.de/NamingSystem/gkv/kvid-10",
            "value": "X110498565"
          }
        },
        "payload": [
          {
            "extension": [
              {
                "url": "https://gematik.de/fhir/StructureDefinition/InsuranceProvider",
                "valueIdentifier": {
                  "system": "http://fhir.de/NamingSystem/arge-ik/iknr",
                  "value": "673023376"
                }
              },
              {
                "url": "https://gematik.de/fhir/StructureDefinition/SubstitutionAllowedType",
                "valueBoolean": true
              },
              {
                "url": "https://gematik.de/fhir/StructureDefinition/PrescriptionType",
                "valueCoding": {
                  "system": "https://gematik.de/fhir/CodeSystem/Flowtype",
                  "code": "160",
                  "display": "Muster 16 (Apothekenpflichtige Arzneimittel)"
                }
              }
            ],
            "contentString": "I think you ought to know I'm feeling very depressed."
          }
        ]
      },
      "search": {
        "mode": "match"
      }
    },
    {
      "fullUrl": "https://erp-test.zentral.erp.splitdns.ti-dienste.de/Communication/01eba366-10b4-2830-9b07-c229b6eebd40",
      "resource": {
        "resourceType": "Communication",
        "id": "01eba366-10b4-2830-9b07-c229b6eebd40",
        "meta": {
          "profile": [
            "https://gematik.de/fhir/StructureDefinition/ErxCommunicationRepresentative"
          ]
        },
        "basedOn": [
          {
            "reference": "/Task/160.000.006.314.057.46/$accept?ac=66e733ccede413955677400c2c9fcc238999a7f5bd8a94555878db3260f9e8ff"
          }
        ],
        "status": "unknown",
        "sent": "2023-04-17T13:32:07.166+00:00",
        "received": "2023-04-17T13:32:07.000+00:00",
        "recipient": [
          {
            "identifier": {
              "system": "http://fhir.de/NamingSystem/gkv/kvid-10",
              "value": "X110465770"
            }
          }
        ],
        "sender": {
          "identifier": {
            "system": "http://fhir.de/NamingSystem/gkv/kvid-10",
            "value": "X110498565"
          }
        },
        "payload": [
          {
            "extension": [
              {
                "url": "https://gematik.de/fhir/StructureDefinition/SubstitutionAllowedType",
                "valueBoolean": true
              },
              {
                "url": "https://gematik.de/fhir/StructureDefinition/PrescriptionType",
                "valueCoding": {
                  "system": "https://gematik.de/fhir/CodeSystem/Flowtype",
                  "code": "160",
                  "display": "Muster 16 (Apothekenpflichtige Arzneimittel)"
                }
              }
            ],
            "contentString": "Chuck Norris hat einmal 37 Terroristen mit zwei Kugeln getötet. Die erste Kugel war ein Warnschuss."
          }
        ]
      },
      "search": {
        "mode": "match"
      }
    },
    {
      "fullUrl": "https://erp-test.zentral.erp.splitdns.ti-dienste.de/Communication/01eba366-0684-9cf0-621e-43a2e160fa05",
      "resource": {
        "resourceType": "Communication",
        "id": "01eba366-0684-9cf0-621e-43a2e160fa05",
        "meta": {
          "profile": [
            "https://gematik.de/fhir/StructureDefinition/ErxCommunicationInfoReq"
          ]
        },
        "contained": [
          {
            "resourceType": "Medication",
            "id": "016a8fe4-3f90-44a3-8760-e528e3fa32df",
            "meta": {
              "profile": [
                "https://fhir.kbv.de/StructureDefinition/KBV_PR_ERP_Medication_PZN|1.0.2"
              ]
            },
            "extension": [
              {
                "url": "https://fhir.kbv.de/StructureDefinition/KBV_EX_ERP_Medication_Category",
                "valueCoding": {
                  "system": "https://fhir.kbv.de/CodeSystem/KBV_CS_ERP_Medication_Category",
                  "code": "00"
                }
              },
              {
                "url": "https://fhir.kbv.de/StructureDefinition/KBV_EX_ERP_Medication_Vaccine",
                "valueBoolean": false
              },
              {
                "url": "http://fhir.de/StructureDefinition/normgroesse",
                "valueCode": "NB"
              }
            ],
            "code": {
              "coding": [
                {
                  "system": "http://fhir.de/CodeSystem/ifa/pzn",
                  "code": "12345678"
                }
              ],
              "text": "Schmerzmittel"
            },
            "form": {
              "coding": [
                {
                  "system": "https://fhir.kbv.de/CodeSystem/KBV_CS_SFHIR_KBV_DARREICHUNGSFORM",
                  "code": "TAB"
                }
              ]
            },
            "amount": {
              "numerator": {
                "value": 1,
                "unit": "Stk"
              },
              "denominator": {
                "value": 1
              }
            }
          }
        ],
        "basedOn": [
          {
            "reference": "Task/160.000.006.314.034.18"
          }
        ],
        "status": "unknown",
        "about": [
          {
            "reference": "#016a8fe4-3f90-44a3-8760-e528e3fa32df"
          }
        ],
        "sent": "2023-04-17T13:29:16.278+00:00",
        "recipient": [
          {
            "identifier": {
              "system": "https://gematik.de/fhir/NamingSystem/TelematikID",
              "value": "1-2-ARZT-BerndClaudius01"
            }
          }
        ],
        "sender": {
          "identifier": {
            "system": "http://fhir.de/NamingSystem/gkv/kvid-10",
            "value": "X110498565"
          }
        },
        "payload": [
          {
            "extension": [
              {
                "url": "https://gematik.de/fhir/StructureDefinition/InsuranceProvider",
                "valueIdentifier": {
                  "system": "http://fhir.de/NamingSystem/arge-ik/iknr",
                  "value": "894526268"
                }
              },
              {
                "url": "https://gematik.de/fhir/StructureDefinition/SubstitutionAllowedType",
                "valueBoolean": true
              },
              {
                "url": "https://gematik.de/fhir/StructureDefinition/PrescriptionType",
                "valueCoding": {
                  "system": "https://gematik.de/fhir/CodeSystem/Flowtype",
                  "code": "160",
                  "display": "Muster 16 (Apothekenpflichtige Arzneimittel)"
                }
              }
            ],
            "contentString": "There's only one life-form as intelligent as me within thirty parsecs of here and that's me."
          }
        ]
      },
      "search": {
        "mode": "match"
      }
    },
    {
      "fullUrl": "https://erp-test.zentral.erp.splitdns.ti-dienste.de/Communication/01eba366-05e3-d0e0-9d17-34f1741ef516",
      "resource": {
        "resourceType": "Communication",
        "id": "01eba366-05e3-d0e0-9d17-34f1741ef516",
        "meta": {
          "profile": [
            "https://gematik.de/fhir/StructureDefinition/ErxCommunicationInfoReq"
          ]
        },
        "contained": [
          {
            "resourceType": "Medication",
            "id": "6000efce-d2f9-476d-81cc-8d9b65f2bc14",
            "meta": {
              "profile": [
                "https://fhir.kbv.de/StructureDefinition/KBV_PR_ERP_Medication_PZN|1.0.2"
              ]
            },
            "extension": [
              {
                "url": "https://fhir.kbv.de/StructureDefinition/KBV_EX_ERP_Medication_Category",
                "valueCoding": {
                  "system": "https://fhir.kbv.de/CodeSystem/KBV_CS_ERP_Medication_Category",
                  "code": "00"
                }
              },
              {
                "url": "https://fhir.kbv.de/StructureDefinition/KBV_EX_ERP_Medication_Vaccine",
                "valueBoolean": false
              },
              {
                "url": "http://fhir.de/StructureDefinition/normgroesse",
                "valueCode": "NB"
              }
            ],
            "code": {
              "coding": [
                {
                  "system": "http://fhir.de/CodeSystem/ifa/pzn",
                  "code": "12345678"
                }
              ],
              "text": "Schmerzmittel"
            },
            "form": {
              "coding": [
                {
                  "system": "https://fhir.kbv.de/CodeSystem/KBV_CS_SFHIR_KBV_DARREICHUNGSFORM",
                  "code": "TAB"
                }
              ]
            },
            "amount": {
              "numerator": {
                "value": 1,
                "unit": "Stk"
              },
              "denominator": {
                "value": 1
              }
            }
          }
        ],
        "basedOn": [
          {
            "reference": "Task/160.000.006.314.033.21"
          }
        ],
        "status": "unknown",
        "about": [
          {
            "reference": "#6000efce-d2f9-476d-81cc-8d9b65f2bc14"
          }
        ],
        "sent": "2023-04-17T13:29:05.740+00:00",
        "received": "2023-04-17T13:29:06.000+00:00",
        "recipient": [
          {
            "identifier": {
              "system": "https://gematik.de/fhir/NamingSystem/TelematikID",
              "value": "3-SMC-B-Testkarte-883110000116873"
            }
          }
        ],
        "sender": {
          "identifier": {
            "system": "http://fhir.de/NamingSystem/gkv/kvid-10",
            "value": "X110498565"
          }
        },
        "payload": [
          {
            "extension": [
              {
                "url": "https://gematik.de/fhir/StructureDefinition/InsuranceProvider",
                "valueIdentifier": {
                  "system": "http://fhir.de/NamingSystem/arge-ik/iknr",
                  "value": "726381635"
                }
              },
              {
                "url": "https://gematik.de/fhir/StructureDefinition/SubstitutionAllowedType",
                "valueBoolean": true
              },
              {
                "url": "https://gematik.de/fhir/StructureDefinition/PrescriptionType",
                "valueCoding": {
                  "system": "https://gematik.de/fhir/CodeSystem/Flowtype",
                  "code": "160",
                  "display": "Muster 16 (Apothekenpflichtige Arzneimittel)"
                }
              }
            ],
            "contentString": "Pardon me for breathing, which I never do anyway so I don't know why I bother to say it, Oh God, I'm so depressed."
          }
        ]
      },
      "search": {
        "mode": "match"
      }
    },
    {
      "fullUrl": "https://erp-test.zentral.erp.splitdns.ti-dienste.de/Communication/01eba366-0581-dac0-35a9-2d519d5ef089",
      "resource": {
        "resourceType": "Communication",
        "id": "01eba366-0581-dac0-35a9-2d519d5ef089",
        "meta": {
          "profile": [
            "https://gematik.de/fhir/StructureDefinition/ErxCommunicationReply"
          ]
        },
        "basedOn": [
          {
            "reference": "Task/160.000.006.314.032.24"
          }
        ],
        "status": "unknown",
        "sent": "2023-04-17T13:28:59.320+00:00",
        "received": "2023-04-17T23:51:46.000+00:00",
        "recipient": [
          {
            "identifier": {
              "system": "http://fhir.de/NamingSystem/gkv/kvid-10",
              "value": "X110498565"
            }
          }
        ],
        "sender": {
          "identifier": {
            "system": "https://gematik.de/fhir/NamingSystem/TelematikID",
            "value": "3-SMC-B-Testkarte-883110000116873"
          }
        },
        "payload": [
          {
            "extension": [
              {
                "url": "https://gematik.de/fhir/StructureDefinition/AvailabilityStateExtension",
                "valueCoding": {
                  "system": "https://gematik.de/fhir/CodeSystem/AvailabilityStatus",
                  "code": "30"
                }
              },
              {
                "url": "https://gematik.de/fhir/StructureDefinition/SupplyOptionsType",
                "extension": [
                  {
                    "url": "onPremise",
                    "valueBoolean": true
                  },
                  {
                    "url": "delivery",
                    "valueBoolean": false
                  },
                  {
                    "url": "shipment",
                    "valueBoolean": false
                  }
                ]
              }
            ],
            "contentString": "Do the dead frighten you?"
          }
        ]
      },
      "search": {
        "mode": "match"
      }
    },
    {
      "fullUrl": "https://erp-test.zentral.erp.splitdns.ti-dienste.de/Communication/01eba366-02a3-0978-7a89-8f1acc0960d6",
      "resource": {
        "resourceType": "Communication",
        "id": "01eba366-02a3-0978-7a89-8f1acc0960d6",
        "meta": {
          "profile": [
            "https://gematik.de/fhir/StructureDefinition/ErxCommunicationReply"
          ]
        },
        "basedOn": [
          {
            "reference": "Task/160.000.006.314.027.39"
          }
        ],
        "status": "unknown",
        "sent": "2023-04-17T13:28:11.163+00:00",
        "received": "2023-04-17T13:28:48.000+00:00",
        "recipient": [
          {
            "identifier": {
              "system": "http://fhir.de/NamingSystem/gkv/kvid-10",
              "value": "X110498565"
            }
          }
        ],
        "sender": {
          "identifier": {
            "system": "https://gematik.de/fhir/NamingSystem/TelematikID",
            "value": "3-SMC-B-Testkarte-883110000116873"
          }
        },
        "payload": [
          {
            "extension": [
              {
                "url": "https://gematik.de/fhir/StructureDefinition/AvailabilityStateExtension",
                "valueCoding": {
                  "system": "https://gematik.de/fhir/CodeSystem/AvailabilityStatus",
                  "code": "30"
                }
              },
              {
                "url": "https://gematik.de/fhir/StructureDefinition/SupplyOptionsType",
                "extension": [
                  {
                    "url": "onPremise",
                    "valueBoolean": true
                  },
                  {
                    "url": "delivery",
                    "valueBoolean": false
                  },
                  {
                    "url": "shipment",
                    "valueBoolean": false
                  }
                ]
              }
            ],
            "contentString": "Every flight begins with a fall."
          }
        ]
      },
      "search": {
        "mode": "match"
      }
    },
    {
      "fullUrl": "https://erp-test.zentral.erp.splitdns.ti-dienste.de/Communication/01eba366-0287-a1d8-8316-9b57857b7a11",
      "resource": {
        "resourceType": "Communication",
        "id": "01eba366-0287-a1d8-8316-9b57857b7a11",
        "meta": {
          "profile": [
            "https://gematik.de/fhir/StructureDefinition/ErxCommunicationInfoReq"
          ]
        },
        "contained": [
          {
            "resourceType": "Medication",
            "id": "2fd72388-2801-4df3-af2a-7e1be30087db",
            "meta": {
              "profile": [
                "https://fhir.kbv.de/StructureDefinition/KBV_PR_ERP_Medication_PZN|1.0.2"
              ]
            },
            "extension": [
              {
                "url": "https://fhir.kbv.de/StructureDefinition/KBV_EX_ERP_Medication_Category",
                "valueCoding": {
                  "system": "https://fhir.kbv.de/CodeSystem/KBV_CS_ERP_Medication_Category",
                  "code": "00"
                }
              },
              {
                "url": "https://fhir.kbv.de/StructureDefinition/KBV_EX_ERP_Medication_Vaccine",
                "valueBoolean": false
              },
              {
                "url": "http://fhir.de/StructureDefinition/normgroesse",
                "valueCode": "NB"
              }
            ],
            "code": {
              "coding": [
                {
                  "system": "http://fhir.de/CodeSystem/ifa/pzn",
                  "code": "12345678"
                }
              ],
              "text": "Schmerzmittel"
            },
            "form": {
              "coding": [
                {
                  "system": "https://fhir.kbv.de/CodeSystem/KBV_CS_SFHIR_KBV_DARREICHUNGSFORM",
                  "code": "TAB"
                }
              ]
            },
            "amount": {
              "numerator": {
                "value": 1,
                "unit": "Stk"
              },
              "denominator": {
                "value": 1
              }
            }
          }
        ],
        "basedOn": [
          {
            "reference": "Task/160.000.006.314.027.39"
          }
        ],
        "status": "unknown",
        "about": [
          {
            "reference": "#2fd72388-2801-4df3-af2a-7e1be30087db"
          }
        ],
        "sent": "2023-04-17T13:28:09.367+00:00",
        "received": "2023-04-17T13:28:10.000+00:00",
        "recipient": [
          {
            "identifier": {
              "system": "https://gematik.de/fhir/NamingSystem/TelematikID",
              "value": "3-SMC-B-Testkarte-883110000116873"
            }
          }
        ],
        "sender": {
          "identifier": {
            "system": "http://fhir.de/NamingSystem/gkv/kvid-10",
            "value": "X110498565"
          }
        },
        "payload": [
          {
            "extension": [
              {
                "url": "https://gematik.de/fhir/StructureDefinition/InsuranceProvider",
                "valueIdentifier": {
                  "system": "http://fhir.de/NamingSystem/arge-ik/iknr",
                  "value": "024807829"
                }
              },
              {
                "url": "https://gematik.de/fhir/StructureDefinition/SubstitutionAllowedType",
                "valueBoolean": true
              },
              {
                "url": "https://gematik.de/fhir/StructureDefinition/PrescriptionType",
                "valueCoding": {
                  "system": "https://gematik.de/fhir/CodeSystem/Flowtype",
                  "code": "160",
                  "display": "Muster 16 (Apothekenpflichtige Arzneimittel)"
                }
              }
            ],
            "contentString": "I wish you'd just tell me rather trying to engage my enthusiasm, because I haven't got one."
          }
        ]
      },
      "search": {
        "mode": "match"
      }
    },
    {
      "fullUrl": "https://erp-test.zentral.erp.splitdns.ti-dienste.de/Communication/01eba35a-9b45-66c8-5190-9c2bce9af7c6",
      "resource": {
        "resourceType": "Communication",
        "id": "01eba35a-9b45-66c8-5190-9c2bce9af7c6",
        "meta": {
          "profile": [
            "https://gematik.de/fhir/StructureDefinition/ErxCommunicationInfoReq"
          ]
        },
        "contained": [
          {
            "resourceType": "Medication",
            "id": "57d0b787-7b4a-49ab-a49e-52406731d37f",
            "meta": {
              "profile": [
                "https://fhir.kbv.de/StructureDefinition/KBV_PR_ERP_Medication_PZN|1.0.2"
              ]
            },
            "extension": [
              {
                "url": "https://fhir.kbv.de/StructureDefinition/KBV_EX_ERP_Medication_Category",
                "valueCoding": {
                  "system": "https://fhir.kbv.de/CodeSystem/KBV_CS_ERP_Medication_Category",
                  "code": "00"
                }
              },
              {
                "url": "https://fhir.kbv.de/StructureDefinition/KBV_EX_ERP_Medication_Vaccine",
                "valueBoolean": false
              },
              {
                "url": "http://fhir.de/StructureDefinition/normgroesse",
                "valueCode": "N1"
              }
            ],
            "code": {
              "coding": [
                {
                  "system": "http://fhir.de/CodeSystem/ifa/pzn",
                  "code": "12345678"
                }
              ],
              "text": "Schmerzmittel"
            },
            "form": {
              "coding": [
                {
                  "system": "https://fhir.kbv.de/CodeSystem/KBV_CS_SFHIR_KBV_DARREICHUNGSFORM",
                  "code": "TAB"
                }
              ]
            },
            "amount": {
              "numerator": {
                "value": 1,
                "unit": "Stk"
              },
              "denominator": {
                "value": 1
              }
            }
          }
        ],
        "basedOn": [
          {
            "reference": "Task/160.000.006.313.803.32"
          }
        ],
        "status": "unknown",
        "about": [
          {
            "reference": "#57d0b787-7b4a-49ab-a49e-52406731d37f"
          }
        ],
        "sent": "2023-04-16T23:51:52.333+00:00",
        "received": "2023-04-17T13:27:57.000+00:00",
        "recipient": [
          {
            "identifier": {
              "system": "https://gematik.de/fhir/NamingSystem/TelematikID",
              "value": "3-SMC-B-Testkarte-883110000116873"
            }
          }
        ],
        "sender": {
          "identifier": {
            "system": "http://fhir.de/NamingSystem/gkv/kvid-10",
            "value": "X110498565"
          }
        },
        "payload": [
          {
            "extension": [
              {
                "url": "https://gematik.de/fhir/StructureDefinition/InsuranceProvider",
                "valueIdentifier": {
                  "system": "http://fhir.de/NamingSystem/arge-ik/iknr",
                  "value": "936380620"
                }
              },
              {
                "url": "https://gematik.de/fhir/StructureDefinition/SubstitutionAllowedType",
                "valueBoolean": true
              },
              {
                "url": "https://gematik.de/fhir/StructureDefinition/PrescriptionType",
                "valueCoding": {
                  "system": "https://gematik.de/fhir/CodeSystem/Flowtype",
                  "code": "160",
                  "display": "Muster 16 (Apothekenpflichtige Arzneimittel)"
                }
              }
            ],
            "contentString": "Pardon me for breathing, which I never do anyway so I don't know why I bother to say it, Oh God, I'm so depressed."
          }
        ]
      },
      "search": {
        "mode": "match"
      }
    },
    {
      "fullUrl": "https://erp-test.zentral.erp.splitdns.ti-dienste.de/Communication/01eba35a-9ad7-7e10-5f8b-66ea22211a7b",
      "resource": {
        "resourceType": "Communication",
        "id": "01eba35a-9ad7-7e10-5f8b-66ea22211a7b",
        "meta": {
          "profile": [
            "https://gematik.de/fhir/StructureDefinition/ErxCommunicationDispReq"
          ]
        },
        "basedOn": [
          {
            "reference": "/Task/160.000.006.313.802.35/$accept?ac=80709b09afa300b0d58e08ad23bd243a5ed615bdb240869b49dc08dd1ad724bb"
          }
        ],
        "status": "unknown",
        "sent": "2023-04-16T23:51:45.130+00:00",
        "received": "2023-04-17T13:27:57.000+00:00",
        "recipient": [
          {
            "identifier": {
              "system": "https://gematik.de/fhir/NamingSystem/TelematikID",
              "value": "3-SMC-B-Testkarte-883110000116873"
            }
          }
        ],
        "sender": {
          "identifier": {
            "system": "http://fhir.de/NamingSystem/gkv/kvid-10",
            "value": "X110498565"
          }
        },
        "payload": [
          {
            "contentString": "Lorraine. My density has brought me to you."
          }
        ]
      },
      "search": {
        "mode": "match"
      }
    },
    {
      "fullUrl": "https://erp-test.zentral.erp.splitdns.ti-dienste.de/Communication/01eba35a-8d80-5ca0-5a12-15af29491163",
      "resource": {
        "resourceType": "Communication",
        "id": "01eba35a-8d80-5ca0-5a12-15af29491163",
        "meta": {
          "profile": [
            "https://gematik.de/fhir/StructureDefinition/ErxCommunicationRepresentative"
          ]
        },
        "basedOn": [
          {
            "reference": "/Task/160.000.006.313.770.34/$accept?ac=1b4dcc32c28e9c9c9914a1712335ce330a7e6ba50e9e8d37eeeba2a9f0b008f3"
          }
        ],
        "status": "unknown",
        "sent": "2023-04-16T23:48:01.316+00:00",
        "received": "2023-04-16T23:48:01.000+00:00",
        "recipient": [
          {
            "identifier": {
              "system": "http://fhir.de/NamingSystem/gkv/kvid-10",
              "value": "X110465770"
            }
          }
        ],
        "sender": {
          "identifier": {
            "system": "http://fhir.de/NamingSystem/gkv/kvid-10",
            "value": "X110498565"
          }
        },
        "payload": [
          {
            "extension": [
              {
                "url": "https://gematik.de/fhir/StructureDefinition/SubstitutionAllowedType",
                "valueBoolean": true
              },
              {
                "url": "https://gematik.de/fhir/StructureDefinition/PrescriptionType",
                "valueCoding": {
                  "system": "https://gematik.de/fhir/CodeSystem/Flowtype",
                  "code": "160",
                  "display": "Muster 16 (Apothekenpflichtige Arzneimittel)"
                }
              }
            ],
            "contentString": "Die GEZ zahlt Chuck-Norris-Gebühren."
          }
        ]
      },
      "search": {
        "mode": "match"
      }
    },
    {
      "fullUrl": "https://erp-test.zentral.erp.splitdns.ti-dienste.de/Communication/01eba35a-8478-7110-5b77-290e82913cbf",
      "resource": {
        "resourceType": "Communication",
        "id": "01eba35a-8478-7110-5b77-290e82913cbf",
        "meta": {
          "profile": [
            "https://gematik.de/fhir/StructureDefinition/ErxCommunicationInfoReq"
          ]
        },
        "contained": [
          {
            "resourceType": "Medication",
            "id": "748a5e44-bcaf-4992-8889-07ad763d7def",
            "meta": {
              "profile": [
                "https://fhir.kbv.de/StructureDefinition/KBV_PR_ERP_Medication_PZN|1.0.2"
              ]
            },
            "extension": [
              {
                "url": "https://fhir.kbv.de/StructureDefinition/KBV_EX_ERP_Medication_Category",
                "valueCoding": {
                  "system": "https://fhir.kbv.de/CodeSystem/KBV_CS_ERP_Medication_Category",
                  "code": "00"
                }
              },
              {
                "url": "https://fhir.kbv.de/StructureDefinition/KBV_EX_ERP_Medication_Vaccine",
                "valueBoolean": false
              },
              {
                "url": "http://fhir.de/StructureDefinition/normgroesse",
                "valueCode": "NB"
              }
            ],
            "code": {
              "coding": [
                {
                  "system": "http://fhir.de/CodeSystem/ifa/pzn",
                  "code": "12345678"
                }
              ],
              "text": "Schmerzmittel"
            },
            "form": {
              "coding": [
                {
                  "system": "https://fhir.kbv.de/CodeSystem/KBV_CS_SFHIR_KBV_DARREICHUNGSFORM",
                  "code": "TAB"
                }
              ]
            },
            "amount": {
              "numerator": {
                "value": 1,
                "unit": "Stk"
              },
              "denominator": {
                "value": 1
              }
            }
          }
        ],
        "basedOn": [
          {
            "reference": "Task/160.000.006.313.747.06"
          }
        ],
        "status": "unknown",
        "about": [
          {
            "reference": "#748a5e44-bcaf-4992-8889-07ad763d7def"
          }
        ],
        "sent": "2023-04-16T23:45:29.802+00:00",
        "recipient": [
          {
            "identifier": {
              "system": "https://gematik.de/fhir/NamingSystem/TelematikID",
              "value": "1-2-ARZT-BerndClaudius01"
            }
          }
        ],
        "sender": {
          "identifier": {
            "system": "http://fhir.de/NamingSystem/gkv/kvid-10",
            "value": "X110498565"
          }
        },
        "payload": [
          {
            "extension": [
              {
                "url": "https://gematik.de/fhir/StructureDefinition/InsuranceProvider",
                "valueIdentifier": {
                  "system": "http://fhir.de/NamingSystem/arge-ik/iknr",
                  "value": "210242086"
                }
              },
              {
                "url": "https://gematik.de/fhir/StructureDefinition/SubstitutionAllowedType",
                "valueBoolean": true
              },
              {
                "url": "https://gematik.de/fhir/StructureDefinition/PrescriptionType",
                "valueCoding": {
                  "system": "https://gematik.de/fhir/CodeSystem/Flowtype",
                  "code": "160",
                  "display": "Muster 16 (Apothekenpflichtige Arzneimittel)"
                }
              }
            ],
            "contentString": "You think you've got problems? What are you supposed to do if you are a manically depressed robot? No, don't try to answer that. I'm fifty thousand times more intelligent than you and even I don't know the answer. It gives me a headache just trying to think down to your level."
          }
        ]
      },
      "search": {
        "mode": "match"
      }
    },
    {
      "fullUrl": "https://erp-test.zentral.erp.splitdns.ti-dienste.de/Communication/01eba35a-83fc-3460-1f5b-bb3e6b9b0f0c",
      "resource": {
        "resourceType": "Communication",
        "id": "01eba35a-83fc-3460-1f5b-bb3e6b9b0f0c",
        "meta": {
          "profile": [
            "https://gematik.de/fhir/StructureDefinition/ErxCommunicationInfoReq"
          ]
        },
        "contained": [
          {
            "resourceType": "Medication",
            "id": "2d3066b8-94df-46fe-83de-b3351de6bbce",
            "meta": {
              "profile": [
                "https://fhir.kbv.de/StructureDefinition/KBV_PR_ERP_Medication_PZN|1.0.2"
              ]
            },
            "extension": [
              {
                "url": "https://fhir.kbv.de/StructureDefinition/KBV_EX_ERP_Medication_Category",
                "valueCoding": {
                  "system": "https://fhir.kbv.de/CodeSystem/KBV_CS_ERP_Medication_Category",
                  "code": "00"
                }
              },
              {
                "url": "https://fhir.kbv.de/StructureDefinition/KBV_EX_ERP_Medication_Vaccine",
                "valueBoolean": false
              },
              {
                "url": "http://fhir.de/StructureDefinition/normgroesse",
                "valueCode": "NB"
              }
            ],
            "code": {
              "coding": [
                {
                  "system": "http://fhir.de/CodeSystem/ifa/pzn",
                  "code": "12345678"
                }
              ],
              "text": "Schmerzmittel"
            },
            "form": {
              "coding": [
                {
                  "system": "https://fhir.kbv.de/CodeSystem/KBV_CS_SFHIR_KBV_DARREICHUNGSFORM",
                  "code": "TAB"
                }
              ]
            },
            "amount": {
              "numerator": {
                "value": 1,
                "unit": "Stk"
              },
              "denominator": {
                "value": 1
              }
            }
          }
        ],
        "basedOn": [
          {
            "reference": "Task/160.000.006.313.746.09"
          }
        ],
        "status": "unknown",
        "about": [
          {
            "reference": "#2d3066b8-94df-46fe-83de-b3351de6bbce"
          }
        ],
        "sent": "2023-04-16T23:45:21.660+00:00",
        "received": "2023-04-16T23:45:22.000+00:00",
        "recipient": [
          {
            "identifier": {
              "system": "https://gematik.de/fhir/NamingSystem/TelematikID",
              "value": "3-SMC-B-Testkarte-883110000116873"
            }
          }
        ],
        "sender": {
          "identifier": {
            "system": "http://fhir.de/NamingSystem/gkv/kvid-10",
            "value": "X110498565"
          }
        },
        "payload": [
          {
            "extension": [
              {
                "url": "https://gematik.de/fhir/StructureDefinition/InsuranceProvider",
                "valueIdentifier": {
                  "system": "http://fhir.de/NamingSystem/arge-ik/iknr",
                  "value": "006364540"
                }
              },
              {
                "url": "https://gematik.de/fhir/StructureDefinition/SubstitutionAllowedType",
                "valueBoolean": true
              },
              {
                "url": "https://gematik.de/fhir/StructureDefinition/PrescriptionType",
                "valueCoding": {
                  "system": "https://gematik.de/fhir/CodeSystem/Flowtype",
                  "code": "160",
                  "display": "Muster 16 (Apothekenpflichtige Arzneimittel)"
                }
              }
            ],
            "contentString": "Pardon me for breathing, which I never do anyway so I don't know why I bother to say it, Oh God, I'm so depressed."
          }
        ]
      },
      "search": {
        "mode": "match"
      }
    },
    {
      "fullUrl": "https://erp-test.zentral.erp.splitdns.ti-dienste.de/Communication/01eba35a-83b1-7b78-5296-6231674efaed",
      "resource": {
        "resourceType": "Communication",
        "id": "01eba35a-83b1-7b78-5296-6231674efaed",
        "meta": {
          "profile": [
            "https://gematik.de/fhir/StructureDefinition/ErxCommunicationReply"
          ]
        },
        "basedOn": [
          {
            "reference": "Task/160.000.006.313.745.12"
          }
        ],
        "status": "unknown",
        "sent": "2023-04-16T23:45:16.763+00:00",
        "received": "2023-04-17T13:28:11.000+00:00",
        "recipient": [
          {
            "identifier": {
              "system": "http://fhir.de/NamingSystem/gkv/kvid-10",
              "value": "X110498565"
            }
          }
        ],
        "sender": {
          "identifier": {
            "system": "https://gematik.de/fhir/NamingSystem/TelematikID",
            "value": "3-SMC-B-Testkarte-883110000116873"
          }
        },
        "payload": [
          {
            "extension": [
              {
                "url": "https://gematik.de/fhir/StructureDefinition/AvailabilityStateExtension",
                "valueCoding": {
                  "system": "https://gematik.de/fhir/CodeSystem/AvailabilityStatus",
                  "code": "30"
                }
              },
              {
                "url": "https://gematik.de/fhir/StructureDefinition/SupplyOptionsType",
                "extension": [
                  {
                    "url": "onPremise",
                    "valueBoolean": true
                  },
                  {
                    "url": "delivery",
                    "valueBoolean": false
                  },
                  {
                    "url": "shipment",
                    "valueBoolean": false
                  }
                ]
              }
            ],
            "contentString": "The North remembers."
          }
        ]
      },
      "search": {
        "mode": "match"
      }
    },
    {
      "fullUrl": "https://erp-test.zentral.erp.splitdns.ti-dienste.de/Communication/01eba35a-8210-a870-dd28-470737225360",
      "resource": {
        "resourceType": "Communication",
        "id": "01eba35a-8210-a870-dd28-470737225360",
        "meta": {
          "profile": [
            "https://gematik.de/fhir/StructureDefinition/ErxCommunicationReply"
          ]
        },
        "basedOn": [
          {
            "reference": "Task/160.000.006.313.740.27"
          }
        ],
        "status": "unknown",
        "sent": "2023-04-16T23:44:49.446+00:00",
        "received": "2023-04-16T23:44:50.000+00:00",
        "recipient": [
          {
            "identifier": {
              "system": "http://fhir.de/NamingSystem/gkv/kvid-10",
              "value": "X110498565"
            }
          }
        ],
        "sender": {
          "identifier": {
            "system": "https://gematik.de/fhir/NamingSystem/TelematikID",
            "value": "3-SMC-B-Testkarte-883110000116873"
          }
        },
        "payload": [
          {
            "extension": [
              {
                "url": "https://gematik.de/fhir/StructureDefinition/AvailabilityStateExtension",
                "valueCoding": {
                  "system": "https://gematik.de/fhir/CodeSystem/AvailabilityStatus",
                  "code": "30"
                }
              },
              {
                "url": "https://gematik.de/fhir/StructureDefinition/SupplyOptionsType",
                "extension": [
                  {
                    "url": "onPremise",
                    "valueBoolean": true
                  },
                  {
                    "url": "delivery",
                    "valueBoolean": false
                  },
                  {
                    "url": "shipment",
                    "valueBoolean": false
                  }
                ]
              }
            ],
            "contentString": "Things are not always as they seemed, much that may seem evil can be good."
          }
        ]
      },
      "search": {
        "mode": "match"
      }
    },
    {
      "fullUrl": "https://erp-test.zentral.erp.splitdns.ti-dienste.de/Communication/01eba35a-8202-5c48-79aa-776c95f2caef",
      "resource": {
        "resourceType": "Communication",
        "id": "01eba35a-8202-5c48-79aa-776c95f2caef",
        "meta": {
          "profile": [
            "https://gematik.de/fhir/StructureDefinition/ErxCommunicationInfoReq"
          ]
        },
        "contained": [
          {
            "resourceType": "Medication",
            "id": "03dbca9b-fb22-4d5c-ab7a-bac7615e1be5",
            "meta": {
              "profile": [
                "https://fhir.kbv.de/StructureDefinition/KBV_PR_ERP_Medication_PZN|1.0.2"
              ]
            },
            "extension": [
              {
                "url": "https://fhir.kbv.de/StructureDefinition/KBV_EX_ERP_Medication_Category",
                "valueCoding": {
                  "system": "https://fhir.kbv.de/CodeSystem/KBV_CS_ERP_Medication_Category",
                  "code": "00"
                }
              },
              {
                "url": "https://fhir.kbv.de/StructureDefinition/KBV_EX_ERP_Medication_Vaccine",
                "valueBoolean": false
              },
              {
                "url": "http://fhir.de/StructureDefinition/normgroesse",
                "valueCode": "NB"
              }
            ],
            "code": {
              "coding": [
                {
                  "system": "http://fhir.de/CodeSystem/ifa/pzn",
                  "code": "12345678"
                }
              ],
              "text": "Schmerzmittel"
            },
            "form": {
              "coding": [
                {
                  "system": "https://fhir.kbv.de/CodeSystem/KBV_CS_SFHIR_KBV_DARREICHUNGSFORM",
                  "code": "TAB"
                }
              ]
            },
            "amount": {
              "numerator": {
                "value": 1,
                "unit": "Stk"
              },
              "denominator": {
                "value": 1
              }
            }
          }
        ],
        "basedOn": [
          {
            "reference": "Task/160.000.006.313.740.27"
          }
        ],
        "status": "unknown",
        "about": [
          {
            "reference": "#03dbca9b-fb22-4d5c-ab7a-bac7615e1be5"
          }
        ],
        "sent": "2023-04-16T23:44:48.509+00:00",
        "received": "2023-04-16T23:44:49.000+00:00",
        "recipient": [
          {
            "identifier": {
              "system": "https://gematik.de/fhir/NamingSystem/TelematikID",
              "value": "3-SMC-B-Testkarte-883110000116873"
            }
          }
        ],
        "sender": {
          "identifier": {
            "system": "http://fhir.de/NamingSystem/gkv/kvid-10",
            "value": "X110498565"
          }
        },
        "payload": [
          {
            "extension": [
              {
                "url": "https://gematik.de/fhir/StructureDefinition/InsuranceProvider",
                "valueIdentifier": {
                  "system": "http://fhir.de/NamingSystem/arge-ik/iknr",
                  "value": "306166976"
                }
              },
              {
                "url": "https://gematik.de/fhir/StructureDefinition/SubstitutionAllowedType",
                "valueBoolean": true
              },
              {
                "url": "https://gematik.de/fhir/StructureDefinition/PrescriptionType",
                "valueCoding": {
                  "system": "https://gematik.de/fhir/CodeSystem/Flowtype",
                  "code": "160",
                  "display": "Muster 16 (Apothekenpflichtige Arzneimittel)"
                }
              }
            ],
            "contentString": "You think you've got problems? What are you supposed to do if you are a manically depressed robot? No, don't try to answer that. I'm fifty thousand times more intelligent than you and even I don't know the answer. It gives me a headache just trying to think down to your level."
          }
        ]
      },
      "search": {
        "mode": "match"
      }
    },
    {
      "fullUrl": "https://erp-test.zentral.erp.splitdns.ti-dienste.de/Communication/01eba35a-8166-5eb0-bc39-7b14ebb90f8e",
      "resource": {
        "resourceType": "Communication",
        "id": "01eba35a-8166-5eb0-bc39-7b14ebb90f8e",
        "meta": {
          "profile": [
            "https://gematik.de/fhir/StructureDefinition/ErxCommunicationDispReq"
          ]
        },
        "basedOn": [
          {
            "reference": "/Task/160.000.006.313.739.30/$accept?ac=31a38039200f232159d9a4e26d478745593102d522fd5ba9a0138486914c5329"
          }
        ],
        "status": "unknown",
        "sent": "2023-04-16T23:44:38.286+00:00",
        "received": "2023-04-16T23:44:39.000+00:00",
        "recipient": [
          {
            "identifier": {
              "system": "https://gematik.de/fhir/NamingSystem/TelematikID",
              "value": "3-SMC-B-Testkarte-883110000116873"
            }
          }
        ],
        "sender": {
          "identifier": {
            "system": "http://fhir.de/NamingSystem/gkv/kvid-10",
            "value": "X110498565"
          }
        },
        "payload": [
          {
            "contentString": "Whoa. Wait a minute, Doc. Are you trying to tell me that my mother has got the hots for me?"
          }
        ]
      },
      "search": {
        "mode": "match"
      }
    },
    {
      "fullUrl": "https://erp-test.zentral.erp.splitdns.ti-dienste.de/Communication/01eba346-a16c-1f60-d076-22438c33578b",
      "resource": {
        "resourceType": "Communication",
        "id": "01eba346-a16c-1f60-d076-22438c33578b",
        "meta": {
          "profile": [
            "https://gematik.de/fhir/StructureDefinition/ErxCommunicationInfoReq"
          ]
        },
        "contained": [
          {
            "resourceType": "Medication",
            "id": "77acff6a-e3e8-4f8d-8f05-72e44498f699",
            "meta": {
              "profile": [
                "https://fhir.kbv.de/StructureDefinition/KBV_PR_ERP_Medication_PZN|1.0.2"
              ]
            },
            "extension": [
              {
                "url": "https://fhir.kbv.de/StructureDefinition/KBV_EX_ERP_Medication_Category",
                "valueCoding": {
                  "system": "https://fhir.kbv.de/CodeSystem/KBV_CS_ERP_Medication_Category",
                  "code": "00"
                }
              },
              {
                "url": "https://fhir.kbv.de/StructureDefinition/KBV_EX_ERP_Medication_Vaccine",
                "valueBoolean": false
              },
              {
                "url": "http://fhir.de/StructureDefinition/normgroesse",
                "valueCode": "N1"
              }
            ],
            "code": {
              "coding": [
                {
                  "system": "http://fhir.de/CodeSystem/ifa/pzn",
                  "code": "12345678"
                }
              ],
              "text": "Schmerzmittel"
            },
            "form": {
              "coding": [
                {
                  "system": "https://fhir.kbv.de/CodeSystem/KBV_CS_SFHIR_KBV_DARREICHUNGSFORM",
                  "code": "TAB"
                }
              ]
            },
            "amount": {
              "numerator": {
                "value": 1,
                "unit": "Stk"
              },
              "denominator": {
                "value": 1
              }
            }
          }
        ],
        "basedOn": [
          {
            "reference": "Task/160.000.006.313.517.17"
          }
        ],
        "status": "unknown",
        "about": [
          {
            "reference": "#77acff6a-e3e8-4f8d-8f05-72e44498f699"
          }
        ],
        "sent": "2023-04-16T00:01:56.188+00:00",
        "received": "2023-04-16T23:44:39.000+00:00",
        "recipient": [
          {
            "identifier": {
              "system": "https://gematik.de/fhir/NamingSystem/TelematikID",
              "value": "3-SMC-B-Testkarte-883110000116873"
            }
          }
        ],
        "sender": {
          "identifier": {
            "system": "http://fhir.de/NamingSystem/gkv/kvid-10",
            "value": "X110498565"
          }
        },
        "payload": [
          {
            "extension": [
              {
                "url": "https://gematik.de/fhir/StructureDefinition/InsuranceProvider",
                "valueIdentifier": {
                  "system": "http://fhir.de/NamingSystem/arge-ik/iknr",
                  "value": "077987577"
                }
              },
              {
                "url": "https://gematik.de/fhir/StructureDefinition/SubstitutionAllowedType",
                "valueBoolean": true
              },
              {
                "url": "https://gematik.de/fhir/StructureDefinition/PrescriptionType",
                "valueCoding": {
                  "system": "https://gematik.de/fhir/CodeSystem/Flowtype",
                  "code": "160",
                  "display": "Muster 16 (Apothekenpflichtige Arzneimittel)"
                }
              }
            ],
            "contentString": "And then of course I've got this terrible pain in all the diodes down my left side."
          }
        ]
      },
      "search": {
        "mode": "match"
      }
    }
  ]
}
