{
  "resourceType": "Bundle",
  "id": "a16f8591-135d-459c-bc85-fa907eb874a3",
  "type": "searchset",
  "timestamp": "2023-03-16T11:48:50.755+00:00",
  "total": 1106,
  "link": [
    {
      "relation": "next",
      "url": "https://erp-test.zentral.erp.splitdns.ti-dienste.de/Communication?_sort=-sent&_count=50&__offset=50"
    },
    {
      "relation": "self",
      "url": "https://erp-test.zentral.erp.splitdns.ti-dienste.de/Communication?_sort=-sent"
    }
  ],
  "entry": [
    {
      "fullUrl": "https://erp-test.zentral.erp.splitdns.ti-dienste.de/Communication/01eba0e0-e2d8-8c08-687e-ab124c510db1",
      "resource": {
        "resourceType": "Communication",
        "id": "01eba0e0-e2d8-8c08-687e-ab124c510db1",
        "meta": {
          "profile": [
            "https://gematik.de/fhir/StructureDefinition/ErxCommunicationReply"
          ]
        },
        "basedOn": [
          {
            "reference": "Task/160.000.006.300.804.35"
          }
        ],
        "status": "unknown",
        "sent": "2023-03-16T11:48:23.893+00:00",
        "received": "2023-03-16T11:48:24.000+00:00",
        "recipient": [
          {
            "identifier": {
              "system": "http://fhir.de/NamingSystem/gkv/kvid-10",
              "value": "X110498565"
            }
          }
        ],
        "sender": {
          "identifier": {
            "system": "https://gematik.de/fhir/NamingSystem/TelematikID",
            "value": "3-SMC-B-Testkarte-883110000116873"
          }
        },
        "payload": [
          {
            "extension": [
              {
                "url": "https://gematik.de/fhir/StructureDefinition/AvailabilityStateExtension",
                "valueCoding": {
                  "system": "https://gematik.de/fhir/CodeSystem/AvailabilityStatus",
                  "code": "30"
                }
              },
              {
                "url": "https://gematik.de/fhir/StructureDefinition/SupplyOptionsType",
                "extension": [
                  {
                    "url": "onPremise",
                    "valueBoolean": true
                  },
                  {
                    "url": "delivery",
                    "valueBoolean": false
                  },
                  {
                    "url": "shipment",
                    "valueBoolean": false
                  }
                ]
              }
            ],
            "contentString": "All dwarfs are bastards in their father's eyes"
          }
        ]
      },
      "search": {
        "mode": "match"
      }
    },
    {
      "fullUrl": "https://erp-test.zentral.erp.splitdns.ti-dienste.de/Communication/01eba0e0-e2c7-0b90-302d-9405d92e8b4c",
      "resource": {
        "resourceType": "Communication",
        "id": "01eba0e0-e2c7-0b90-302d-9405d92e8b4c",
        "meta": {
          "profile": [
            "https://gematik.de/fhir/StructureDefinition/ErxCommunicationInfoReq"
          ]
        },
        "contained": [
          {
            "resourceType": "Medication",
            "id": "45c85c51-c9e7-4746-a250-3028343b2ec5",
            "meta": {
              "profile": [
                "https://fhir.kbv.de/StructureDefinition/KBV_PR_ERP_Medication_PZN|1.0.2"
              ]
            },
            "extension": [
              {
                "url": "https://fhir.kbv.de/StructureDefinition/KBV_EX_ERP_Medication_Category",
                "valueCoding": {
                  "system": "https://fhir.kbv.de/CodeSystem/KBV_CS_ERP_Medication_Category",
                  "code": "00"
                }
              },
              {
                "url": "https://fhir.kbv.de/StructureDefinition/KBV_EX_ERP_Medication_Vaccine",
                "valueBoolean": false
              },
              {
                "url": "http://fhir.de/StructureDefinition/normgroesse",
                "valueCode": "NB"
              }
            ],
            "code": {
              "coding": [
                {
                  "system": "http://fhir.de/CodeSystem/ifa/pzn",
                  "code": "12345678"
                }
              ],
              "text": "Schmerzmittel"
            },
            "form": {
              "coding": [
                {
                  "system": "https://fhir.kbv.de/CodeSystem/KBV_CS_SFHIR_KBV_DARREICHUNGSFORM",
                  "code": "TAB"
                }
              ]
            },
            "amount": {
              "numerator": {
                "value": 1,
                "unit": "Stk"
              },
              "denominator": {
                "value": 1
              }
            }
          }
        ],
        "basedOn": [
          {
            "reference": "Task/160.000.006.300.804.35"
          }
        ],
        "status": "unknown",
        "about": [
          {
            "reference": "#45c85c51-c9e7-4746-a250-3028343b2ec5"
          }
        ],
        "sent": "2023-03-16T11:48:22.746+00:00",
        "received": "2023-03-16T11:48:23.000+00:00",
        "recipient": [
          {
            "identifier": {
              "system": "https://gematik.de/fhir/NamingSystem/TelematikID",
              "value": "3-SMC-B-Testkarte-883110000116873"
            }
          }
        ],
        "sender": {
          "identifier": {
            "system": "http://fhir.de/NamingSystem/gkv/kvid-10",
            "value": "X110498565"
          }
        },
        "payload": [
          {
            "extension": [
              {
                "url": "https://gematik.de/fhir/StructureDefinition/InsuranceProvider",
                "valueIdentifier": {
                  "system": "http://fhir.de/NamingSystem/arge-ik/iknr",
                  "value": "909286031"
                }
              },
              {
                "url": "https://gematik.de/fhir/StructureDefinition/SubstitutionAllowedType",
                "valueBoolean": true
              },
              {
                "url": "https://gematik.de/fhir/StructureDefinition/PrescriptionType",
                "valueCoding": {
                  "system": "https://gematik.de/fhir/CodeSystem/Flowtype",
                  "code": "160",
                  "display": "Muster 16 (Apothekenpflichtige Arzneimittel)"
                }
              }
            ],
            "contentString": "Life? Don't talk to me about life."
          }
        ]
      },
      "search": {
        "mode": "match"
      }
    },
    {
      "fullUrl": "https://erp-test.zentral.erp.splitdns.ti-dienste.de/Communication/01eba0e0-e229-1de0-dd87-5ce7c9e67b4f",
      "resource": {
        "resourceType": "Communication",
        "id": "01eba0e0-e229-1de0-dd87-5ce7c9e67b4f",
        "meta": {
          "profile": [
            "https://gematik.de/fhir/StructureDefinition/ErxCommunicationDispReq"
          ]
        },
        "basedOn": [
          {
            "reference": "160.000.006.300.803.38/$accept?ac=67b8b0b0b6d91fbd74874d36bc53358b65d9f025aa3c39248a452bab6fadf3d5"
          }
        ],
        "status": "unknown",
        "sent": "2023-03-16T11:48:12.396+00:00",
        "received": "2023-03-16T11:48:13.000+00:00",
        "recipient": [
          {
            "identifier": {
              "system": "https://gematik.de/fhir/NamingSystem/TelematikID",
              "value": "3-SMC-B-Testkarte-883110000116873"
            }
          }
        ],
        "sender": {
          "identifier": {
            "system": "http://fhir.de/NamingSystem/gkv/kvid-10",
            "value": "X110498565"
          }
        },
        "payload": [
          {
            "contentString": "I finally invent something that works!"
          }
        ]
      },
      "search": {
        "mode": "match"
      }
    },
    {
      "fullUrl": "https://erp-test.zentral.erp.splitdns.ti-dienste.de/Communication/01eba0e0-b498-98b0-703a-848f640a7cb0",
      "resource": {
        "resourceType": "Communication",
        "id": "01eba0e0-b498-98b0-703a-848f640a7cb0",
        "meta": {
          "profile": [
            "https://gematik.de/fhir/StructureDefinition/ErxCommunicationInfoReq"
          ]
        },
        "contained": [
          {
            "resourceType": "Medication",
            "id": "94f3562a-2e08-46cc-835e-b602c74620ca",
            "meta": {
              "profile": [
                "https://fhir.kbv.de/StructureDefinition/KBV_PR_ERP_Medication_PZN|1.0.2"
              ]
            },
            "extension": [
              {
                "url": "https://fhir.kbv.de/StructureDefinition/KBV_EX_ERP_Medication_Category",
                "valueCoding": {
                  "system": "https://fhir.kbv.de/CodeSystem/KBV_CS_ERP_Medication_Category",
                  "code": "00"
                }
              },
              {
                "url": "https://fhir.kbv.de/StructureDefinition/KBV_EX_ERP_Medication_Vaccine",
                "valueBoolean": false
              },
              {
                "url": "http://fhir.de/StructureDefinition/normgroesse",
                "valueCode": "N1"
              }
            ],
            "code": {
              "coding": [
                {
                  "system": "http://fhir.de/CodeSystem/ifa/pzn",
                  "code": "12345678"
                }
              ],
              "text": "Schmerzmittel"
            },
            "form": {
              "coding": [
                {
                  "system": "https://fhir.kbv.de/CodeSystem/KBV_CS_SFHIR_KBV_DARREICHUNGSFORM",
                  "code": "TAB"
                }
              ]
            },
            "amount": {
              "numerator": {
                "value": 1,
                "unit": "Stk"
              },
              "denominator": {
                "value": 1
              }
            }
          }
        ],
        "basedOn": [
          {
            "reference": "Task/160.000.006.300.802.41"
          }
        ],
        "status": "unknown",
        "about": [
          {
            "reference": "#94f3562a-2e08-46cc-835e-b602c74620ca"
          }
        ],
        "sent": "2023-03-16T11:35:27.950+00:00",
        "received": "2023-03-16T11:48:13.000+00:00",
        "recipient": [
          {
            "identifier": {
              "system": "https://gematik.de/fhir/NamingSystem/TelematikID",
              "value": "3-SMC-B-Testkarte-883110000116873"
            }
          }
        ],
        "sender": {
          "identifier": {
            "system": "http://fhir.de/NamingSystem/gkv/kvid-10",
            "value": "X110498565"
          }
        },
        "payload": [
          {
            "extension": [
              {
                "url": "https://gematik.de/fhir/StructureDefinition/InsuranceProvider",
                "valueIdentifier": {
                  "system": "http://fhir.de/NamingSystem/arge-ik/iknr",
                  "value": "661390944"
                }
              },
              {
                "url": "https://gematik.de/fhir/StructureDefinition/SubstitutionAllowedType",
                "valueBoolean": true
              },
              {
                "url": "https://gematik.de/fhir/StructureDefinition/PrescriptionType",
                "valueCoding": {
                  "system": "https://gematik.de/fhir/CodeSystem/Flowtype",
                  "code": "160",
                  "display": "Muster 16 (Apothekenpflichtige Arzneimittel)"
                }
              }
            ],
            "contentString": "Pardon me for breathing, which I never do anyway so I don't know why I bother to say it, Oh God, I'm so depressed."
          }
        ]
      },
      "search": {
        "mode": "match"
      }
    },
    {
      "fullUrl": "https://erp-test.zentral.erp.splitdns.ti-dienste.de/Communication/01eba0e0-ab40-b860-b63a-bffdead7028b",
      "resource": {
        "resourceType": "Communication",
        "id": "01eba0e0-ab40-b860-b63a-bffdead7028b",
        "meta": {
          "profile": [
            "https://gematik.de/fhir/StructureDefinition/ErxCommunicationRepresentative"
          ]
        },
        "basedOn": [
          {
            "reference": "160.000.006.300.778.16/$accept?ac=1f64fece9b7c40dc595e21e424f2cdca90ddddfde4d888e26e1534ada1a69e4b"
          }
        ],
        "status": "unknown",
        "sent": "2023-03-16T11:32:51.196+00:00",
        "received": "2023-03-16T11:32:51.000+00:00",
        "recipient": [
          {
            "identifier": {
              "system": "http://fhir.de/NamingSystem/gkv/kvid-10",
              "value": "X110465770"
            }
          }
        ],
        "sender": {
          "identifier": {
            "system": "http://fhir.de/NamingSystem/gkv/kvid-10",
            "value": "X110498565"
          }
        },
        "payload": [
          {
            "extension": [
              {
                "url": "https://gematik.de/fhir/StructureDefinition/SubstitutionAllowedType",
                "valueBoolean": true
              },
              {
                "url": "https://gematik.de/fhir/StructureDefinition/PrescriptionType",
                "valueCoding": {
                  "system": "https://gematik.de/fhir/CodeSystem/Flowtype",
                  "code": "160",
                  "display": "Muster 16 (Apothekenpflichtige Arzneimittel)"
                }
              }
            ],
            "contentString": "Chuck Norris kann wirbellosen Tieren trotzdem das Genick brechen."
          }
        ]
      },
      "search": {
        "mode": "match"
      }
    },
    {
      "fullUrl": "https://erp-test.zentral.erp.splitdns.ti-dienste.de/Communication/01eba0e0-a270-e430-729c-bf4d18a05862",
      "resource": {
        "resourceType": "Communication",
        "id": "01eba0e0-a270-e430-729c-bf4d18a05862",
        "meta": {
          "profile": [
            "https://gematik.de/fhir/StructureDefinition/ErxCommunicationInfoReq"
          ]
        },
        "contained": [
          {
            "resourceType": "Medication",
            "id": "9b26be89-862f-43c3-b37c-e2b141f410f2",
            "meta": {
              "profile": [
                "https://fhir.kbv.de/StructureDefinition/KBV_PR_ERP_Medication_PZN|1.0.2"
              ]
            },
            "extension": [
              {
                "url": "https://fhir.kbv.de/StructureDefinition/KBV_EX_ERP_Medication_Category",
                "valueCoding": {
                  "system": "https://fhir.kbv.de/CodeSystem/KBV_CS_ERP_Medication_Category",
                  "code": "00"
                }
              },
              {
                "url": "https://fhir.kbv.de/StructureDefinition/KBV_EX_ERP_Medication_Vaccine",
                "valueBoolean": false
              },
              {
                "url": "http://fhir.de/StructureDefinition/normgroesse",
                "valueCode": "NB"
              }
            ],
            "code": {
              "coding": [
                {
                  "system": "http://fhir.de/CodeSystem/ifa/pzn",
                  "code": "12345678"
                }
              ],
              "text": "Schmerzmittel"
            },
            "form": {
              "coding": [
                {
                  "system": "https://fhir.kbv.de/CodeSystem/KBV_CS_SFHIR_KBV_DARREICHUNGSFORM",
                  "code": "TAB"
                }
              ]
            },
            "amount": {
              "numerator": {
                "value": 1,
                "unit": "Stk"
              },
              "denominator": {
                "value": 1
              }
            }
          }
        ],
        "basedOn": [
          {
            "reference": "Task/160.000.006.300.755.85"
          }
        ],
        "status": "unknown",
        "about": [
          {
            "reference": "#9b26be89-862f-43c3-b37c-e2b141f410f2"
          }
        ],
        "sent": "2023-03-16T11:30:23.358+00:00",
        "recipient": [
          {
            "identifier": {
              "system": "https://gematik.de/fhir/NamingSystem/TelematikID",
              "value": "1-2-ARZT-BerndClaudius01"
            }
          }
        ],
        "sender": {
          "identifier": {
            "system": "http://fhir.de/NamingSystem/gkv/kvid-10",
            "value": "X110498565"
          }
        },
        "payload": [
          {
            "extension": [
              {
                "url": "https://gematik.de/fhir/StructureDefinition/InsuranceProvider",
                "valueIdentifier": {
                  "system": "http://fhir.de/NamingSystem/arge-ik/iknr",
                  "value": "158350546"
                }
              },
              {
                "url": "https://gematik.de/fhir/StructureDefinition/SubstitutionAllowedType",
                "valueBoolean": true
              },
              {
                "url": "https://gematik.de/fhir/StructureDefinition/PrescriptionType",
                "valueCoding": {
                  "system": "https://gematik.de/fhir/CodeSystem/Flowtype",
                  "code": "160",
                  "display": "Muster 16 (Apothekenpflichtige Arzneimittel)"
                }
              }
            ],
            "contentString": "Here I am, brain the size of a planet, and they tell me to take you up to the bridge. Call that job satisfaction? 'Cos I don't."
          }
        ]
      },
      "search": {
        "mode": "match"
      }
    },
    {
      "fullUrl": "https://erp-test.zentral.erp.splitdns.ti-dienste.de/Communication/01eba0e0-a1f0-3ab0-44f7-84ed5d7a667e",
      "resource": {
        "resourceType": "Communication",
        "id": "01eba0e0-a1f0-3ab0-44f7-84ed5d7a667e",
        "meta": {
          "profile": [
            "https://gematik.de/fhir/StructureDefinition/ErxCommunicationInfoReq"
          ]
        },
        "contained": [
          {
            "resourceType": "Medication",
            "id": "c072ee5d-6b1c-4e68-b2b4-c10b2aad1359",
            "meta": {
              "profile": [
                "https://fhir.kbv.de/StructureDefinition/KBV_PR_ERP_Medication_PZN|1.0.2"
              ]
            },
            "extension": [
              {
                "url": "https://fhir.kbv.de/StructureDefinition/KBV_EX_ERP_Medication_Category",
                "valueCoding": {
                  "system": "https://fhir.kbv.de/CodeSystem/KBV_CS_ERP_Medication_Category",
                  "code": "00"
                }
              },
              {
                "url": "https://fhir.kbv.de/StructureDefinition/KBV_EX_ERP_Medication_Vaccine",
                "valueBoolean": false
              },
              {
                "url": "http://fhir.de/StructureDefinition/normgroesse",
                "valueCode": "NB"
              }
            ],
            "code": {
              "coding": [
                {
                  "system": "http://fhir.de/CodeSystem/ifa/pzn",
                  "code": "12345678"
                }
              ],
              "text": "Schmerzmittel"
            },
            "form": {
              "coding": [
                {
                  "system": "https://fhir.kbv.de/CodeSystem/KBV_CS_SFHIR_KBV_DARREICHUNGSFORM",
                  "code": "TAB"
                }
              ]
            },
            "amount": {
              "numerator": {
                "value": 1,
                "unit": "Stk"
              },
              "denominator": {
                "value": 1
              }
            }
          }
        ],
        "basedOn": [
          {
            "reference": "Task/160.000.006.300.754.88"
          }
        ],
        "status": "unknown",
        "about": [
          {
            "reference": "#c072ee5d-6b1c-4e68-b2b4-c10b2aad1359"
          }
        ],
        "sent": "2023-03-16T11:30:14.926+00:00",
        "received": "2023-03-16T11:30:15.000+00:00",
        "recipient": [
          {
            "identifier": {
              "system": "https://gematik.de/fhir/NamingSystem/TelematikID",
              "value": "3-SMC-B-Testkarte-883110000116873"
            }
          }
        ],
        "sender": {
          "identifier": {
            "system": "http://fhir.de/NamingSystem/gkv/kvid-10",
            "value": "X110498565"
          }
        },
        "payload": [
          {
            "extension": [
              {
                "url": "https://gematik.de/fhir/StructureDefinition/InsuranceProvider",
                "valueIdentifier": {
                  "system": "http://fhir.de/NamingSystem/arge-ik/iknr",
                  "value": "607141138"
                }
              },
              {
                "url": "https://gematik.de/fhir/StructureDefinition/SubstitutionAllowedType",
                "valueBoolean": true
              },
              {
                "url": "https://gematik.de/fhir/StructureDefinition/PrescriptionType",
                "valueCoding": {
                  "system": "https://gematik.de/fhir/CodeSystem/Flowtype",
                  "code": "160",
                  "display": "Muster 16 (Apothekenpflichtige Arzneimittel)"
                }
              }
            ],
            "contentString": "And then of course I've got this terrible pain in all the diodes down my left side."
          }
        ]
      },
      "search": {
        "mode": "match"
      }
    },
    {
      "fullUrl": "https://erp-test.zentral.erp.splitdns.ti-dienste.de/Communication/01eba0e0-a1aa-92a8-e106-b7a96dff7f98",
      "resource": {
        "resourceType": "Communication",
        "id": "01eba0e0-a1aa-92a8-e106-b7a96dff7f98",
        "meta": {
          "profile": [
            "https://gematik.de/fhir/StructureDefinition/ErxCommunicationReply"
          ]
        },
        "basedOn": [
          {
            "reference": "Task/160.000.006.300.753.91"
          }
        ],
        "status": "unknown",
        "sent": "2023-03-16T11:30:10.361+00:00",
        "received": "2023-03-16T11:48:24.000+00:00",
        "recipient": [
          {
            "identifier": {
              "system": "http://fhir.de/NamingSystem/gkv/kvid-10",
              "value": "X110498565"
            }
          }
        ],
        "sender": {
          "identifier": {
            "system": "https://gematik.de/fhir/NamingSystem/TelematikID",
            "value": "3-SMC-B-Testkarte-883110000116873"
          }
        },
        "payload": [
          {
            "extension": [
              {
                "url": "https://gematik.de/fhir/StructureDefinition/AvailabilityStateExtension",
                "valueCoding": {
                  "system": "https://gematik.de/fhir/CodeSystem/AvailabilityStatus",
                  "code": "30"
                }
              },
              {
                "url": "https://gematik.de/fhir/StructureDefinition/SupplyOptionsType",
                "extension": [
                  {
                    "url": "onPremise",
                    "valueBoolean": true
                  },
                  {
                    "url": "delivery",
                    "valueBoolean": false
                  },
                  {
                    "url": "shipment",
                    "valueBoolean": false
                  }
                ]
              }
            ],
            "contentString": "When you play a game of thrones you win or you die."
          }
        ]
      },
      "search": {
        "mode": "match"
      }
    },
    {
      "fullUrl": "https://erp-test.zentral.erp.splitdns.ti-dienste.de/Communication/01eba0e0-a028-57a8-510f-03bc987667e6",
      "resource": {
        "resourceType": "Communication",
        "id": "01eba0e0-a028-57a8-510f-03bc987667e6",
        "meta": {
          "profile": [
            "https://gematik.de/fhir/StructureDefinition/ErxCommunicationReply"
          ]
        },
        "basedOn": [
          {
            "reference": "Task/160.000.006.300.748.09"
          }
        ],
        "status": "unknown",
        "sent": "2023-03-16T11:29:45.049+00:00",
        "received": "2023-03-16T11:29:45.000+00:00",
        "recipient": [
          {
            "identifier": {
              "system": "http://fhir.de/NamingSystem/gkv/kvid-10",
              "value": "X110498565"
            }
          }
        ],
        "sender": {
          "identifier": {
            "system": "https://gematik.de/fhir/NamingSystem/TelematikID",
            "value": "3-SMC-B-Testkarte-883110000116873"
          }
        },
        "payload": [
          {
            "extension": [
              {
                "url": "https://gematik.de/fhir/StructureDefinition/AvailabilityStateExtension",
                "valueCoding": {
                  "system": "https://gematik.de/fhir/CodeSystem/AvailabilityStatus",
                  "code": "30"
                }
              },
              {
                "url": "https://gematik.de/fhir/StructureDefinition/SupplyOptionsType",
                "extension": [
                  {
                    "url": "onPremise",
                    "valueBoolean": true
                  },
                  {
                    "url": "delivery",
                    "valueBoolean": false
                  },
                  {
                    "url": "shipment",
                    "valueBoolean": false
                  }
                ]
              }
            ],
            "contentString": "Things are not always as they seemed, much that may seem evil can be good."
          }
        ]
      },
      "search": {
        "mode": "match"
      }
    },
    {
      "fullUrl": "https://erp-test.zentral.erp.splitdns.ti-dienste.de/Communication/01eba0e0-a01d-c4a0-5b87-318b69ef88c5",
      "resource": {
        "resourceType": "Communication",
        "id": "01eba0e0-a01d-c4a0-5b87-318b69ef88c5",
        "meta": {
          "profile": [
            "https://gematik.de/fhir/StructureDefinition/ErxCommunicationInfoReq"
          ]
        },
        "contained": [
          {
            "resourceType": "Medication",
            "id": "4751b1ce-4eeb-4b10-8492-1c9868b46271",
            "meta": {
              "profile": [
                "https://fhir.kbv.de/StructureDefinition/KBV_PR_ERP_Medication_PZN|1.0.2"
              ]
            },
            "extension": [
              {
                "url": "https://fhir.kbv.de/StructureDefinition/KBV_EX_ERP_Medication_Category",
                "valueCoding": {
                  "system": "https://fhir.kbv.de/CodeSystem/KBV_CS_ERP_Medication_Category",
                  "code": "00"
                }
              },
              {
                "url": "https://fhir.kbv.de/StructureDefinition/KBV_EX_ERP_Medication_Vaccine",
                "valueBoolean": false
              },
              {
                "url": "http://fhir.de/StructureDefinition/normgroesse",
                "valueCode": "NB"
              }
            ],
            "code": {
              "coding": [
                {
                  "system": "http://fhir.de/CodeSystem/ifa/pzn",
                  "code": "12345678"
                }
              ],
              "text": "Schmerzmittel"
            },
            "form": {
              "coding": [
                {
                  "system": "https://fhir.kbv.de/CodeSystem/KBV_CS_SFHIR_KBV_DARREICHUNGSFORM",
                  "code": "TAB"
                }
              ]
            },
            "amount": {
              "numerator": {
                "value": 1,
                "unit": "Stk"
              },
              "denominator": {
                "value": 1
              }
            }
          }
        ],
        "basedOn": [
          {
            "reference": "Task/160.000.006.300.748.09"
          }
        ],
        "status": "unknown",
        "about": [
          {
            "reference": "#4751b1ce-4eeb-4b10-8492-1c9868b46271"
          }
        ],
        "sent": "2023-03-16T11:29:44.356+00:00",
        "received": "2023-03-16T11:29:44.000+00:00",
        "recipient": [
          {
            "identifier": {
              "system": "https://gematik.de/fhir/NamingSystem/TelematikID",
              "value": "3-SMC-B-Testkarte-883110000116873"
            }
          }
        ],
        "sender": {
          "identifier": {
            "system": "http://fhir.de/NamingSystem/gkv/kvid-10",
            "value": "X110498565"
          }
        },
        "payload": [
          {
            "extension": [
              {
                "url": "https://gematik.de/fhir/StructureDefinition/InsuranceProvider",
                "valueIdentifier": {
                  "system": "http://fhir.de/NamingSystem/arge-ik/iknr",
                  "value": "953392622"
                }
              },
              {
                "url": "https://gematik.de/fhir/StructureDefinition/SubstitutionAllowedType",
                "valueBoolean": true
              },
              {
                "url": "https://gematik.de/fhir/StructureDefinition/PrescriptionType",
                "valueCoding": {
                  "system": "https://gematik.de/fhir/CodeSystem/Flowtype",
                  "code": "160",
                  "display": "Muster 16 (Apothekenpflichtige Arzneimittel)"
                }
              }
            ],
            "contentString": "And then of course I've got this terrible pain in all the diodes down my left side."
          }
        ]
      },
      "search": {
        "mode": "match"
      }
    },
    {
      "fullUrl": "https://erp-test.zentral.erp.splitdns.ti-dienste.de/Communication/01eba0e0-9fc0-2bb0-7c6a-45de44f88015",
      "resource": {
        "resourceType": "Communication",
        "id": "01eba0e0-9fc0-2bb0-7c6a-45de44f88015",
        "meta": {
          "profile": [
            "https://gematik.de/fhir/StructureDefinition/ErxCommunicationDispReq"
          ]
        },
        "basedOn": [
          {
            "reference": "160.000.006.300.747.12/$accept?ac=c1aa11762d47880d73d8288af889caca54d86bcf48d4801da8bcb1cbd30211dc"
          }
        ],
        "status": "unknown",
        "sent": "2023-03-16T11:29:38.222+00:00",
        "received": "2023-03-16T11:29:38.000+00:00",
        "recipient": [
          {
            "identifier": {
              "system": "https://gematik.de/fhir/NamingSystem/TelematikID",
              "value": "3-SMC-B-Testkarte-883110000116873"
            }
          }
        ],
        "sender": {
          "identifier": {
            "system": "http://fhir.de/NamingSystem/gkv/kvid-10",
            "value": "X110498565"
          }
        },
        "payload": [
          {
            "contentString": "Now, remember. According to my theory, you interfered with your parents' first meeting. If they don't meet, they won't fall in love, they won't get married and they won't have kids. That's why your older brother's disappearing from that photograph. Your sister will follow, and unless you repair the damage, you'll be next."
          }
        ]
      },
      "search": {
        "mode": "match"
      }
    },
    {
      "fullUrl": "https://erp-test.zentral.erp.splitdns.ti-dienste.de/Communication/01eba0e0-6fc9-0e90-ab3e-04e6033f4f2c",
      "resource": {
        "resourceType": "Communication",
        "id": "01eba0e0-6fc9-0e90-ab3e-04e6033f4f2c",
        "meta": {
          "profile": [
            "https://gematik.de/fhir/StructureDefinition/ErxCommunicationInfoReq"
          ]
        },
        "contained": [
          {
            "resourceType": "Medication",
            "id": "9990949d-d64b-4e34-8dd3-7b16e71000dd",
            "meta": {
              "profile": [
                "https://fhir.kbv.de/StructureDefinition/KBV_PR_ERP_Medication_PZN|1.0.2"
              ]
            },
            "extension": [
              {
                "url": "https://fhir.kbv.de/StructureDefinition/KBV_EX_ERP_Medication_Category",
                "valueCoding": {
                  "system": "https://fhir.kbv.de/CodeSystem/KBV_CS_ERP_Medication_Category",
                  "code": "00"
                }
              },
              {
                "url": "https://fhir.kbv.de/StructureDefinition/KBV_EX_ERP_Medication_Vaccine",
                "valueBoolean": false
              },
              {
                "url": "http://fhir.de/StructureDefinition/normgroesse",
                "valueCode": "N1"
              }
            ],
            "code": {
              "coding": [
                {
                  "system": "http://fhir.de/CodeSystem/ifa/pzn",
                  "code": "12345678"
                }
              ],
              "text": "Schmerzmittel"
            },
            "form": {
              "coding": [
                {
                  "system": "https://fhir.kbv.de/CodeSystem/KBV_CS_SFHIR_KBV_DARREICHUNGSFORM",
                  "code": "TAB"
                }
              ]
            },
            "amount": {
              "numerator": {
                "value": 1,
                "unit": "Stk"
              },
              "denominator": {
                "value": 1
              }
            }
          }
        ],
        "basedOn": [
          {
            "reference": "Task/160.000.006.300.746.15"
          }
        ],
        "status": "unknown",
        "about": [
          {
            "reference": "#9990949d-d64b-4e34-8dd3-7b16e71000dd"
          }
        ],
        "sent": "2023-03-16T11:16:13.498+00:00",
        "received": "2023-03-16T11:29:38.000+00:00",
        "recipient": [
          {
            "identifier": {
              "system": "https://gematik.de/fhir/NamingSystem/TelematikID",
              "value": "3-SMC-B-Testkarte-883110000116873"
            }
          }
        ],
        "sender": {
          "identifier": {
            "system": "http://fhir.de/NamingSystem/gkv/kvid-10",
            "value": "X110498565"
          }
        },
        "payload": [
          {
            "extension": [
              {
                "url": "https://gematik.de/fhir/StructureDefinition/InsuranceProvider",
                "valueIdentifier": {
                  "system": "http://fhir.de/NamingSystem/arge-ik/iknr",
                  "value": "859864761"
                }
              },
              {
                "url": "https://gematik.de/fhir/StructureDefinition/SubstitutionAllowedType",
                "valueBoolean": true
              },
              {
                "url": "https://gematik.de/fhir/StructureDefinition/PrescriptionType",
                "valueCoding": {
                  "system": "https://gematik.de/fhir/CodeSystem/Flowtype",
                  "code": "160",
                  "display": "Muster 16 (Apothekenpflichtige Arzneimittel)"
                }
              }
            ],
            "contentString": "There's only one life-form as intelligent as me within thirty parsecs of here and that's me."
          }
        ]
      },
      "search": {
        "mode": "match"
      }
    },
    {
      "fullUrl": "https://erp-test.zentral.erp.splitdns.ti-dienste.de/Communication/01eba0e0-63f4-08e0-3160-832c6b282e7b",
      "resource": {
        "resourceType": "Communication",
        "id": "01eba0e0-63f4-08e0-3160-832c6b282e7b",
        "meta": {
          "profile": [
            "https://gematik.de/fhir/StructureDefinition/ErxCommunicationRepresentative"
          ]
        },
        "basedOn": [
          {
            "reference": "160.000.006.300.722.87/$accept?ac=10d3556247d5279388a45d3f103b001520fab3d91b4664a3654deb122e4ca15e"
          }
        ],
        "status": "unknown",
        "sent": "2023-03-16T11:12:54.988+00:00",
        "received": "2023-03-16T11:12:55.000+00:00",
        "recipient": [
          {
            "identifier": {
              "system": "http://fhir.de/NamingSystem/gkv/kvid-10",
              "value": "X110465770"
            }
          }
        ],
        "sender": {
          "identifier": {
            "system": "http://fhir.de/NamingSystem/gkv/kvid-10",
            "value": "X110498565"
          }
        },
        "payload": [
          {
            "extension": [
              {
                "url": "https://gematik.de/fhir/StructureDefinition/SubstitutionAllowedType",
                "valueBoolean": true
              },
              {
                "url": "https://gematik.de/fhir/StructureDefinition/PrescriptionType",
                "valueCoding": {
                  "system": "https://gematik.de/fhir/CodeSystem/Flowtype",
                  "code": "160",
                  "display": "Muster 16 (Apothekenpflichtige Arzneimittel)"
                }
              }
            ],
            "contentString": "Wenn Chuck Norris beim Russisch Roulette verliert, will er eine Revanche."
          }
        ]
      },
      "search": {
        "mode": "match"
      }
    },
    {
      "fullUrl": "https://erp-test.zentral.erp.splitdns.ti-dienste.de/Communication/01eba0e0-5aba-6aa8-42ad-a24d95fc35c3",
      "resource": {
        "resourceType": "Communication",
        "id": "01eba0e0-5aba-6aa8-42ad-a24d95fc35c3",
        "meta": {
          "profile": [
            "https://gematik.de/fhir/StructureDefinition/ErxCommunicationInfoReq"
          ]
        },
        "contained": [
          {
            "resourceType": "Medication",
            "id": "0707b73f-a5e3-44ba-a449-b05b04fa74dc",
            "meta": {
              "profile": [
                "https://fhir.kbv.de/StructureDefinition/KBV_PR_ERP_Medication_PZN|1.0.2"
              ]
            },
            "extension": [
              {
                "url": "https://fhir.kbv.de/StructureDefinition/KBV_EX_ERP_Medication_Category",
                "valueCoding": {
                  "system": "https://fhir.kbv.de/CodeSystem/KBV_CS_ERP_Medication_Category",
                  "code": "00"
                }
              },
              {
                "url": "https://fhir.kbv.de/StructureDefinition/KBV_EX_ERP_Medication_Vaccine",
                "valueBoolean": false
              },
              {
                "url": "http://fhir.de/StructureDefinition/normgroesse",
                "valueCode": "NB"
              }
            ],
            "code": {
              "coding": [
                {
                  "system": "http://fhir.de/CodeSystem/ifa/pzn",
                  "code": "12345678"
                }
              ],
              "text": "Schmerzmittel"
            },
            "form": {
              "coding": [
                {
                  "system": "https://fhir.kbv.de/CodeSystem/KBV_CS_SFHIR_KBV_DARREICHUNGSFORM",
                  "code": "TAB"
                }
              ]
            },
            "amount": {
              "numerator": {
                "value": 1,
                "unit": "Stk"
              },
              "denominator": {
                "value": 1
              }
            }
          }
        ],
        "basedOn": [
          {
            "reference": "Task/160.000.006.300.699.59"
          }
        ],
        "status": "unknown",
        "about": [
          {
            "reference": "#0707b73f-a5e3-44ba-a449-b05b04fa74dc"
          }
        ],
        "sent": "2023-03-16T11:10:20.217+00:00",
        "recipient": [
          {
            "identifier": {
              "system": "https://gematik.de/fhir/NamingSystem/TelematikID",
              "value": "1-2-ARZT-BerndClaudius01"
            }
          }
        ],
        "sender": {
          "identifier": {
            "system": "http://fhir.de/NamingSystem/gkv/kvid-10",
            "value": "X110498565"
          }
        },
        "payload": [
          {
            "extension": [
              {
                "url": "https://gematik.de/fhir/StructureDefinition/InsuranceProvider",
                "valueIdentifier": {
                  "system": "http://fhir.de/NamingSystem/arge-ik/iknr",
                  "value": "922922941"
                }
              },
              {
                "url": "https://gematik.de/fhir/StructureDefinition/SubstitutionAllowedType",
                "valueBoolean": true
              },
              {
                "url": "https://gematik.de/fhir/StructureDefinition/PrescriptionType",
                "valueCoding": {
                  "system": "https://gematik.de/fhir/CodeSystem/Flowtype",
                  "code": "160",
                  "display": "Muster 16 (Apothekenpflichtige Arzneimittel)"
                }
              }
            ],
            "contentString": "You think you've got problems? What are you supposed to do if you are a manically depressed robot? No, don't try to answer that. I'm fifty thousand times more intelligent than you and even I don't know the answer. It gives me a headache just trying to think down to your level."
          }
        ]
      },
      "search": {
        "mode": "match"
      }
    },
    {
      "fullUrl": "https://erp-test.zentral.erp.splitdns.ti-dienste.de/Communication/01eba0e0-5a25-6a20-e0ff-128e3301bb27",
      "resource": {
        "resourceType": "Communication",
        "id": "01eba0e0-5a25-6a20-e0ff-128e3301bb27",
        "meta": {
          "profile": [
            "https://gematik.de/fhir/StructureDefinition/ErxCommunicationInfoReq"
          ]
        },
        "contained": [
          {
            "resourceType": "Medication",
            "id": "c067fdbe-7f7e-453b-a115-03101e778373",
            "meta": {
              "profile": [
                "https://fhir.kbv.de/StructureDefinition/KBV_PR_ERP_Medication_PZN|1.0.2"
              ]
            },
            "extension": [
              {
                "url": "https://fhir.kbv.de/StructureDefinition/KBV_EX_ERP_Medication_Category",
                "valueCoding": {
                  "system": "https://fhir.kbv.de/CodeSystem/KBV_CS_ERP_Medication_Category",
                  "code": "00"
                }
              },
              {
                "url": "https://fhir.kbv.de/StructureDefinition/KBV_EX_ERP_Medication_Vaccine",
                "valueBoolean": false
              },
              {
                "url": "http://fhir.de/StructureDefinition/normgroesse",
                "valueCode": "NB"
              }
            ],
            "code": {
              "coding": [
                {
                  "system": "http://fhir.de/CodeSystem/ifa/pzn",
                  "code": "12345678"
                }
              ],
              "text": "Schmerzmittel"
            },
            "form": {
              "coding": [
                {
                  "system": "https://fhir.kbv.de/CodeSystem/KBV_CS_SFHIR_KBV_DARREICHUNGSFORM",
                  "code": "TAB"
                }
              ]
            },
            "amount": {
              "numerator": {
                "value": 1,
                "unit": "Stk"
              },
              "denominator": {
                "value": 1
              }
            }
          }
        ],
        "basedOn": [
          {
            "reference": "Task/160.000.006.300.698.62"
          }
        ],
        "status": "unknown",
        "about": [
          {
            "reference": "#c067fdbe-7f7e-453b-a115-03101e778373"
          }
        ],
        "sent": "2023-03-16T11:10:10.452+00:00",
        "received": "2023-03-16T11:10:11.000+00:00",
        "recipient": [
          {
            "identifier": {
              "system": "https://gematik.de/fhir/NamingSystem/TelematikID",
              "value": "3-SMC-B-Testkarte-883110000116873"
            }
          }
        ],
        "sender": {
          "identifier": {
            "system": "http://fhir.de/NamingSystem/gkv/kvid-10",
            "value": "X110498565"
          }
        },
        "payload": [
          {
            "extension": [
              {
                "url": "https://gematik.de/fhir/StructureDefinition/InsuranceProvider",
                "valueIdentifier": {
                  "system": "http://fhir.de/NamingSystem/arge-ik/iknr",
                  "value": "899451564"
                }
              },
              {
                "url": "https://gematik.de/fhir/StructureDefinition/SubstitutionAllowedType",
                "valueBoolean": true
              },
              {
                "url": "https://gematik.de/fhir/StructureDefinition/PrescriptionType",
                "valueCoding": {
                  "system": "https://gematik.de/fhir/CodeSystem/Flowtype",
                  "code": "160",
                  "display": "Muster 16 (Apothekenpflichtige Arzneimittel)"
                }
              }
            ],
            "contentString": "You think you've got problems? What are you supposed to do if you are a manically depressed robot? No, don't try to answer that. I'm fifty thousand times more intelligent than you and even I don't know the answer. It gives me a headache just trying to think down to your level."
          }
        ]
      },
      "search": {
        "mode": "match"
      }
    },
    {
      "fullUrl": "https://erp-test.zentral.erp.splitdns.ti-dienste.de/Communication/01eba0e0-59ce-4d58-4526-12ab9aec3ec4",
      "resource": {
        "resourceType": "Communication",
        "id": "01eba0e0-59ce-4d58-4526-12ab9aec3ec4",
        "meta": {
          "profile": [
            "https://gematik.de/fhir/StructureDefinition/ErxCommunicationReply"
          ]
        },
        "basedOn": [
          {
            "reference": "Task/160.000.006.300.697.65"
          }
        ],
        "status": "unknown",
        "sent": "2023-03-16T11:10:04.743+00:00",
        "received": "2023-03-16T11:29:45.000+00:00",
        "recipient": [
          {
            "identifier": {
              "system": "http://fhir.de/NamingSystem/gkv/kvid-10",
              "value": "X110498565"
            }
          }
        ],
        "sender": {
          "identifier": {
            "system": "https://gematik.de/fhir/NamingSystem/TelematikID",
            "value": "3-SMC-B-Testkarte-883110000116873"
          }
        },
        "payload": [
          {
            "extension": [
              {
                "url": "https://gematik.de/fhir/StructureDefinition/AvailabilityStateExtension",
                "valueCoding": {
                  "system": "https://gematik.de/fhir/CodeSystem/AvailabilityStatus",
                  "code": "30"
                }
              },
              {
                "url": "https://gematik.de/fhir/StructureDefinition/SupplyOptionsType",
                "extension": [
                  {
                    "url": "onPremise",
                    "valueBoolean": true
                  },
                  {
                    "url": "delivery",
                    "valueBoolean": false
                  },
                  {
                    "url": "shipment",
                    "valueBoolean": false
                  }
                ]
              }
            ],
            "contentString": "Give me honorable enemies rather than ambitious ones, and I'll sleep more easily by night."
          }
        ]
      },
      "search": {
        "mode": "match"
      }
    },
    {
      "fullUrl": "https://erp-test.zentral.erp.splitdns.ti-dienste.de/Communication/01eba0e0-575d-d610-a81c-d6071f2c8d7c",
      "resource": {
        "resourceType": "Communication",
        "id": "01eba0e0-575d-d610-a81c-d6071f2c8d7c",
        "meta": {
          "profile": [
            "https://gematik.de/fhir/StructureDefinition/ErxCommunicationReply"
          ]
        },
        "basedOn": [
          {
            "reference": "Task/160.000.006.300.692.80"
          }
        ],
        "status": "unknown",
        "sent": "2023-03-16T11:09:23.818+00:00",
        "received": "2023-03-16T11:09:24.000+00:00",
        "recipient": [
          {
            "identifier": {
              "system": "http://fhir.de/NamingSystem/gkv/kvid-10",
              "value": "X110498565"
            }
          }
        ],
        "sender": {
          "identifier": {
            "system": "https://gematik.de/fhir/NamingSystem/TelematikID",
            "value": "3-SMC-B-Testkarte-883110000116873"
          }
        },
        "payload": [
          {
            "extension": [
              {
                "url": "https://gematik.de/fhir/StructureDefinition/AvailabilityStateExtension",
                "valueCoding": {
                  "system": "https://gematik.de/fhir/CodeSystem/AvailabilityStatus",
                  "code": "30"
                }
              },
              {
                "url": "https://gematik.de/fhir/StructureDefinition/SupplyOptionsType",
                "extension": [
                  {
                    "url": "onPremise",
                    "valueBoolean": true
                  },
                  {
                    "url": "delivery",
                    "valueBoolean": false
                  },
                  {
                    "url": "shipment",
                    "valueBoolean": false
                  }
                ]
              }
            ],
            "contentString": "Fear cuts deeper than swords."
          }
        ]
      },
      "search": {
        "mode": "match"
      }
    },
    {
      "fullUrl": "https://erp-test.zentral.erp.splitdns.ti-dienste.de/Communication/01eba0e0-574d-b528-2868-ba0811a231c9",
      "resource": {
        "resourceType": "Communication",
        "id": "01eba0e0-574d-b528-2868-ba0811a231c9",
        "meta": {
          "profile": [
            "https://gematik.de/fhir/StructureDefinition/ErxCommunicationInfoReq"
          ]
        },
        "contained": [
          {
            "resourceType": "Medication",
            "id": "c457d9e5-52a6-4288-b14e-c75dd3d26119",
            "meta": {
              "profile": [
                "https://fhir.kbv.de/StructureDefinition/KBV_PR_ERP_Medication_PZN|1.0.2"
              ]
            },
            "extension": [
              {
                "url": "https://fhir.kbv.de/StructureDefinition/KBV_EX_ERP_Medication_Category",
                "valueCoding": {
                  "system": "https://fhir.kbv.de/CodeSystem/KBV_CS_ERP_Medication_Category",
                  "code": "00"
                }
              },
              {
                "url": "https://fhir.kbv.de/StructureDefinition/KBV_EX_ERP_Medication_Vaccine",
                "valueBoolean": false
              },
              {
                "url": "http://fhir.de/StructureDefinition/normgroesse",
                "valueCode": "NB"
              }
            ],
            "code": {
              "coding": [
                {
                  "system": "http://fhir.de/CodeSystem/ifa/pzn",
                  "code": "12345678"
                }
              ],
              "text": "Schmerzmittel"
            },
            "form": {
              "coding": [
                {
                  "system": "https://fhir.kbv.de/CodeSystem/KBV_CS_SFHIR_KBV_DARREICHUNGSFORM",
                  "code": "TAB"
                }
              ]
            },
            "amount": {
              "numerator": {
                "value": 1,
                "unit": "Stk"
              },
              "denominator": {
                "value": 1
              }
            }
          }
        ],
        "basedOn": [
          {
            "reference": "Task/160.000.006.300.692.80"
          }
        ],
        "status": "unknown",
        "about": [
          {
            "reference": "#c457d9e5-52a6-4288-b14e-c75dd3d26119"
          }
        ],
        "sent": "2023-03-16T11:09:22.761+00:00",
        "received": "2023-03-16T11:09:23.000+00:00",
        "recipient": [
          {
            "identifier": {
              "system": "https://gematik.de/fhir/NamingSystem/TelematikID",
              "value": "3-SMC-B-Testkarte-883110000116873"
            }
          }
        ],
        "sender": {
          "identifier": {
            "system": "http://fhir.de/NamingSystem/gkv/kvid-10",
            "value": "X110498565"
          }
        },
        "payload": [
          {
            "extension": [
              {
                "url": "https://gematik.de/fhir/StructureDefinition/InsuranceProvider",
                "valueIdentifier": {
                  "system": "http://fhir.de/NamingSystem/arge-ik/iknr",
                  "value": "092754807"
                }
              },
              {
                "url": "https://gematik.de/fhir/StructureDefinition/SubstitutionAllowedType",
                "valueBoolean": true
              },
              {
                "url": "https://gematik.de/fhir/StructureDefinition/PrescriptionType",
                "valueCoding": {
                  "system": "https://gematik.de/fhir/CodeSystem/Flowtype",
                  "code": "160",
                  "display": "Muster 16 (Apothekenpflichtige Arzneimittel)"
                }
              }
            ],
            "contentString": "I wish you'd just tell me rather trying to engage my enthusiasm, because I haven't got one."
          }
        ]
      },
      "search": {
        "mode": "match"
      }
    },
    {
      "fullUrl": "https://erp-test.zentral.erp.splitdns.ti-dienste.de/Communication/01eba0e0-56a3-1578-e348-3a3eaccf15e3",
      "resource": {
        "resourceType": "Communication",
        "id": "01eba0e0-56a3-1578-e348-3a3eaccf15e3",
        "meta": {
          "profile": [
            "https://gematik.de/fhir/StructureDefinition/ErxCommunicationDispReq"
          ]
        },
        "basedOn": [
          {
            "reference": "160.000.006.300.691.83/$accept?ac=bb5d0128b9c9a4e95f69783105c56a769ac08fab98be2fe28136011dfe855b15"
          }
        ],
        "status": "unknown",
        "sent": "2023-03-16T11:09:11.579+00:00",
        "received": "2023-03-16T11:09:12.000+00:00",
        "recipient": [
          {
            "identifier": {
              "system": "https://gematik.de/fhir/NamingSystem/TelematikID",
              "value": "3-SMC-B-Testkarte-883110000116873"
            }
          }
        ],
        "sender": {
          "identifier": {
            "system": "http://fhir.de/NamingSystem/gkv/kvid-10",
            "value": "X110498565"
          }
        },
        "payload": [
          {
            "contentString": "Anyway, your Grandpa hit him with the car and brought him into the house. He seemed so helpless, like a little lost puppy, and my heart just went out to him."
          }
        ]
      },
      "search": {
        "mode": "match"
      }
    },
    {
      "fullUrl": "https://erp-test.zentral.erp.splitdns.ti-dienste.de/Communication/01eba0d6-c0aa-8be0-98a3-0b88613d7357",
      "resource": {
        "resourceType": "Communication",
        "id": "01eba0d6-c0aa-8be0-98a3-0b88613d7357",
        "meta": {
          "profile": [
            "https://gematik.de/fhir/StructureDefinition/ErxCommunicationInfoReq"
          ]
        },
        "contained": [
          {
            "resourceType": "Medication",
            "id": "33df0bb1-d408-40c6-a4e9-0a82c148e7d7",
            "meta": {
              "profile": [
                "https://fhir.kbv.de/StructureDefinition/KBV_PR_ERP_Medication_PZN|1.0.2"
              ]
            },
            "extension": [
              {
                "url": "https://fhir.kbv.de/StructureDefinition/KBV_EX_ERP_Medication_Category",
                "valueCoding": {
                  "system": "https://fhir.kbv.de/CodeSystem/KBV_CS_ERP_Medication_Category",
                  "code": "00"
                }
              },
              {
                "url": "https://fhir.kbv.de/StructureDefinition/KBV_EX_ERP_Medication_Vaccine",
                "valueBoolean": false
              },
              {
                "url": "http://fhir.de/StructureDefinition/normgroesse",
                "valueCode": "N1"
              }
            ],
            "code": {
              "coding": [
                {
                  "system": "http://fhir.de/CodeSystem/ifa/pzn",
                  "code": "12345678"
                }
              ],
              "text": "Schmerzmittel"
            },
            "form": {
              "coding": [
                {
                  "system": "https://fhir.kbv.de/CodeSystem/KBV_CS_SFHIR_KBV_DARREICHUNGSFORM",
                  "code": "TAB"
                }
              ]
            },
            "amount": {
              "numerator": {
                "value": 1,
                "unit": "Stk"
              },
              "denominator": {
                "value": 1
              }
            }
          }
        ],
        "basedOn": [
          {
            "reference": "Task/160.000.006.300.466.79"
          }
        ],
        "status": "unknown",
        "about": [
          {
            "reference": "#33df0bb1-d408-40c6-a4e9-0a82c148e7d7"
          }
        ],
        "sent": "2023-03-15T23:43:00.780+00:00",
        "received": "2023-03-16T11:09:12.000+00:00",
        "recipient": [
          {
            "identifier": {
              "system": "https://gematik.de/fhir/NamingSystem/TelematikID",
              "value": "3-SMC-B-Testkarte-883110000116873"
            }
          }
        ],
        "sender": {
          "identifier": {
            "system": "http://fhir.de/NamingSystem/gkv/kvid-10",
            "value": "X110498565"
          }
        },
        "payload": [
          {
            "extension": [
              {
                "url": "https://gematik.de/fhir/StructureDefinition/InsuranceProvider",
                "valueIdentifier": {
                  "system": "http://fhir.de/NamingSystem/arge-ik/iknr",
                  "value": "065742496"
                }
              },
              {
                "url": "https://gematik.de/fhir/StructureDefinition/SubstitutionAllowedType",
                "valueBoolean": true
              },
              {
                "url": "https://gematik.de/fhir/StructureDefinition/PrescriptionType",
                "valueCoding": {
                  "system": "https://gematik.de/fhir/CodeSystem/Flowtype",
                  "code": "160",
                  "display": "Muster 16 (Apothekenpflichtige Arzneimittel)"
                }
              }
            ],
            "contentString": "And then of course I've got this terrible pain in all the diodes down my left side."
          }
        ]
      },
      "search": {
        "mode": "match"
      }
    },
    {
      "fullUrl": "https://erp-test.zentral.erp.splitdns.ti-dienste.de/Communication/01eba0d6-b4e8-3758-056b-15e802ff5a94",
      "resource": {
        "resourceType": "Communication",
        "id": "01eba0d6-b4e8-3758-056b-15e802ff5a94",
        "meta": {
          "profile": [
            "https://gematik.de/fhir/StructureDefinition/ErxCommunicationRepresentative"
          ]
        },
        "basedOn": [
          {
            "reference": "160.000.006.300.433.81/$accept?ac=34faf7a8de4c1fca02eb216f167f1fa26c85117d016c133597f860fb46d23184"
          }
        ],
        "status": "unknown",
        "sent": "2023-03-15T23:39:43.495+00:00",
        "received": "2023-03-15T23:39:44.000+00:00",
        "recipient": [
          {
            "identifier": {
              "system": "http://fhir.de/NamingSystem/gkv/kvid-10",
              "value": "X110465770"
            }
          }
        ],
        "sender": {
          "identifier": {
            "system": "http://fhir.de/NamingSystem/gkv/kvid-10",
            "value": "X110498565"
          }
        },
        "payload": [
          {
            "extension": [
              {
                "url": "https://gematik.de/fhir/StructureDefinition/SubstitutionAllowedType",
                "valueBoolean": true
              },
              {
                "url": "https://gematik.de/fhir/StructureDefinition/PrescriptionType",
                "valueCoding": {
                  "system": "https://gematik.de/fhir/CodeSystem/Flowtype",
                  "code": "160",
                  "display": "Muster 16 (Apothekenpflichtige Arzneimittel)"
                }
              }
            ],
            "contentString": "Am Anfang war das Nichts. Dann roundhousekickte Chuck Norris dieses Nichts und sagte: \"Such‘ Dir einen Job!\" Das ist die Geschichte der Entstehung des Universums."
          }
        ]
      },
      "search": {
        "mode": "match"
      }
    },
    {
      "fullUrl": "https://erp-test.zentral.erp.splitdns.ti-dienste.de/Communication/01eba0d6-ac79-e030-3e18-63c07ee72d44",
      "resource": {
        "resourceType": "Communication",
        "id": "01eba0d6-ac79-e030-3e18-63c07ee72d44",
        "meta": {
          "profile": [
            "https://gematik.de/fhir/StructureDefinition/ErxCommunicationInfoReq"
          ]
        },
        "contained": [
          {
            "resourceType": "Medication",
            "id": "cbcfafc3-684d-4bb3-bea8-1e129f57a66e",
            "meta": {
              "profile": [
                "https://fhir.kbv.de/StructureDefinition/KBV_PR_ERP_Medication_PZN|1.0.2"
              ]
            },
            "extension": [
              {
                "url": "https://fhir.kbv.de/StructureDefinition/KBV_EX_ERP_Medication_Category",
                "valueCoding": {
                  "system": "https://fhir.kbv.de/CodeSystem/KBV_CS_ERP_Medication_Category",
                  "code": "00"
                }
              },
              {
                "url": "https://fhir.kbv.de/StructureDefinition/KBV_EX_ERP_Medication_Vaccine",
                "valueBoolean": false
              },
              {
                "url": "http://fhir.de/StructureDefinition/normgroesse",
                "valueCode": "NB"
              }
            ],
            "code": {
              "coding": [
                {
                  "system": "http://fhir.de/CodeSystem/ifa/pzn",
                  "code": "12345678"
                }
              ],
              "text": "Schmerzmittel"
            },
            "form": {
              "coding": [
                {
                  "system": "https://fhir.kbv.de/CodeSystem/KBV_CS_SFHIR_KBV_DARREICHUNGSFORM",
                  "code": "TAB"
                }
              ]
            },
            "amount": {
              "numerator": {
                "value": 1,
                "unit": "Stk"
              },
              "denominator": {
                "value": 1
              }
            }
          }
        ],
        "basedOn": [
          {
            "reference": "Task/160.000.006.300.410.53"
          }
        ],
        "status": "unknown",
        "about": [
          {
            "reference": "#cbcfafc3-684d-4bb3-bea8-1e129f57a66e"
          }
        ],
        "sent": "2023-03-15T23:37:22.046+00:00",
        "recipient": [
          {
            "identifier": {
              "system": "https://gematik.de/fhir/NamingSystem/TelematikID",
              "value": "1-2-ARZT-BerndClaudius01"
            }
          }
        ],
        "sender": {
          "identifier": {
            "system": "http://fhir.de/NamingSystem/gkv/kvid-10",
            "value": "X110498565"
          }
        },
        "payload": [
          {
            "extension": [
              {
                "url": "https://gematik.de/fhir/StructureDefinition/InsuranceProvider",
                "valueIdentifier": {
                  "system": "http://fhir.de/NamingSystem/arge-ik/iknr",
                  "value": "746751226"
                }
              },
              {
                "url": "https://gematik.de/fhir/StructureDefinition/SubstitutionAllowedType",
                "valueBoolean": true
              },
              {
                "url": "https://gematik.de/fhir/StructureDefinition/PrescriptionType",
                "valueCoding": {
                  "system": "https://gematik.de/fhir/CodeSystem/Flowtype",
                  "code": "160",
                  "display": "Muster 16 (Apothekenpflichtige Arzneimittel)"
                }
              }
            ],
            "contentString": "Pardon me for breathing, which I never do anyway so I don't know why I bother to say it, Oh God, I'm so depressed."
          }
        ]
      },
      "search": {
        "mode": "match"
      }
    },
    {
      "fullUrl": "https://erp-test.zentral.erp.splitdns.ti-dienste.de/Communication/01eba0d6-ac03-8b38-1b06-7b4b296ae709",
      "resource": {
        "resourceType": "Communication",
        "id": "01eba0d6-ac03-8b38-1b06-7b4b296ae709",
        "meta": {
          "profile": [
            "https://gematik.de/fhir/StructureDefinition/ErxCommunicationInfoReq"
          ]
        },
        "contained": [
          {
            "resourceType": "Medication",
            "id": "5a1cc898-1b13-4927-9c5c-956b4102741a",
            "meta": {
              "profile": [
                "https://fhir.kbv.de/StructureDefinition/KBV_PR_ERP_Medication_PZN|1.0.2"
              ]
            },
            "extension": [
              {
                "url": "https://fhir.kbv.de/StructureDefinition/KBV_EX_ERP_Medication_Category",
                "valueCoding": {
                  "system": "https://fhir.kbv.de/CodeSystem/KBV_CS_ERP_Medication_Category",
                  "code": "00"
                }
              },
              {
                "url": "https://fhir.kbv.de/StructureDefinition/KBV_EX_ERP_Medication_Vaccine",
                "valueBoolean": false
              },
              {
                "url": "http://fhir.de/StructureDefinition/normgroesse",
                "valueCode": "NB"
              }
            ],
            "code": {
              "coding": [
                {
                  "system": "http://fhir.de/CodeSystem/ifa/pzn",
                  "code": "12345678"
                }
              ],
              "text": "Schmerzmittel"
            },
            "form": {
              "coding": [
                {
                  "system": "https://fhir.kbv.de/CodeSystem/KBV_CS_SFHIR_KBV_DARREICHUNGSFORM",
                  "code": "TAB"
                }
              ]
            },
            "amount": {
              "numerator": {
                "value": 1,
                "unit": "Stk"
              },
              "denominator": {
                "value": 1
              }
            }
          }
        ],
        "basedOn": [
          {
            "reference": "Task/160.000.006.300.409.56"
          }
        ],
        "status": "unknown",
        "about": [
          {
            "reference": "#5a1cc898-1b13-4927-9c5c-956b4102741a"
          }
        ],
        "sent": "2023-03-15T23:37:14.291+00:00",
        "received": "2023-03-15T23:37:14.000+00:00",
        "recipient": [
          {
            "identifier": {
              "system": "https://gematik.de/fhir/NamingSystem/TelematikID",
              "value": "3-SMC-B-Testkarte-883110000116873"
            }
          }
        ],
        "sender": {
          "identifier": {
            "system": "http://fhir.de/NamingSystem/gkv/kvid-10",
            "value": "X110498565"
          }
        },
        "payload": [
          {
            "extension": [
              {
                "url": "https://gematik.de/fhir/StructureDefinition/InsuranceProvider",
                "valueIdentifier": {
                  "system": "http://fhir.de/NamingSystem/arge-ik/iknr",
                  "value": "289887866"
                }
              },
              {
                "url": "https://gematik.de/fhir/StructureDefinition/SubstitutionAllowedType",
                "valueBoolean": true
              },
              {
                "url": "https://gematik.de/fhir/StructureDefinition/PrescriptionType",
                "valueCoding": {
                  "system": "https://gematik.de/fhir/CodeSystem/Flowtype",
                  "code": "160",
                  "display": "Muster 16 (Apothekenpflichtige Arzneimittel)"
                }
              }
            ],
            "contentString": "And then of course I've got this terrible pain in all the diodes down my left side."
          }
        ]
      },
      "search": {
        "mode": "match"
      }
    },
    {
      "fullUrl": "https://erp-test.zentral.erp.splitdns.ti-dienste.de/Communication/01eba0d6-abbe-f4a0-aac9-4b8198d04861",
      "resource": {
        "resourceType": "Communication",
        "id": "01eba0d6-abbe-f4a0-aac9-4b8198d04861",
        "meta": {
          "profile": [
            "https://gematik.de/fhir/StructureDefinition/ErxCommunicationReply"
          ]
        },
        "basedOn": [
          {
            "reference": "Task/160.000.006.300.408.59"
          }
        ],
        "status": "unknown",
        "sent": "2023-03-15T23:37:09.796+00:00",
        "received": "2023-03-16T11:09:24.000+00:00",
        "recipient": [
          {
            "identifier": {
              "system": "http://fhir.de/NamingSystem/gkv/kvid-10",
              "value": "X110498565"
            }
          }
        ],
        "sender": {
          "identifier": {
            "system": "https://gematik.de/fhir/NamingSystem/TelematikID",
            "value": "3-SMC-B-Testkarte-883110000116873"
          }
        },
        "payload": [
          {
            "extension": [
              {
                "url": "https://gematik.de/fhir/StructureDefinition/AvailabilityStateExtension",
                "valueCoding": {
                  "system": "https://gematik.de/fhir/CodeSystem/AvailabilityStatus",
                  "code": "30"
                }
              },
              {
                "url": "https://gematik.de/fhir/StructureDefinition/SupplyOptionsType",
                "extension": [
                  {
                    "url": "onPremise",
                    "valueBoolean": true
                  },
                  {
                    "url": "delivery",
                    "valueBoolean": false
                  },
                  {
                    "url": "shipment",
                    "valueBoolean": false
                  }
                ]
              }
            ],
            "contentString": "The North remembers."
          }
        ]
      },
      "search": {
        "mode": "match"
      }
    },
    {
      "fullUrl": "https://erp-test.zentral.erp.splitdns.ti-dienste.de/Communication/01eba0d6-aa32-5578-b705-ee93b07d1bdf",
      "resource": {
        "resourceType": "Communication",
        "id": "01eba0d6-aa32-5578-b705-ee93b07d1bdf",
        "meta": {
          "profile": [
            "https://gematik.de/fhir/StructureDefinition/ErxCommunicationReply"
          ]
        },
        "basedOn": [
          {
            "reference": "Task/160.000.006.300.403.74"
          }
        ],
        "status": "unknown",
        "sent": "2023-03-15T23:36:43.803+00:00",
        "received": "2023-03-15T23:36:44.000+00:00",
        "recipient": [
          {
            "identifier": {
              "system": "http://fhir.de/NamingSystem/gkv/kvid-10",
              "value": "X110498565"
            }
          }
        ],
        "sender": {
          "identifier": {
            "system": "https://gematik.de/fhir/NamingSystem/TelematikID",
            "value": "3-SMC-B-Testkarte-883110000116873"
          }
        },
        "payload": [
          {
            "extension": [
              {
                "url": "https://gematik.de/fhir/StructureDefinition/AvailabilityStateExtension",
                "valueCoding": {
                  "system": "https://gematik.de/fhir/CodeSystem/AvailabilityStatus",
                  "code": "30"
                }
              },
              {
                "url": "https://gematik.de/fhir/StructureDefinition/SupplyOptionsType",
                "extension": [
                  {
                    "url": "onPremise",
                    "valueBoolean": true
                  },
                  {
                    "url": "delivery",
                    "valueBoolean": false
                  },
                  {
                    "url": "shipment",
                    "valueBoolean": false
                  }
                ]
              }
            ],
            "contentString": "Hodor? Hodor."
          }
        ]
      },
      "search": {
        "mode": "match"
      }
    },
    {
      "fullUrl": "https://erp-test.zentral.erp.splitdns.ti-dienste.de/Communication/01eba0d6-aa26-ff20-733b-0bf4b14948d8",
      "resource": {
        "resourceType": "Communication",
        "id": "01eba0d6-aa26-ff20-733b-0bf4b14948d8",
        "meta": {
          "profile": [
            "https://gematik.de/fhir/StructureDefinition/ErxCommunicationInfoReq"
          ]
        },
        "contained": [
          {
            "resourceType": "Medication",
            "id": "073e8332-214a-4b2b-9a4f-c9996a38f035",
            "meta": {
              "profile": [
                "https://fhir.kbv.de/StructureDefinition/KBV_PR_ERP_Medication_PZN|1.0.2"
              ]
            },
            "extension": [
              {
                "url": "https://fhir.kbv.de/StructureDefinition/KBV_EX_ERP_Medication_Category",
                "valueCoding": {
                  "system": "https://fhir.kbv.de/CodeSystem/KBV_CS_ERP_Medication_Category",
                  "code": "00"
                }
              },
              {
                "url": "https://fhir.kbv.de/StructureDefinition/KBV_EX_ERP_Medication_Vaccine",
                "valueBoolean": false
              },
              {
                "url": "http://fhir.de/StructureDefinition/normgroesse",
                "valueCode": "NB"
              }
            ],
            "code": {
              "coding": [
                {
                  "system": "http://fhir.de/CodeSystem/ifa/pzn",
                  "code": "12345678"
                }
              ],
              "text": "Schmerzmittel"
            },
            "form": {
              "coding": [
                {
                  "system": "https://fhir.kbv.de/CodeSystem/KBV_CS_SFHIR_KBV_DARREICHUNGSFORM",
                  "code": "TAB"
                }
              ]
            },
            "amount": {
              "numerator": {
                "value": 1,
                "unit": "Stk"
              },
              "denominator": {
                "value": 1
              }
            }
          }
        ],
        "basedOn": [
          {
            "reference": "Task/160.000.006.300.403.74"
          }
        ],
        "status": "unknown",
        "about": [
          {
            "reference": "#073e8332-214a-4b2b-9a4f-c9996a38f035"
          }
        ],
        "sent": "2023-03-15T23:36:43.060+00:00",
        "received": "2023-03-15T23:36:43.000+00:00",
        "recipient": [
          {
            "identifier": {
              "system": "https://gematik.de/fhir/NamingSystem/TelematikID",
              "value": "3-SMC-B-Testkarte-883110000116873"
            }
          }
        ],
        "sender": {
          "identifier": {
            "system": "http://fhir.de/NamingSystem/gkv/kvid-10",
            "value": "X110498565"
          }
        },
        "payload": [
          {
            "extension": [
              {
                "url": "https://gematik.de/fhir/StructureDefinition/InsuranceProvider",
                "valueIdentifier": {
                  "system": "http://fhir.de/NamingSystem/arge-ik/iknr",
                  "value": "333896680"
                }
              },
              {
                "url": "https://gematik.de/fhir/StructureDefinition/SubstitutionAllowedType",
                "valueBoolean": true
              },
              {
                "url": "https://gematik.de/fhir/StructureDefinition/PrescriptionType",
                "valueCoding": {
                  "system": "https://gematik.de/fhir/CodeSystem/Flowtype",
                  "code": "160",
                  "display": "Muster 16 (Apothekenpflichtige Arzneimittel)"
                }
              }
            ],
            "contentString": "Life? Don't talk to me about life."
          }
        ]
      },
      "search": {
        "mode": "match"
      }
    },
    {
      "fullUrl": "https://erp-test.zentral.erp.splitdns.ti-dienste.de/Communication/01eba0d6-a9ca-c5c0-5812-87e08630b205",
      "resource": {
        "resourceType": "Communication",
        "id": "01eba0d6-a9ca-c5c0-5812-87e08630b205",
        "meta": {
          "profile": [
            "https://gematik.de/fhir/StructureDefinition/ErxCommunicationDispReq"
          ]
        },
        "basedOn": [
          {
            "reference": "160.000.006.300.402.77/$accept?ac=55531acc85803c860c92e03751ce7481aa1781d401fa236c189b7195f3b1b495"
          }
        ],
        "status": "unknown",
        "sent": "2023-03-15T23:36:37.016+00:00",
        "received": "2023-03-15T23:36:37.000+00:00",
        "recipient": [
          {
            "identifier": {
              "system": "https://gematik.de/fhir/NamingSystem/TelematikID",
              "value": "3-SMC-B-Testkarte-883110000116873"
            }
          }
        ],
        "sender": {
          "identifier": {
            "system": "http://fhir.de/NamingSystem/gkv/kvid-10",
            "value": "X110498565"
          }
        },
        "payload": [
          {
            "contentString": "Roads? Where we're going, we don't need roads."
          }
        ]
      },
      "search": {
        "mode": "match"
      }
    },
    {
      "fullUrl": "https://erp-test.zentral.erp.splitdns.ti-dienste.de/Communication/01eba0ce-e223-2000-7ea5-9e3adb924a12",
      "resource": {
        "resourceType": "Communication",
        "id": "01eba0ce-e223-2000-7ea5-9e3adb924a12",
        "meta": {
          "profile": [
            "https://gematik.de/fhir/StructureDefinition/ErxCommunicationInfoReq"
          ]
        },
        "contained": [
          {
            "resourceType": "Medication",
            "id": "3f605615-b08e-4b86-a21e-5c5671d60297",
            "meta": {
              "profile": [
                "https://fhir.kbv.de/StructureDefinition/KBV_PR_ERP_Medication_PZN|1.0.2"
              ]
            },
            "extension": [
              {
                "url": "https://fhir.kbv.de/StructureDefinition/KBV_EX_ERP_Medication_Category",
                "valueCoding": {
                  "system": "https://fhir.kbv.de/CodeSystem/KBV_CS_ERP_Medication_Category",
                  "code": "00"
                }
              },
              {
                "url": "https://fhir.kbv.de/StructureDefinition/KBV_EX_ERP_Medication_Vaccine",
                "valueBoolean": false
              },
              {
                "url": "http://fhir.de/StructureDefinition/normgroesse",
                "valueCode": "N1"
              }
            ],
            "code": {
              "coding": [
                {
                  "system": "http://fhir.de/CodeSystem/ifa/pzn",
                  "code": "12345678"
                }
              ],
              "text": "Schmerzmittel"
            },
            "form": {
              "coding": [
                {
                  "system": "https://fhir.kbv.de/CodeSystem/KBV_CS_SFHIR_KBV_DARREICHUNGSFORM",
                  "code": "TAB"
                }
              ]
            },
            "amount": {
              "numerator": {
                "value": 1,
                "unit": "Stk"
              },
              "denominator": {
                "value": 1
              }
            }
          }
        ],
        "basedOn": [
          {
            "reference": "Task/160.000.006.300.401.80"
          }
        ],
        "status": "unknown",
        "about": [
          {
            "reference": "#3f605615-b08e-4b86-a21e-5c5671d60297"
          }
        ],
        "sent": "2023-03-15T14:19:42.592+00:00",
        "received": "2023-03-15T23:36:37.000+00:00",
        "recipient": [
          {
            "identifier": {
              "system": "https://gematik.de/fhir/NamingSystem/TelematikID",
              "value": "3-SMC-B-Testkarte-883110000116873"
            }
          }
        ],
        "sender": {
          "identifier": {
            "system": "http://fhir.de/NamingSystem/gkv/kvid-10",
            "value": "X110498565"
          }
        },
        "payload": [
          {
            "extension": [
              {
                "url": "https://gematik.de/fhir/StructureDefinition/InsuranceProvider",
                "valueIdentifier": {
                  "system": "http://fhir.de/NamingSystem/arge-ik/iknr",
                  "value": "730106220"
                }
              },
              {
                "url": "https://gematik.de/fhir/StructureDefinition/SubstitutionAllowedType",
                "valueBoolean": true
              },
              {
                "url": "https://gematik.de/fhir/StructureDefinition/PrescriptionType",
                "valueCoding": {
                  "system": "https://gematik.de/fhir/CodeSystem/Flowtype",
                  "code": "160",
                  "display": "Muster 16 (Apothekenpflichtige Arzneimittel)"
                }
              }
            ],
            "contentString": "And then of course I've got this terrible pain in all the diodes down my left side."
          }
        ]
      },
      "search": {
        "mode": "match"
      }
    },
    {
      "fullUrl": "https://erp-test.zentral.erp.splitdns.ti-dienste.de/Communication/01eba0ce-d559-4a70-d455-130937063fb7",
      "resource": {
        "resourceType": "Communication",
        "id": "01eba0ce-d559-4a70-d455-130937063fb7",
        "meta": {
          "profile": [
            "https://gematik.de/fhir/StructureDefinition/ErxCommunicationRepresentative"
          ]
        },
        "basedOn": [
          {
            "reference": "160.000.006.300.368.82/$accept?ac=db4a2fdde259353079b6f688676360a7cfd20b435cc0c2cadece8c4bcabf7398"
          }
        ],
        "status": "unknown",
        "sent": "2023-03-15T14:16:08.038+00:00",
        "received": "2023-03-15T14:16:08.000+00:00",
        "recipient": [
          {
            "identifier": {
              "system": "http://fhir.de/NamingSystem/gkv/kvid-10",
              "value": "X110465770"
            }
          }
        ],
        "sender": {
          "identifier": {
            "system": "http://fhir.de/NamingSystem/gkv/kvid-10",
            "value": "X110498565"
          }
        },
        "payload": [
          {
            "extension": [
              {
                "url": "https://gematik.de/fhir/StructureDefinition/SubstitutionAllowedType",
                "valueBoolean": true
              },
              {
                "url": "https://gematik.de/fhir/StructureDefinition/PrescriptionType",
                "valueCoding": {
                  "system": "https://gematik.de/fhir/CodeSystem/Flowtype",
                  "code": "160",
                  "display": "Muster 16 (Apothekenpflichtige Arzneimittel)"
                }
              }
            ],
            "contentString": "Chuck Norris zündet ein Feuer an, indem er zwei Eiswürfel aneinander reibt."
          }
        ]
      },
      "search": {
        "mode": "match"
      }
    },
    {
      "fullUrl": "https://erp-test.zentral.erp.splitdns.ti-dienste.de/Communication/01eba0ce-cc19-2458-8f5c-f68ca19963ab",
      "resource": {
        "resourceType": "Communication",
        "id": "01eba0ce-cc19-2458-8f5c-f68ca19963ab",
        "meta": {
          "profile": [
            "https://gematik.de/fhir/StructureDefinition/ErxCommunicationInfoReq"
          ]
        },
        "contained": [
          {
            "resourceType": "Medication",
            "id": "a559d450-9929-436b-a60f-a8ad41185080",
            "meta": {
              "profile": [
                "https://fhir.kbv.de/StructureDefinition/KBV_PR_ERP_Medication_PZN|1.0.2"
              ]
            },
            "extension": [
              {
                "url": "https://fhir.kbv.de/StructureDefinition/KBV_EX_ERP_Medication_Category",
                "valueCoding": {
                  "system": "https://fhir.kbv.de/CodeSystem/KBV_CS_ERP_Medication_Category",
                  "code": "00"
                }
              },
              {
                "url": "https://fhir.kbv.de/StructureDefinition/KBV_EX_ERP_Medication_Vaccine",
                "valueBoolean": false
              },
              {
                "url": "http://fhir.de/StructureDefinition/normgroesse",
                "valueCode": "NB"
              }
            ],
            "code": {
              "coding": [
                {
                  "system": "http://fhir.de/CodeSystem/ifa/pzn",
                  "code": "12345678"
                }
              ],
              "text": "Schmerzmittel"
            },
            "form": {
              "coding": [
                {
                  "system": "https://fhir.kbv.de/CodeSystem/KBV_CS_SFHIR_KBV_DARREICHUNGSFORM",
                  "code": "TAB"
                }
              ]
            },
            "amount": {
              "numerator": {
                "value": 1,
                "unit": "Stk"
              },
              "denominator": {
                "value": 1
              }
            }
          }
        ],
        "basedOn": [
          {
            "reference": "Task/160.000.006.300.345.54"
          }
        ],
        "status": "unknown",
        "about": [
          {
            "reference": "#a559d450-9929-436b-a60f-a8ad41185080"
          }
        ],
        "sent": "2023-03-15T14:13:32.839+00:00",
        "recipient": [
          {
            "identifier": {
              "system": "https://gematik.de/fhir/NamingSystem/TelematikID",
              "value": "1-2-ARZT-BerndClaudius01"
            }
          }
        ],
        "sender": {
          "identifier": {
            "system": "http://fhir.de/NamingSystem/gkv/kvid-10",
            "value": "X110498565"
          }
        },
        "payload": [
          {
            "extension": [
              {
                "url": "https://gematik.de/fhir/StructureDefinition/InsuranceProvider",
                "valueIdentifier": {
                  "system": "http://fhir.de/NamingSystem/arge-ik/iknr",
                  "value": "356461246"
                }
              },
              {
                "url": "https://gematik.de/fhir/StructureDefinition/SubstitutionAllowedType",
                "valueBoolean": true
              },
              {
                "url": "https://gematik.de/fhir/StructureDefinition/PrescriptionType",
                "valueCoding": {
                  "system": "https://gematik.de/fhir/CodeSystem/Flowtype",
                  "code": "160",
                  "display": "Muster 16 (Apothekenpflichtige Arzneimittel)"
                }
              }
            ],
            "contentString": "You think you've got problems? What are you supposed to do if you are a manically depressed robot? No, don't try to answer that. I'm fifty thousand times more intelligent than you and even I don't know the answer. It gives me a headache just trying to think down to your level."
          }
        ]
      },
      "search": {
        "mode": "match"
      }
    },
    {
      "fullUrl": "https://erp-test.zentral.erp.splitdns.ti-dienste.de/Communication/01eba0ce-cb8c-d278-af66-4a2b89bf7496",
      "resource": {
        "resourceType": "Communication",
        "id": "01eba0ce-cb8c-d278-af66-4a2b89bf7496",
        "meta": {
          "profile": [
            "https://gematik.de/fhir/StructureDefinition/ErxCommunicationInfoReq"
          ]
        },
        "contained": [
          {
            "resourceType": "Medication",
            "id": "ac55e25b-4d53-40df-86b0-b230b83660a8",
            "meta": {
              "profile": [
                "https://fhir.kbv.de/StructureDefinition/KBV_PR_ERP_Medication_PZN|1.0.2"
              ]
            },
            "extension": [
              {
                "url": "https://fhir.kbv.de/StructureDefinition/KBV_EX_ERP_Medication_Category",
                "valueCoding": {
                  "system": "https://fhir.kbv.de/CodeSystem/KBV_CS_ERP_Medication_Category",
                  "code": "00"
                }
              },
              {
                "url": "https://fhir.kbv.de/StructureDefinition/KBV_EX_ERP_Medication_Vaccine",
                "valueBoolean": false
              },
              {
                "url": "http://fhir.de/StructureDefinition/normgroesse",
                "valueCode": "NB"
              }
            ],
            "code": {
              "coding": [
                {
                  "system": "http://fhir.de/CodeSystem/ifa/pzn",
                  "code": "12345678"
                }
              ],
              "text": "Schmerzmittel"
            },
            "form": {
              "coding": [
                {
                  "system": "https://fhir.kbv.de/CodeSystem/KBV_CS_SFHIR_KBV_DARREICHUNGSFORM",
                  "code": "TAB"
                }
              ]
            },
            "amount": {
              "numerator": {
                "value": 1,
                "unit": "Stk"
              },
              "denominator": {
                "value": 1
              }
            }
          }
        ],
        "basedOn": [
          {
            "reference": "Task/160.000.006.300.344.57"
          }
        ],
        "status": "unknown",
        "about": [
          {
            "reference": "#ac55e25b-4d53-40df-86b0-b230b83660a8"
          }
        ],
        "sent": "2023-03-15T14:13:23.643+00:00",
        "received": "2023-03-15T14:13:24.000+00:00",
        "recipient": [
          {
            "identifier": {
              "system": "https://gematik.de/fhir/NamingSystem/TelematikID",
              "value": "3-SMC-B-Testkarte-883110000116873"
            }
          }
        ],
        "sender": {
          "identifier": {
            "system": "http://fhir.de/NamingSystem/gkv/kvid-10",
            "value": "X110498565"
          }
        },
        "payload": [
          {
            "extension": [
              {
                "url": "https://gematik.de/fhir/StructureDefinition/InsuranceProvider",
                "valueIdentifier": {
                  "system": "http://fhir.de/NamingSystem/arge-ik/iknr",
                  "value": "498525300"
                }
              },
              {
                "url": "https://gematik.de/fhir/StructureDefinition/SubstitutionAllowedType",
                "valueBoolean": true
              },
              {
                "url": "https://gematik.de/fhir/StructureDefinition/PrescriptionType",
                "valueCoding": {
                  "system": "https://gematik.de/fhir/CodeSystem/Flowtype",
                  "code": "160",
                  "display": "Muster 16 (Apothekenpflichtige Arzneimittel)"
                }
              }
            ],
            "contentString": "There's only one life-form as intelligent as me within thirty parsecs of here and that's me."
          }
        ]
      },
      "search": {
        "mode": "match"
      }
    },
    {
      "fullUrl": "https://erp-test.zentral.erp.splitdns.ti-dienste.de/Communication/01eba0ce-cb33-fc48-1ca4-e9d2e95ea0ad",
      "resource": {
        "resourceType": "Communication",
        "id": "01eba0ce-cb33-fc48-1ca4-e9d2e95ea0ad",
        "meta": {
          "profile": [
            "https://gematik.de/fhir/StructureDefinition/ErxCommunicationReply"
          ]
        },
        "basedOn": [
          {
            "reference": "Task/160.000.006.300.343.60"
          }
        ],
        "status": "unknown",
        "sent": "2023-03-15T14:13:17.821+00:00",
        "received": "2023-03-15T23:36:44.000+00:00",
        "recipient": [
          {
            "identifier": {
              "system": "http://fhir.de/NamingSystem/gkv/kvid-10",
              "value": "X110498565"
            }
          }
        ],
        "sender": {
          "identifier": {
            "system": "https://gematik.de/fhir/NamingSystem/TelematikID",
            "value": "3-SMC-B-Testkarte-883110000116873"
          }
        },
        "payload": [
          {
            "extension": [
              {
                "url": "https://gematik.de/fhir/StructureDefinition/AvailabilityStateExtension",
                "valueCoding": {
                  "system": "https://gematik.de/fhir/CodeSystem/AvailabilityStatus",
                  "code": "30"
                }
              },
              {
                "url": "https://gematik.de/fhir/StructureDefinition/SupplyOptionsType",
                "extension": [
                  {
                    "url": "onPremise",
                    "valueBoolean": true
                  },
                  {
                    "url": "delivery",
                    "valueBoolean": false
                  },
                  {
                    "url": "shipment",
                    "valueBoolean": false
                  }
                ]
              }
            ],
            "contentString": "Some old wounds never truly heal, and bleed again at the slightest word."
          }
        ]
      },
      "search": {
        "mode": "match"
      }
    },
    {
      "fullUrl": "https://erp-test.zentral.erp.splitdns.ti-dienste.de/Communication/01eba0ce-c90a-7cf8-ffce-bb283c400240",
      "resource": {
        "resourceType": "Communication",
        "id": "01eba0ce-c90a-7cf8-ffce-bb283c400240",
        "meta": {
          "profile": [
            "https://gematik.de/fhir/StructureDefinition/ErxCommunicationReply"
          ]
        },
        "basedOn": [
          {
            "reference": "Task/160.000.006.300.338.75"
          }
        ],
        "status": "unknown",
        "sent": "2023-03-15T14:12:41.547+00:00",
        "received": "2023-03-15T14:12:42.000+00:00",
        "recipient": [
          {
            "identifier": {
              "system": "http://fhir.de/NamingSystem/gkv/kvid-10",
              "value": "X110498565"
            }
          }
        ],
        "sender": {
          "identifier": {
            "system": "https://gematik.de/fhir/NamingSystem/TelematikID",
            "value": "3-SMC-B-Testkarte-883110000116873"
          }
        },
        "payload": [
          {
            "extension": [
              {
                "url": "https://gematik.de/fhir/StructureDefinition/AvailabilityStateExtension",
                "valueCoding": {
                  "system": "https://gematik.de/fhir/CodeSystem/AvailabilityStatus",
                  "code": "30"
                }
              },
              {
                "url": "https://gematik.de/fhir/StructureDefinition/SupplyOptionsType",
                "extension": [
                  {
                    "url": "onPremise",
                    "valueBoolean": true
                  },
                  {
                    "url": "delivery",
                    "valueBoolean": false
                  },
                  {
                    "url": "shipment",
                    "valueBoolean": false
                  }
                ]
              }
            ],
            "contentString": "Every flight begins with a fall."
          }
        ]
      },
      "search": {
        "mode": "match"
      }
    },
    {
      "fullUrl": "https://erp-test.zentral.erp.splitdns.ti-dienste.de/Communication/01eba0ce-c8f9-eac8-0835-5b3ad4a0cbb4",
      "resource": {
        "resourceType": "Communication",
        "id": "01eba0ce-c8f9-eac8-0835-5b3ad4a0cbb4",
        "meta": {
          "profile": [
            "https://gematik.de/fhir/StructureDefinition/ErxCommunicationInfoReq"
          ]
        },
        "contained": [
          {
            "resourceType": "Medication",
            "id": "cb224de2-ec6a-4c9c-9eac-e6ba4d75eb73",
            "meta": {
              "profile": [
                "https://fhir.kbv.de/StructureDefinition/KBV_PR_ERP_Medication_PZN|1.0.2"
              ]
            },
            "extension": [
              {
                "url": "https://fhir.kbv.de/StructureDefinition/KBV_EX_ERP_Medication_Category",
                "valueCoding": {
                  "system": "https://fhir.kbv.de/CodeSystem/KBV_CS_ERP_Medication_Category",
                  "code": "00"
                }
              },
              {
                "url": "https://fhir.kbv.de/StructureDefinition/KBV_EX_ERP_Medication_Vaccine",
                "valueBoolean": false
              },
              {
                "url": "http://fhir.de/StructureDefinition/normgroesse",
                "valueCode": "NB"
              }
            ],
            "code": {
              "coding": [
                {
                  "system": "http://fhir.de/CodeSystem/ifa/pzn",
                  "code": "12345678"
                }
              ],
              "text": "Schmerzmittel"
            },
            "form": {
              "coding": [
                {
                  "system": "https://fhir.kbv.de/CodeSystem/KBV_CS_SFHIR_KBV_DARREICHUNGSFORM",
                  "code": "TAB"
                }
              ]
            },
            "amount": {
              "numerator": {
                "value": 1,
                "unit": "Stk"
              },
              "denominator": {
                "value": 1
              }
            }
          }
        ],
        "basedOn": [
          {
            "reference": "Task/160.000.006.300.338.75"
          }
        ],
        "status": "unknown",
        "about": [
          {
            "reference": "#cb224de2-ec6a-4c9c-9eac-e6ba4d75eb73"
          }
        ],
        "sent": "2023-03-15T14:12:40.461+00:00",
        "received": "2023-03-15T14:12:41.000+00:00",
        "recipient": [
          {
            "identifier": {
              "system": "https://gematik.de/fhir/NamingSystem/TelematikID",
              "value": "3-SMC-B-Testkarte-883110000116873"
            }
          }
        ],
        "sender": {
          "identifier": {
            "system": "http://fhir.de/NamingSystem/gkv/kvid-10",
            "value": "X110498565"
          }
        },
        "payload": [
          {
            "extension": [
              {
                "url": "https://gematik.de/fhir/StructureDefinition/InsuranceProvider",
                "valueIdentifier": {
                  "system": "http://fhir.de/NamingSystem/arge-ik/iknr",
                  "value": "712764747"
                }
              },
              {
                "url": "https://gematik.de/fhir/StructureDefinition/SubstitutionAllowedType",
                "valueBoolean": true
              },
              {
                "url": "https://gematik.de/fhir/StructureDefinition/PrescriptionType",
                "valueCoding": {
                  "system": "https://gematik.de/fhir/CodeSystem/Flowtype",
                  "code": "160",
                  "display": "Muster 16 (Apothekenpflichtige Arzneimittel)"
                }
              }
            ],
            "contentString": "And then of course I've got this terrible pain in all the diodes down my left side."
          }
        ]
      },
      "search": {
        "mode": "match"
      }
    },
    {
      "fullUrl": "https://erp-test.zentral.erp.splitdns.ti-dienste.de/Communication/01eba0ce-c858-9600-a67a-f7c0ed62e811",
      "resource": {
        "resourceType": "Communication",
        "id": "01eba0ce-c858-9600-a67a-f7c0ed62e811",
        "meta": {
          "profile": [
            "https://gematik.de/fhir/StructureDefinition/ErxCommunicationDispReq"
          ]
        },
        "basedOn": [
          {
            "reference": "160.000.006.300.337.78/$accept?ac=69304ea540c010720ae5d728cb7689b08f9ace51423c6e0d7d7d30afaafe90ad"
          }
        ],
        "status": "unknown",
        "sent": "2023-03-15T14:12:29.888+00:00",
        "received": "2023-03-15T14:12:30.000+00:00",
        "recipient": [
          {
            "identifier": {
              "system": "https://gematik.de/fhir/NamingSystem/TelematikID",
              "value": "3-SMC-B-Testkarte-883110000116873"
            }
          }
        ],
        "sender": {
          "identifier": {
            "system": "http://fhir.de/NamingSystem/gkv/kvid-10",
            "value": "X110498565"
          }
        },
        "payload": [
          {
            "contentString": "You got a real attitude problem, McFly; you're a slacker. You remind me of your father when he went here; he was a slacker, too."
          }
        ]
      },
      "search": {
        "mode": "match"
      }
    },
    {
      "fullUrl": "https://erp-test.zentral.erp.splitdns.ti-dienste.de/Communication/01eba0ce-0695-1200-bec3-fc546db7992d",
      "resource": {
        "resourceType": "Communication",
        "id": "01eba0ce-0695-1200-bec3-fc546db7992d",
        "meta": {
          "profile": [
            "https://gematik.de/fhir/StructureDefinition/ErxCommunicationInfoReq"
          ]
        },
        "contained": [
          {
            "resourceType": "Medication",
            "id": "61a4b6bc-176b-4020-b479-f4bcfd146aee",
            "meta": {
              "profile": [
                "https://fhir.kbv.de/StructureDefinition/KBV_PR_ERP_Medication_PZN|1.0.2"
              ]
            },
            "extension": [
              {
                "url": "https://fhir.kbv.de/StructureDefinition/KBV_EX_ERP_Medication_Category",
                "valueCoding": {
                  "system": "https://fhir.kbv.de/CodeSystem/KBV_CS_ERP_Medication_Category",
                  "code": "00"
                }
              },
              {
                "url": "https://fhir.kbv.de/StructureDefinition/KBV_EX_ERP_Medication_Vaccine",
                "valueBoolean": false
              },
              {
                "url": "http://fhir.de/StructureDefinition/normgroesse",
                "valueCode": "N1"
              }
            ],
            "code": {
              "coding": [
                {
                  "system": "http://fhir.de/CodeSystem/ifa/pzn",
                  "code": "12345678"
                }
              ],
              "text": "Schmerzmittel"
            },
            "form": {
              "coding": [
                {
                  "system": "https://fhir.kbv.de/CodeSystem/KBV_CS_SFHIR_KBV_DARREICHUNGSFORM",
                  "code": "TAB"
                }
              ]
            },
            "amount": {
              "numerator": {
                "value": 1,
                "unit": "Stk"
              },
              "denominator": {
                "value": 1
              }
            }
          }
        ],
        "basedOn": [
          {
            "reference": "Task/160.000.006.300.333.90"
          }
        ],
        "status": "unknown",
        "about": [
          {
            "reference": "#61a4b6bc-176b-4020-b479-f4bcfd146aee"
          }
        ],
        "sent": "2023-03-15T13:18:19.072+00:00",
        "received": "2023-03-15T14:12:30.000+00:00",
        "recipient": [
          {
            "identifier": {
              "system": "https://gematik.de/fhir/NamingSystem/TelematikID",
              "value": "3-SMC-B-Testkarte-883110000116873"
            }
          }
        ],
        "sender": {
          "identifier": {
            "system": "http://fhir.de/NamingSystem/gkv/kvid-10",
            "value": "X110498565"
          }
        },
        "payload": [
          {
            "extension": [
              {
                "url": "https://gematik.de/fhir/StructureDefinition/InsuranceProvider",
                "valueIdentifier": {
                  "system": "http://fhir.de/NamingSystem/arge-ik/iknr",
                  "value": "139357021"
                }
              },
              {
                "url": "https://gematik.de/fhir/StructureDefinition/SubstitutionAllowedType",
                "valueBoolean": true
              },
              {
                "url": "https://gematik.de/fhir/StructureDefinition/PrescriptionType",
                "valueCoding": {
                  "system": "https://gematik.de/fhir/CodeSystem/Flowtype",
                  "code": "160",
                  "display": "Muster 16 (Apothekenpflichtige Arzneimittel)"
                }
              }
            ],
            "contentString": "There's only one life-form as intelligent as me within thirty parsecs of here and that's me."
          }
        ]
      },
      "search": {
        "mode": "match"
      }
    },
    {
      "fullUrl": "https://erp-test.zentral.erp.splitdns.ti-dienste.de/Communication/01eba0cd-f9bf-a798-f49a-cc3132291736",
      "resource": {
        "resourceType": "Communication",
        "id": "01eba0cd-f9bf-a798-f49a-cc3132291736",
        "meta": {
          "profile": [
            "https://gematik.de/fhir/StructureDefinition/ErxCommunicationRepresentative"
          ]
        },
        "basedOn": [
          {
            "reference": "160.000.006.300.300.92/$accept?ac=2b6d5ab61d1bc149306bcaf9b3d81fd72990e4efa035e8afdf2e166473704f87"
          }
        ],
        "status": "unknown",
        "sent": "2023-03-15T13:14:43.759+00:00",
        "received": "2023-03-15T13:14:44.000+00:00",
        "recipient": [
          {
            "identifier": {
              "system": "http://fhir.de/NamingSystem/gkv/kvid-10",
              "value": "X110465770"
            }
          }
        ],
        "sender": {
          "identifier": {
            "system": "http://fhir.de/NamingSystem/gkv/kvid-10",
            "value": "X110498565"
          }
        },
        "payload": [
          {
            "extension": [
              {
                "url": "https://gematik.de/fhir/StructureDefinition/SubstitutionAllowedType",
                "valueBoolean": true
              },
              {
                "url": "https://gematik.de/fhir/StructureDefinition/PrescriptionType",
                "valueCoding": {
                  "system": "https://gematik.de/fhir/CodeSystem/Flowtype",
                  "code": "160",
                  "display": "Muster 16 (Apothekenpflichtige Arzneimittel)"
                }
              }
            ],
            "contentString": "Chuck Norris ließ sich an einen Lügendetektor anschließen. Die Maschine gestand."
          }
        ]
      },
      "search": {
        "mode": "match"
      }
    },
    {
      "fullUrl": "https://erp-test.zentral.erp.splitdns.ti-dienste.de/Communication/01eba0cd-f0ba-1980-625b-d9e72567cc3b",
      "resource": {
        "resourceType": "Communication",
        "id": "01eba0cd-f0ba-1980-625b-d9e72567cc3b",
        "meta": {
          "profile": [
            "https://gematik.de/fhir/StructureDefinition/ErxCommunicationInfoReq"
          ]
        },
        "contained": [
          {
            "resourceType": "Medication",
            "id": "3856fa94-1bfc-48ba-9a0b-ca8b72ac49e0",
            "meta": {
              "profile": [
                "https://fhir.kbv.de/StructureDefinition/KBV_PR_ERP_Medication_PZN|1.0.2"
              ]
            },
            "extension": [
              {
                "url": "https://fhir.kbv.de/StructureDefinition/KBV_EX_ERP_Medication_Category",
                "valueCoding": {
                  "system": "https://fhir.kbv.de/CodeSystem/KBV_CS_ERP_Medication_Category",
                  "code": "00"
                }
              },
              {
                "url": "https://fhir.kbv.de/StructureDefinition/KBV_EX_ERP_Medication_Vaccine",
                "valueBoolean": false
              },
              {
                "url": "http://fhir.de/StructureDefinition/normgroesse",
                "valueCode": "NB"
              }
            ],
            "code": {
              "coding": [
                {
                  "system": "http://fhir.de/CodeSystem/ifa/pzn",
                  "code": "12345678"
                }
              ],
              "text": "Schmerzmittel"
            },
            "form": {
              "coding": [
                {
                  "system": "https://fhir.kbv.de/CodeSystem/KBV_CS_SFHIR_KBV_DARREICHUNGSFORM",
                  "code": "TAB"
                }
              ]
            },
            "amount": {
              "numerator": {
                "value": 1,
                "unit": "Stk"
              },
              "denominator": {
                "value": 1
              }
            }
          }
        ],
        "basedOn": [
          {
            "reference": "Task/160.000.006.300.277.64"
          }
        ],
        "status": "unknown",
        "about": [
          {
            "reference": "#3856fa94-1bfc-48ba-9a0b-ca8b72ac49e0"
          }
        ],
        "sent": "2023-03-15T13:12:12.400+00:00",
        "recipient": [
          {
            "identifier": {
              "system": "https://gematik.de/fhir/NamingSystem/TelematikID",
              "value": "1-2-ARZT-BerndClaudius01"
            }
          }
        ],
        "sender": {
          "identifier": {
            "system": "http://fhir.de/NamingSystem/gkv/kvid-10",
            "value": "X110498565"
          }
        },
        "payload": [
          {
            "extension": [
              {
                "url": "https://gematik.de/fhir/StructureDefinition/InsuranceProvider",
                "valueIdentifier": {
                  "system": "http://fhir.de/NamingSystem/arge-ik/iknr",
                  "value": "140988130"
                }
              },
              {
                "url": "https://gematik.de/fhir/StructureDefinition/SubstitutionAllowedType",
                "valueBoolean": true
              },
              {
                "url": "https://gematik.de/fhir/StructureDefinition/PrescriptionType",
                "valueCoding": {
                  "system": "https://gematik.de/fhir/CodeSystem/Flowtype",
                  "code": "160",
                  "display": "Muster 16 (Apothekenpflichtige Arzneimittel)"
                }
              }
            ],
            "contentString": "Here I am, brain the size of a planet, and they tell me to take you up to the bridge. Call that job satisfaction? 'Cos I don't."
          }
        ]
      },
      "search": {
        "mode": "match"
      }
    },
    {
      "fullUrl": "https://erp-test.zentral.erp.splitdns.ti-dienste.de/Communication/01eba0cd-f031-c710-1a73-14014ea91275",
      "resource": {
        "resourceType": "Communication",
        "id": "01eba0cd-f031-c710-1a73-14014ea91275",
        "meta": {
          "profile": [
            "https://gematik.de/fhir/StructureDefinition/ErxCommunicationInfoReq"
          ]
        },
        "contained": [
          {
            "resourceType": "Medication",
            "id": "91395ccf-68b7-4192-95ca-b9d96f900b6f",
            "meta": {
              "profile": [
                "https://fhir.kbv.de/StructureDefinition/KBV_PR_ERP_Medication_PZN|1.0.2"
              ]
            },
            "extension": [
              {
                "url": "https://fhir.kbv.de/StructureDefinition/KBV_EX_ERP_Medication_Category",
                "valueCoding": {
                  "system": "https://fhir.kbv.de/CodeSystem/KBV_CS_ERP_Medication_Category",
                  "code": "00"
                }
              },
              {
                "url": "https://fhir.kbv.de/StructureDefinition/KBV_EX_ERP_Medication_Vaccine",
                "valueBoolean": false
              },
              {
                "url": "http://fhir.de/StructureDefinition/normgroesse",
                "valueCode": "NB"
              }
            ],
            "code": {
              "coding": [
                {
                  "system": "http://fhir.de/CodeSystem/ifa/pzn",
                  "code": "12345678"
                }
              ],
              "text": "Schmerzmittel"
            },
            "form": {
              "coding": [
                {
                  "system": "https://fhir.kbv.de/CodeSystem/KBV_CS_SFHIR_KBV_DARREICHUNGSFORM",
                  "code": "TAB"
                }
              ]
            },
            "amount": {
              "numerator": {
                "value": 1,
                "unit": "Stk"
              },
              "denominator": {
                "value": 1
              }
            }
          }
        ],
        "basedOn": [
          {
            "reference": "Task/160.000.006.300.276.67"
          }
        ],
        "status": "unknown",
        "about": [
          {
            "reference": "#91395ccf-68b7-4192-95ca-b9d96f900b6f"
          }
        ],
        "sent": "2023-03-15T13:12:03.466+00:00",
        "received": "2023-03-15T13:12:04.000+00:00",
        "recipient": [
          {
            "identifier": {
              "system": "https://gematik.de/fhir/NamingSystem/TelematikID",
              "value": "3-SMC-B-Testkarte-883110000116873"
            }
          }
        ],
        "sender": {
          "identifier": {
            "system": "http://fhir.de/NamingSystem/gkv/kvid-10",
            "value": "X110498565"
          }
        },
        "payload": [
          {
            "extension": [
              {
                "url": "https://gematik.de/fhir/StructureDefinition/InsuranceProvider",
                "valueIdentifier": {
                  "system": "http://fhir.de/NamingSystem/arge-ik/iknr",
                  "value": "308002513"
                }
              },
              {
                "url": "https://gematik.de/fhir/StructureDefinition/SubstitutionAllowedType",
                "valueBoolean": true
              },
              {
                "url": "https://gematik.de/fhir/StructureDefinition/PrescriptionType",
                "valueCoding": {
                  "system": "https://gematik.de/fhir/CodeSystem/Flowtype",
                  "code": "160",
                  "display": "Muster 16 (Apothekenpflichtige Arzneimittel)"
                }
              }
            ],
            "contentString": "There's only one life-form as intelligent as me within thirty parsecs of here and that's me."
          }
        ]
      },
      "search": {
        "mode": "match"
      }
    },
    {
      "fullUrl": "https://erp-test.zentral.erp.splitdns.ti-dienste.de/Communication/01eba0cd-efe2-dfd8-7ab8-209fa2ce23b9",
      "resource": {
        "resourceType": "Communication",
        "id": "01eba0cd-efe2-dfd8-7ab8-209fa2ce23b9",
        "meta": {
          "profile": [
            "https://gematik.de/fhir/StructureDefinition/ErxCommunicationReply"
          ]
        },
        "basedOn": [
          {
            "reference": "Task/160.000.006.300.275.70"
          }
        ],
        "status": "unknown",
        "sent": "2023-03-15T13:11:58.295+00:00",
        "received": "2023-03-15T14:12:42.000+00:00",
        "recipient": [
          {
            "identifier": {
              "system": "http://fhir.de/NamingSystem/gkv/kvid-10",
              "value": "X110498565"
            }
          }
        ],
        "sender": {
          "identifier": {
            "system": "https://gematik.de/fhir/NamingSystem/TelematikID",
            "value": "3-SMC-B-Testkarte-883110000116873"
          }
        },
        "payload": [
          {
            "extension": [
              {
                "url": "https://gematik.de/fhir/StructureDefinition/AvailabilityStateExtension",
                "valueCoding": {
                  "system": "https://gematik.de/fhir/CodeSystem/AvailabilityStatus",
                  "code": "30"
                }
              },
              {
                "url": "https://gematik.de/fhir/StructureDefinition/SupplyOptionsType",
                "extension": [
                  {
                    "url": "onPremise",
                    "valueBoolean": true
                  },
                  {
                    "url": "delivery",
                    "valueBoolean": false
                  },
                  {
                    "url": "shipment",
                    "valueBoolean": false
                  }
                ]
              }
            ],
            "contentString": "Hodor? Hodor."
          }
        ]
      },
      "search": {
        "mode": "match"
      }
    },
    {
      "fullUrl": "https://erp-test.zentral.erp.splitdns.ti-dienste.de/Communication/01eba0cd-eda5-bd30-1f77-c96d381a205f",
      "resource": {
        "resourceType": "Communication",
        "id": "01eba0cd-eda5-bd30-1f77-c96d381a205f",
        "meta": {
          "profile": [
            "https://gematik.de/fhir/StructureDefinition/ErxCommunicationReply"
          ]
        },
        "basedOn": [
          {
            "reference": "Task/160.000.006.300.270.85"
          }
        ],
        "status": "unknown",
        "sent": "2023-03-15T13:11:20.734+00:00",
        "received": "2023-03-15T13:11:21.000+00:00",
        "recipient": [
          {
            "identifier": {
              "system": "http://fhir.de/NamingSystem/gkv/kvid-10",
              "value": "X110498565"
            }
          }
        ],
        "sender": {
          "identifier": {
            "system": "https://gematik.de/fhir/NamingSystem/TelematikID",
            "value": "3-SMC-B-Testkarte-883110000116873"
          }
        },
        "payload": [
          {
            "extension": [
              {
                "url": "https://gematik.de/fhir/StructureDefinition/AvailabilityStateExtension",
                "valueCoding": {
                  "system": "https://gematik.de/fhir/CodeSystem/AvailabilityStatus",
                  "code": "30"
                }
              },
              {
                "url": "https://gematik.de/fhir/StructureDefinition/SupplyOptionsType",
                "extension": [
                  {
                    "url": "onPremise",
                    "valueBoolean": true
                  },
                  {
                    "url": "delivery",
                    "valueBoolean": false
                  },
                  {
                    "url": "shipment",
                    "valueBoolean": false
                  }
                ]
              }
            ],
            "contentString": "Summer will end soon enough, and childhood as well."
          }
        ]
      },
      "search": {
        "mode": "match"
      }
    },
    {
      "fullUrl": "https://erp-test.zentral.erp.splitdns.ti-dienste.de/Communication/01eba0cd-ed93-0438-aed2-c61a68a530e5",
      "resource": {
        "resourceType": "Communication",
        "id": "01eba0cd-ed93-0438-aed2-c61a68a530e5",
        "meta": {
          "profile": [
            "https://gematik.de/fhir/StructureDefinition/ErxCommunicationInfoReq"
          ]
        },
        "contained": [
          {
            "resourceType": "Medication",
            "id": "6b2031f3-dcc1-4c5b-97ba-f1e37e49a72a",
            "meta": {
              "profile": [
                "https://fhir.kbv.de/StructureDefinition/KBV_PR_ERP_Medication_PZN|1.0.2"
              ]
            },
            "extension": [
              {
                "url": "https://fhir.kbv.de/StructureDefinition/KBV_EX_ERP_Medication_Category",
                "valueCoding": {
                  "system": "https://fhir.kbv.de/CodeSystem/KBV_CS_ERP_Medication_Category",
                  "code": "00"
                }
              },
              {
                "url": "https://fhir.kbv.de/StructureDefinition/KBV_EX_ERP_Medication_Vaccine",
                "valueBoolean": false
              },
              {
                "url": "http://fhir.de/StructureDefinition/normgroesse",
                "valueCode": "NB"
              }
            ],
            "code": {
              "coding": [
                {
                  "system": "http://fhir.de/CodeSystem/ifa/pzn",
                  "code": "12345678"
                }
              ],
              "text": "Schmerzmittel"
            },
            "form": {
              "coding": [
                {
                  "system": "https://fhir.kbv.de/CodeSystem/KBV_CS_SFHIR_KBV_DARREICHUNGSFORM",
                  "code": "TAB"
                }
              ]
            },
            "amount": {
              "numerator": {
                "value": 1,
                "unit": "Stk"
              },
              "denominator": {
                "value": 1
              }
            }
          }
        ],
        "basedOn": [
          {
            "reference": "Task/160.000.006.300.270.85"
          }
        ],
        "status": "unknown",
        "about": [
          {
            "reference": "#6b2031f3-dcc1-4c5b-97ba-f1e37e49a72a"
          }
        ],
        "sent": "2023-03-15T13:11:19.507+00:00",
        "received": "2023-03-15T13:11:20.000+00:00",
        "recipient": [
          {
            "identifier": {
              "system": "https://gematik.de/fhir/NamingSystem/TelematikID",
              "value": "3-SMC-B-Testkarte-883110000116873"
            }
          }
        ],
        "sender": {
          "identifier": {
            "system": "http://fhir.de/NamingSystem/gkv/kvid-10",
            "value": "X110498565"
          }
        },
        "payload": [
          {
            "extension": [
              {
                "url": "https://gematik.de/fhir/StructureDefinition/InsuranceProvider",
                "valueIdentifier": {
                  "system": "http://fhir.de/NamingSystem/arge-ik/iknr",
                  "value": "245332716"
                }
              },
              {
                "url": "https://gematik.de/fhir/StructureDefinition/SubstitutionAllowedType",
                "valueBoolean": true
              },
              {
                "url": "https://gematik.de/fhir/StructureDefinition/PrescriptionType",
                "valueCoding": {
                  "system": "https://gematik.de/fhir/CodeSystem/Flowtype",
                  "code": "160",
                  "display": "Muster 16 (Apothekenpflichtige Arzneimittel)"
                }
              }
            ],
            "contentString": "There's only one life-form as intelligent as me within thirty parsecs of here and that's me."
          }
        ]
      },
      "search": {
        "mode": "match"
      }
    },
    {
      "fullUrl": "https://erp-test.zentral.erp.splitdns.ti-dienste.de/Communication/01eba0cd-ecf1-3658-a92a-001bd2a5d7f7",
      "resource": {
        "resourceType": "Communication",
        "id": "01eba0cd-ecf1-3658-a92a-001bd2a5d7f7",
        "meta": {
          "profile": [
            "https://gematik.de/fhir/StructureDefinition/ErxCommunicationDispReq"
          ]
        },
        "basedOn": [
          {
            "reference": "160.000.006.300.269.88/$accept?ac=bb3012a792fe6a46730c404c37b81632a68dd0e78d2f23fa29b4465c175f4e15"
          }
        ],
        "status": "unknown",
        "sent": "2023-03-15T13:11:08.903+00:00",
        "received": "2023-03-15T13:11:09.000+00:00",
        "recipient": [
          {
            "identifier": {
              "system": "https://gematik.de/fhir/NamingSystem/TelematikID",
              "value": "3-SMC-B-Testkarte-883110000116873"
            }
          }
        ],
        "sender": {
          "identifier": {
            "system": "http://fhir.de/NamingSystem/gkv/kvid-10",
            "value": "X110498565"
          }
        },
        "payload": [
          {
            "contentString": "I g-guess you guys aren't ready for that yet. But your kids are gonna love it."
          }
        ]
      },
      "search": {
        "mode": "match"
      }
    },
    {
      "fullUrl": "https://erp-test.zentral.erp.splitdns.ti-dienste.de/Communication/01eba0c2-af51-eeb0-9ae8-dd86b2e0b06c",
      "resource": {
        "resourceType": "Communication",
        "id": "01eba0c2-af51-eeb0-9ae8-dd86b2e0b06c",
        "meta": {
          "profile": [
            "https://gematik.de/fhir/StructureDefinition/ErxCommunicationInfoReq"
          ]
        },
        "contained": [
          {
            "resourceType": "Medication",
            "id": "de0836e8-2b7a-48d7-9894-c7b08770f26d",
            "meta": {
              "profile": [
                "https://fhir.kbv.de/StructureDefinition/KBV_PR_ERP_Medication_PZN|1.0.2"
              ]
            },
            "extension": [
              {
                "url": "https://fhir.kbv.de/StructureDefinition/KBV_EX_ERP_Medication_Category",
                "valueCoding": {
                  "system": "https://fhir.kbv.de/CodeSystem/KBV_CS_ERP_Medication_Category",
                  "code": "00"
                }
              },
              {
                "url": "https://fhir.kbv.de/StructureDefinition/KBV_EX_ERP_Medication_Vaccine",
                "valueBoolean": false
              },
              {
                "url": "http://fhir.de/StructureDefinition/normgroesse",
                "valueCode": "N1"
              }
            ],
            "code": {
              "coding": [
                {
                  "system": "http://fhir.de/CodeSystem/ifa/pzn",
                  "code": "12345678"
                }
              ],
              "text": "Schmerzmittel"
            },
            "form": {
              "coding": [
                {
                  "system": "https://fhir.kbv.de/CodeSystem/KBV_CS_SFHIR_KBV_DARREICHUNGSFORM",
                  "code": "TAB"
                }
              ]
            },
            "amount": {
              "numerator": {
                "value": 1,
                "unit": "Stk"
              },
              "denominator": {
                "value": 1
              }
            }
          }
        ],
        "basedOn": [
          {
            "reference": "Task/160.000.006.300.048.72"
          }
        ],
        "status": "unknown",
        "about": [
          {
            "reference": "#de0836e8-2b7a-48d7-9894-c7b08770f26d"
          }
        ],
        "sent": "2023-03-14T23:46:30.414+00:00",
        "received": "2023-03-15T13:11:09.000+00:00",
        "recipient": [
          {
            "identifier": {
              "system": "https://gematik.de/fhir/NamingSystem/TelematikID",
              "value": "3-SMC-B-Testkarte-883110000116873"
            }
          }
        ],
        "sender": {
          "identifier": {
            "system": "http://fhir.de/NamingSystem/gkv/kvid-10",
            "value": "X110498565"
          }
        },
        "payload": [
          {
            "extension": [
              {
                "url": "https://gematik.de/fhir/StructureDefinition/InsuranceProvider",
                "valueIdentifier": {
                  "system": "http://fhir.de/NamingSystem/arge-ik/iknr",
                  "value": "751173029"
                }
              },
              {
                "url": "https://gematik.de/fhir/StructureDefinition/SubstitutionAllowedType",
                "valueBoolean": true
              },
              {
                "url": "https://gematik.de/fhir/StructureDefinition/PrescriptionType",
                "valueCoding": {
                  "system": "https://gematik.de/fhir/CodeSystem/Flowtype",
                  "code": "160",
                  "display": "Muster 16 (Apothekenpflichtige Arzneimittel)"
                }
              }
            ],
            "contentString": "Pardon me for breathing, which I never do anyway so I don't know why I bother to say it, Oh God, I'm so depressed."
          }
        ]
      },
      "search": {
        "mode": "match"
      }
    },
    {
      "fullUrl": "https://erp-test.zentral.erp.splitdns.ti-dienste.de/Communication/01eba0c2-a2da-e088-791a-329830589afe",
      "resource": {
        "resourceType": "Communication",
        "id": "01eba0c2-a2da-e088-791a-329830589afe",
        "meta": {
          "profile": [
            "https://gematik.de/fhir/StructureDefinition/ErxCommunicationRepresentative"
          ]
        },
        "basedOn": [
          {
            "reference": "160.000.006.300.015.74/$accept?ac=9121536f671939bfcbfa031a1f60833aa3fcf3a3345489862b55faaf9ad52420"
          }
        ],
        "status": "unknown",
        "sent": "2023-03-14T23:43:01.285+00:00",
        "received": "2023-03-14T23:43:01.000+00:00",
        "recipient": [
          {
            "identifier": {
              "system": "http://fhir.de/NamingSystem/gkv/kvid-10",
              "value": "X110465770"
            }
          }
        ],
        "sender": {
          "identifier": {
            "system": "http://fhir.de/NamingSystem/gkv/kvid-10",
            "value": "X110498565"
          }
        },
        "payload": [
          {
            "extension": [
              {
                "url": "https://gematik.de/fhir/StructureDefinition/SubstitutionAllowedType",
                "valueBoolean": true
              },
              {
                "url": "https://gematik.de/fhir/StructureDefinition/PrescriptionType",
                "valueCoding": {
                  "system": "https://gematik.de/fhir/CodeSystem/Flowtype",
                  "code": "160",
                  "display": "Muster 16 (Apothekenpflichtige Arzneimittel)"
                }
              }
            ],
            "contentString": "Chuck Norris isst keinen Honig. Chuck Norris kaut Bienen."
          }
        ]
      },
      "search": {
        "mode": "match"
      }
    },
    {
      "fullUrl": "https://erp-test.zentral.erp.splitdns.ti-dienste.de/Communication/01eba0c2-9a49-ab98-cebe-e9d50ea3f8d5",
      "resource": {
        "resourceType": "Communication",
        "id": "01eba0c2-9a49-ab98-cebe-e9d50ea3f8d5",
        "meta": {
          "profile": [
            "https://gematik.de/fhir/StructureDefinition/ErxCommunicationInfoReq"
          ]
        },
        "contained": [
          {
            "resourceType": "Medication",
            "id": "e3e2bf06-ce84-4764-90d8-570aaba29941",
            "meta": {
              "profile": [
                "https://fhir.kbv.de/StructureDefinition/KBV_PR_ERP_Medication_PZN|1.0.2"
              ]
            },
            "extension": [
              {
                "url": "https://fhir.kbv.de/StructureDefinition/KBV_EX_ERP_Medication_Category",
                "valueCoding": {
                  "system": "https://fhir.kbv.de/CodeSystem/KBV_CS_ERP_Medication_Category",
                  "code": "00"
                }
              },
              {
                "url": "https://fhir.kbv.de/StructureDefinition/KBV_EX_ERP_Medication_Vaccine",
                "valueBoolean": false
              },
              {
                "url": "http://fhir.de/StructureDefinition/normgroesse",
                "valueCode": "NB"
              }
            ],
            "code": {
              "coding": [
                {
                  "system": "http://fhir.de/CodeSystem/ifa/pzn",
                  "code": "12345678"
                }
              ],
              "text": "Schmerzmittel"
            },
            "form": {
              "coding": [
                {
                  "system": "https://fhir.kbv.de/CodeSystem/KBV_CS_SFHIR_KBV_DARREICHUNGSFORM",
                  "code": "TAB"
                }
              ]
            },
            "amount": {
              "numerator": {
                "value": 1,
                "unit": "Stk"
              },
              "denominator": {
                "value": 1
              }
            }
          }
        ],
        "basedOn": [
          {
            "reference": "Task/160.000.006.299.992.46"
          }
        ],
        "status": "unknown",
        "about": [
          {
            "reference": "#e3e2bf06-ce84-4764-90d8-570aaba29941"
          }
        ],
        "sent": "2023-03-14T23:40:37.551+00:00",
        "recipient": [
          {
            "identifier": {
              "system": "https://gematik.de/fhir/NamingSystem/TelematikID",
              "value": "1-2-ARZT-BerndClaudius01"
            }
          }
        ],
        "sender": {
          "identifier": {
            "system": "http://fhir.de/NamingSystem/gkv/kvid-10",
            "value": "X110498565"
          }
        },
        "payload": [
          {
            "extension": [
              {
                "url": "https://gematik.de/fhir/StructureDefinition/InsuranceProvider",
                "valueIdentifier": {
                  "system": "http://fhir.de/NamingSystem/arge-ik/iknr",
                  "value": "540540041"
                }
              },
              {
                "url": "https://gematik.de/fhir/StructureDefinition/SubstitutionAllowedType",
                "valueBoolean": true
              },
              {
                "url": "https://gematik.de/fhir/StructureDefinition/PrescriptionType",
                "valueCoding": {
                  "system": "https://gematik.de/fhir/CodeSystem/Flowtype",
                  "code": "160",
                  "display": "Muster 16 (Apothekenpflichtige Arzneimittel)"
                }
              }
            ],
            "contentString": "I think you ought to know I'm feeling very depressed."
          }
        ]
      },
      "search": {
        "mode": "match"
      }
    },
    {
      "fullUrl": "https://erp-test.zentral.erp.splitdns.ti-dienste.de/Communication/01eba0c2-99d7-2730-e4df-c71a8915a932",
      "resource": {
        "resourceType": "Communication",
        "id": "01eba0c2-99d7-2730-e4df-c71a8915a932",
        "meta": {
          "profile": [
            "https://gematik.de/fhir/StructureDefinition/ErxCommunicationInfoReq"
          ]
        },
        "contained": [
          {
            "resourceType": "Medication",
            "id": "778e6a8d-c670-47ad-9879-377344c3419a",
            "meta": {
              "profile": [
                "https://fhir.kbv.de/StructureDefinition/KBV_PR_ERP_Medication_PZN|1.0.2"
              ]
            },
            "extension": [
              {
                "url": "https://fhir.kbv.de/StructureDefinition/KBV_EX_ERP_Medication_Category",
                "valueCoding": {
                  "system": "https://fhir.kbv.de/CodeSystem/KBV_CS_ERP_Medication_Category",
                  "code": "00"
                }
              },
              {
                "url": "https://fhir.kbv.de/StructureDefinition/KBV_EX_ERP_Medication_Vaccine",
                "valueBoolean": false
              },
              {
                "url": "http://fhir.de/StructureDefinition/normgroesse",
                "valueCode": "NB"
              }
            ],
            "code": {
              "coding": [
                {
                  "system": "http://fhir.de/CodeSystem/ifa/pzn",
                  "code": "12345678"
                }
              ],
              "text": "Schmerzmittel"
            },
            "form": {
              "coding": [
                {
                  "system": "https://fhir.kbv.de/CodeSystem/KBV_CS_SFHIR_KBV_DARREICHUNGSFORM",
                  "code": "TAB"
                }
              ]
            },
            "amount": {
              "numerator": {
                "value": 1,
                "unit": "Stk"
              },
              "denominator": {
                "value": 1
              }
            }
          }
        ],
        "basedOn": [
          {
            "reference": "Task/160.000.006.299.991.49"
          }
        ],
        "status": "unknown",
        "about": [
          {
            "reference": "#778e6a8d-c670-47ad-9879-377344c3419a"
          }
        ],
        "sent": "2023-03-14T23:40:30.046+00:00",
        "received": "2023-03-14T23:40:30.000+00:00",
        "recipient": [
          {
            "identifier": {
              "system": "https://gematik.de/fhir/NamingSystem/TelematikID",
              "value": "3-SMC-B-Testkarte-883110000116873"
            }
          }
        ],
        "sender": {
          "identifier": {
            "system": "http://fhir.de/NamingSystem/gkv/kvid-10",
            "value": "X110498565"
          }
        },
        "payload": [
          {
            "extension": [
              {
                "url": "https://gematik.de/fhir/StructureDefinition/InsuranceProvider",
                "valueIdentifier": {
                  "system": "http://fhir.de/NamingSystem/arge-ik/iknr",
                  "value": "326915601"
                }
              },
              {
                "url": "https://gematik.de/fhir/StructureDefinition/SubstitutionAllowedType",
                "valueBoolean": true
              },
              {
                "url": "https://gematik.de/fhir/StructureDefinition/PrescriptionType",
                "valueCoding": {
                  "system": "https://gematik.de/fhir/CodeSystem/Flowtype",
                  "code": "160",
                  "display": "Muster 16 (Apothekenpflichtige Arzneimittel)"
                }
              }
            ],
            "contentString": "You think you've got problems? What are you supposed to do if you are a manically depressed robot? No, don't try to answer that. I'm fifty thousand times more intelligent than you and even I don't know the answer. It gives me a headache just trying to think down to your level."
          }
        ]
      },
      "search": {
        "mode": "match"
      }
    },
    {
      "fullUrl": "https://erp-test.zentral.erp.splitdns.ti-dienste.de/Communication/01eba0c2-9990-bfc0-3ea3-2b77cc7b694f",
      "resource": {
        "resourceType": "Communication",
        "id": "01eba0c2-9990-bfc0-3ea3-2b77cc7b694f",
        "meta": {
          "profile": [
            "https://gematik.de/fhir/StructureDefinition/ErxCommunicationReply"
          ]
        },
        "basedOn": [
          {
            "reference": "Task/160.000.006.299.990.52"
          }
        ],
        "status": "unknown",
        "sent": "2023-03-14T23:40:25.432+00:00",
        "received": "2023-03-15T13:11:21.000+00:00",
        "recipient": [
          {
            "identifier": {
              "system": "http://fhir.de/NamingSystem/gkv/kvid-10",
              "value": "X110498565"
            }
          }
        ],
        "sender": {
          "identifier": {
            "system": "https://gematik.de/fhir/NamingSystem/TelematikID",
            "value": "3-SMC-B-Testkarte-883110000116873"
          }
        },
        "payload": [
          {
            "extension": [
              {
                "url": "https://gematik.de/fhir/StructureDefinition/AvailabilityStateExtension",
                "valueCoding": {
                  "system": "https://gematik.de/fhir/CodeSystem/AvailabilityStatus",
                  "code": "30"
                }
              },
              {
                "url": "https://gematik.de/fhir/StructureDefinition/SupplyOptionsType",
                "extension": [
                  {
                    "url": "onPremise",
                    "valueBoolean": true
                  },
                  {
                    "url": "delivery",
                    "valueBoolean": false
                  },
                  {
                    "url": "shipment",
                    "valueBoolean": false
                  }
                ]
              }
            ],
            "contentString": "Never forget who you are. The rest of the world won't. Wear it like an armor and it can never be used against you."
          }
        ]
      },
      "search": {
        "mode": "match"
      }
    },
    {
      "fullUrl": "https://erp-test.zentral.erp.splitdns.ti-dienste.de/Communication/01eba0c2-97fa-25e8-3582-e6b08aaf08a9",
      "resource": {
        "resourceType": "Communication",
        "id": "01eba0c2-97fa-25e8-3582-e6b08aaf08a9",
        "meta": {
          "profile": [
            "https://gematik.de/fhir/StructureDefinition/ErxCommunicationReply"
          ]
        },
        "basedOn": [
          {
            "reference": "Task/160.000.006.299.985.67"
          }
        ],
        "status": "unknown",
        "sent": "2023-03-14T23:39:58.785+00:00",
        "received": "2023-03-14T23:39:59.000+00:00",
        "recipient": [
          {
            "identifier": {
              "system": "http://fhir.de/NamingSystem/gkv/kvid-10",
              "value": "X110498565"
            }
          }
        ],
        "sender": {
          "identifier": {
            "system": "https://gematik.de/fhir/NamingSystem/TelematikID",
            "value": "3-SMC-B-Testkarte-883110000116873"
          }
        },
        "payload": [
          {
            "extension": [
              {
                "url": "https://gematik.de/fhir/StructureDefinition/AvailabilityStateExtension",
                "valueCoding": {
                  "system": "https://gematik.de/fhir/CodeSystem/AvailabilityStatus",
                  "code": "30"
                }
              },
              {
                "url": "https://gematik.de/fhir/StructureDefinition/SupplyOptionsType",
                "extension": [
                  {
                    "url": "onPremise",
                    "valueBoolean": true
                  },
                  {
                    "url": "delivery",
                    "valueBoolean": false
                  },
                  {
                    "url": "shipment",
                    "valueBoolean": false
                  }
                ]
              }
            ],
            "contentString": "When you play a game of thrones you win or you die."
          }
        ]
      },
      "search": {
        "mode": "match"
      }
    },
    {
      "fullUrl": "https://erp-test.zentral.erp.splitdns.ti-dienste.de/Communication/01eba0c2-97ed-48f0-90c1-3727779b7607",
      "resource": {
        "resourceType": "Communication",
        "id": "01eba0c2-97ed-48f0-90c1-3727779b7607",
        "meta": {
          "profile": [
            "https://gematik.de/fhir/StructureDefinition/ErxCommunicationInfoReq"
          ]
        },
        "contained": [
          {
            "resourceType": "Medication",
            "id": "7fe3ac49-b634-4088-9e1f-4b2fe6943e81",
            "meta": {
              "profile": [
                "https://fhir.kbv.de/StructureDefinition/KBV_PR_ERP_Medication_PZN|1.0.2"
              ]
            },
            "extension": [
              {
                "url": "https://fhir.kbv.de/StructureDefinition/KBV_EX_ERP_Medication_Category",
                "valueCoding": {
                  "system": "https://fhir.kbv.de/CodeSystem/KBV_CS_ERP_Medication_Category",
                  "code": "00"
                }
              },
              {
                "url": "https://fhir.kbv.de/StructureDefinition/KBV_EX_ERP_Medication_Vaccine",
                "valueBoolean": false
              },
              {
                "url": "http://fhir.de/StructureDefinition/normgroesse",
                "valueCode": "NB"
              }
            ],
            "code": {
              "coding": [
                {
                  "system": "http://fhir.de/CodeSystem/ifa/pzn",
                  "code": "12345678"
                }
              ],
              "text": "Schmerzmittel"
            },
            "form": {
              "coding": [
                {
                  "system": "https://fhir.kbv.de/CodeSystem/KBV_CS_SFHIR_KBV_DARREICHUNGSFORM",
                  "code": "TAB"
                }
              ]
            },
            "amount": {
              "numerator": {
                "value": 1,
                "unit": "Stk"
              },
              "denominator": {
                "value": 1
              }
            }
          }
        ],
        "basedOn": [
          {
            "reference": "Task/160.000.006.299.985.67"
          }
        ],
        "status": "unknown",
        "about": [
          {
            "reference": "#7fe3ac49-b634-4088-9e1f-4b2fe6943e81"
          }
        ],
        "sent": "2023-03-14T23:39:57.942+00:00",
        "received": "2023-03-14T23:39:58.000+00:00",
        "recipient": [
          {
            "identifier": {
              "system": "https://gematik.de/fhir/NamingSystem/TelematikID",
              "value": "3-SMC-B-Testkarte-883110000116873"
            }
          }
        ],
        "sender": {
          "identifier": {
            "system": "http://fhir.de/NamingSystem/gkv/kvid-10",
            "value": "X110498565"
          }
        },
        "payload": [
          {
            "extension": [
              {
                "url": "https://gematik.de/fhir/StructureDefinition/InsuranceProvider",
                "valueIdentifier": {
                  "system": "http://fhir.de/NamingSystem/arge-ik/iknr",
                  "value": "874928721"
                }
              },
              {
                "url": "https://gematik.de/fhir/StructureDefinition/SubstitutionAllowedType",
                "valueBoolean": true
              },
              {
                "url": "https://gematik.de/fhir/StructureDefinition/PrescriptionType",
                "valueCoding": {
                  "system": "https://gematik.de/fhir/CodeSystem/Flowtype",
                  "code": "160",
                  "display": "Muster 16 (Apothekenpflichtige Arzneimittel)"
                }
              }
            ],
            "contentString": "Life? Don't talk to me about life."
          }
        ]
      },
      "search": {
        "mode": "match"
      }
    }
  ]
}
