{
  "resourceType": "Bundle",
  "id": "f3e153ed-c6a3-4c3f-b655-a2a5074cc27f",
  "type": "collection",
  "timestamp": "2023-03-16T11:48:48.851+00:00",
  "link": [
    {
      "relation": "self",
      "url": "https://erp-test.zentral.erp.splitdns.ti-dienste.de/Task/160.000.006.300.808.23"
    }
  ],
  "entry": [
    {
      "fullUrl": "https://erp-test.zentral.erp.splitdns.ti-dienste.de/Task/160.000.006.300.808.23",
      "resource": {
        "resourceType": "Task",
        "id": "160.000.006.300.808.23",
        "meta": {
          "profile": [
            "https://gematik.de/fhir/StructureDefinition/ErxTask|1.1.1"
          ]
        },
        "extension": [
          {
            "url": "https://gematik.de/fhir/StructureDefinition/PrescriptionType",
            "valueCoding": {
              "system": "https://gematik.de/fhir/CodeSystem/Flowtype",
              "code": "160",
              "display": "Muster 16 (Apothekenpflichtige Arzneimittel)"
            }
          },
          {
            "url": "https://gematik.de/fhir/StructureDefinition/ExpiryDate",
            "valueDate": "2023-06-16"
          },
          {
            "url": "https://gematik.de/fhir/StructureDefinition/AcceptDate",
            "valueDate": "2023-04-13"
          }
        ],
        "identifier": [
          {
            "use": "official",
            "system": "https://gematik.de/fhir/NamingSystem/PrescriptionID",
            "value": "160.000.006.300.808.23"
          },
          {
            "use": "official",
            "system": "https://gematik.de/fhir/NamingSystem/AccessCode",
            "value": "bf3b62c15695a3821086417a602e330002e8f76ca5f700f38f2fc550eb2da45b"
          }
        ],
        "status": "ready",
        "intent": "order",
        "for": {
          "identifier": {
            "system": "http://fhir.de/NamingSystem/gkv/kvid-10",
            "value": "X110498565"
          }
        },
        "authoredOn": "2023-03-16T11:48:46.555+00:00",
        "lastModified": "2023-03-16T11:48:46.892+00:00",
        "performerType": [
          {
            "coding": [
              {
                "system": "urn:ietf:rfc:3986",
                "code": "urn:oid:1.2.276.0.76.4.54",
                "display": "Öffentliche Apotheke"
              }
            ],
            "text": "Öffentliche Apotheke"
          }
        ],
        "input": [
          {
            "type": {
              "coding": [
                {
                  "system": "https://gematik.de/fhir/CodeSystem/Documenttype",
                  "code": "2"
                }
              ]
            },
            "valueReference": {
              "reference": "a0882460-0000-0000-0002-000000000000"
            }
          }
        ]
      }
    },
    {
      "fullUrl": "urn:uuid:a0882460-0000-0000-0002-000000000000",
      "resource": {
        "resourceType": "Bundle",
        "meta": {
          "lastUpdated": "2023-03-16T12:48:45.597+01:00",
          "profile": [
            "https://fhir.kbv.de/StructureDefinition/KBV_PR_ERP_Bundle|1.0.2"
          ]
        },
        "identifier": {
          "system": "https://gematik.de/fhir/NamingSystem/PrescriptionID",
          "value": "160.000.006.300.808.23"
        },
        "type": "document",
        "timestamp": "2023-03-16T12:48:45.597+01:00",
        "entry": [
          {
            "fullUrl": "https://pvs.gematik.de/fhir/Composition/78ee7f27-5175-45a6-98a7-c50b41cbac4a",
            "resource": {
              "resourceType": "Composition",
              "id": "78ee7f27-5175-45a6-98a7-c50b41cbac4a",
              "meta": {
                "profile": [
                  "https://fhir.kbv.de/StructureDefinition/KBV_PR_ERP_Composition|1.0.2"
                ]
              },
              "extension": [
                {
                  "url": "https://fhir.kbv.de/StructureDefinition/KBV_EX_FOR_Legal_basis",
                  "valueCoding": {
                    "system": "https://fhir.kbv.de/CodeSystem/KBV_CS_SFHIR_KBV_STATUSKENNZEICHEN",
                    "code": "00"
                  }
                }
              ],
              "status": "final",
              "type": {
                "coding": [
                  {
                    "system": "https://fhir.kbv.de/CodeSystem/KBV_CS_SFHIR_KBV_FORMULAR_ART",
                    "code": "e16A"
                  }
                ]
              },
              "subject": {
                "reference": "Patient/e35552d7-0be1-4ee5-9935-aad9a48e0311"
              },
              "date": "2023-03-16T12:48:45+01:00",
              "author": [
                {
                  "reference": "Practitioner/42b3439d-5f3e-49d2-9c4b-3a1d67c6c5f2",
                  "type": "Practitioner"
                },
                {
                  "type": "Device",
                  "identifier": {
                    "system": "https://fhir.kbv.de/NamingSystem/KBV_NS_FOR_Pruefnummer",
                    "value": "GEMATIK/410/2109/36/123"
                  }
                }
              ],
              "title": "elektronische Arzneimittelverordnung",
              "custodian": {
                "reference": "Organization/5faf9afa-d4da-4147-ba48-1c52d53a2238"
              },
              "section": [
                {
                  "code": {
                    "coding": [
                      {
                        "system": "https://fhir.kbv.de/CodeSystem/KBV_CS_ERP_Section_Type",
                        "code": "Coverage"
                      }
                    ]
                  },
                  "entry": [
                    {
                      "reference": "Coverage/4e05be5b-b1dd-4dc5-9f93-06c8267a78d6"
                    }
                  ]
                },
                {
                  "code": {
                    "coding": [
                      {
                        "system": "https://fhir.kbv.de/CodeSystem/KBV_CS_ERP_Section_Type",
                        "code": "Prescription"
                      }
                    ]
                  },
                  "entry": [
                    {
                      "reference": "MedicationRequest/044b461d-151f-4310-a3d6-a83b52f1c727"
                    }
                  ]
                }
              ]
            }
          },
          {
            "fullUrl": "https://pvs.gematik.de/fhir/MedicationRequest/044b461d-151f-4310-a3d6-a83b52f1c727",
            "resource": {
              "resourceType": "MedicationRequest",
              "id": "044b461d-151f-4310-a3d6-a83b52f1c727",
              "meta": {
                "profile": [
                  "https://fhir.kbv.de/StructureDefinition/KBV_PR_ERP_Prescription|1.0.2"
                ]
              },
              "extension": [
                {
                  "url": "https://fhir.kbv.de/StructureDefinition/KBV_EX_ERP_BVG",
                  "valueBoolean": false
                },
                {
                  "url": "https://fhir.kbv.de/StructureDefinition/KBV_EX_ERP_EmergencyServicesFee",
                  "valueBoolean": false
                },
                {
                  "url": "https://fhir.kbv.de/StructureDefinition/KBV_EX_ERP_Multiple_Prescription",
                  "extension": [
                    {
                      "url": "Kennzeichen",
                      "valueBoolean": false
                    }
                  ]
                },
                {
                  "url": "https://fhir.kbv.de/StructureDefinition/KBV_EX_ERP_StatusCoPayment",
                  "valueCoding": {
                    "system": "https://fhir.kbv.de/CodeSystem/KBV_CS_ERP_StatusCoPayment",
                    "code": "0"
                  }
                }
              ],
              "status": "active",
              "intent": "order",
              "medicationReference": {
                "reference": "Medication/92680fa9-6c9f-4249-93c2-f00bda45b5d6"
              },
              "subject": {
                "reference": "Patient/e35552d7-0be1-4ee5-9935-aad9a48e0311"
              },
              "authoredOn": "2023-03-16",
              "requester": {
                "reference": "Practitioner/42b3439d-5f3e-49d2-9c4b-3a1d67c6c5f2"
              },
              "insurance": [
                {
                  "reference": "Coverage/4e05be5b-b1dd-4dc5-9f93-06c8267a78d6"
                }
              ],
              "dosageInstruction": [
                {
                  "extension": [
                    {
                      "url": "https://fhir.kbv.de/StructureDefinition/KBV_EX_ERP_DosageFlag",
                      "valueBoolean": true
                    }
                  ],
                  "text": "1-0-0-0"
                }
              ],
              "dispenseRequest": {
                "quantity": {
                  "value": 1,
                  "system": "http://unitsofmeasure.org",
                  "code": "{Package}"
                }
              },
              "substitution": {
                "allowedBoolean": true
              }
            }
          },
          {
            "fullUrl": "https://pvs.gematik.de/fhir/Medication/92680fa9-6c9f-4249-93c2-f00bda45b5d6",
            "resource": {
              "resourceType": "Medication",
              "id": "92680fa9-6c9f-4249-93c2-f00bda45b5d6",
              "meta": {
                "profile": [
                  "https://fhir.kbv.de/StructureDefinition/KBV_PR_ERP_Medication_PZN|1.0.2"
                ]
              },
              "extension": [
                {
                  "url": "https://fhir.kbv.de/StructureDefinition/KBV_EX_ERP_Medication_Category",
                  "valueCoding": {
                    "system": "https://fhir.kbv.de/CodeSystem/KBV_CS_ERP_Medication_Category",
                    "code": "00"
                  }
                },
                {
                  "url": "https://fhir.kbv.de/StructureDefinition/KBV_EX_ERP_Medication_Vaccine",
                  "valueBoolean": false
                },
                {
                  "url": "http://fhir.de/StructureDefinition/normgroesse",
                  "valueCode": "NB"
                }
              ],
              "code": {
                "coding": [
                  {
                    "system": "http://fhir.de/CodeSystem/ifa/pzn",
                    "code": "12345678"
                  }
                ],
                "text": "Schmerzmittel"
              },
              "form": {
                "coding": [
                  {
                    "system": "https://fhir.kbv.de/CodeSystem/KBV_CS_SFHIR_KBV_DARREICHUNGSFORM",
                    "code": "TAB"
                  }
                ]
              },
              "amount": {
                "numerator": {
                  "value": 1,
                  "unit": "Stk"
                },
                "denominator": {
                  "value": 1
                }
              }
            }
          },
          {
            "fullUrl": "https://pvs.gematik.de/fhir/Patient/e35552d7-0be1-4ee5-9935-aad9a48e0311",
            "resource": {
              "resourceType": "Patient",
              "id": "e35552d7-0be1-4ee5-9935-aad9a48e0311",
              "meta": {
                "profile": [
                  "https://fhir.kbv.de/StructureDefinition/KBV_PR_FOR_Patient|1.0.3"
                ]
              },
              "identifier": [
                {
                  "type": {
                    "coding": [
                      {
                        "system": "http://fhir.de/CodeSystem/identifier-type-de-basis",
                        "code": "GKV"
                      }
                    ]
                  },
                  "system": "http://fhir.de/NamingSystem/gkv/kvid-10",
                  "value": "X110498565"
                }
              ],
              "name": [
                {
                  "use": "official",
                  "family": "Hüllmann",
                  "given": ["Sina"]
                }
              ],
              "birthDate": "1988-08-31",
              "address": [
                {
                  "type": "both",
                  "line": ["An der Feldgasse 49b"],
                  "_line": [
                    {
                      "extension": [
                        {
                          "url": "http://hl7.org/fhir/StructureDefinition/iso21090-ADXP-houseNumber",
                          "valueString": "49b"
                        },
                        {
                          "url": "http://hl7.org/fhir/StructureDefinition/iso21090-ADXP-streetName",
                          "valueString": "An der Feldgasse"
                        }
                      ]
                    }
                  ],
                  "city": "Schön Luan",
                  "postalCode": "24059",
                  "country": "D"
                }
              ]
            }
          },
          {
            "fullUrl": "https://pvs.gematik.de/fhir/Organization/5faf9afa-d4da-4147-ba48-1c52d53a2238",
            "resource": {
              "resourceType": "Organization",
              "id": "5faf9afa-d4da-4147-ba48-1c52d53a2238",
              "meta": {
                "profile": [
                  "https://fhir.kbv.de/StructureDefinition/KBV_PR_FOR_Organization|1.0.3"
                ]
              },
              "identifier": [
                {
                  "type": {
                    "coding": [
                      {
                        "system": "http://terminology.hl7.org/CodeSystem/v2-0203",
                        "code": "BSNR"
                      }
                    ]
                  },
                  "system": "https://fhir.kbv.de/NamingSystem/KBV_NS_Base_BSNR",
                  "value": "614288551"
                }
              ],
              "name": "Arztpraxis Schraßer",
              "telecom": [
                {
                  "system": "phone",
                  "value": "+49-1633-36964921"
                },
                {
                  "system": "email",
                  "value": "josef.radtke@krohn.org"
                }
              ],
              "address": [
                {
                  "type": "both",
                  "line": ["Ophovener Str. 85c"],
                  "_line": [
                    {
                      "extension": [
                        {
                          "url": "http://hl7.org/fhir/StructureDefinition/iso21090-ADXP-houseNumber",
                          "valueString": "85c"
                        },
                        {
                          "url": "http://hl7.org/fhir/StructureDefinition/iso21090-ADXP-streetName",
                          "valueString": "Ophovener Str."
                        }
                      ]
                    }
                  ],
                  "city": "Paulinehagen",
                  "postalCode": "96526",
                  "country": "D"
                }
              ]
            }
          },
          {
            "fullUrl": "https://pvs.gematik.de/fhir/Coverage/4e05be5b-b1dd-4dc5-9f93-06c8267a78d6",
            "resource": {
              "resourceType": "Coverage",
              "id": "4e05be5b-b1dd-4dc5-9f93-06c8267a78d6",
              "meta": {
                "profile": [
                  "https://fhir.kbv.de/StructureDefinition/KBV_PR_FOR_Coverage|1.0.3"
                ]
              },
              "extension": [
                {
                  "url": "http://fhir.de/StructureDefinition/gkv/besondere-personengruppe",
                  "valueCoding": {
                    "system": "https://fhir.kbv.de/CodeSystem/KBV_CS_SFHIR_KBV_PERSONENGRUPPE",
                    "code": "00"
                  }
                },
                {
                  "url": "http://fhir.de/StructureDefinition/gkv/dmp-kennzeichen",
                  "valueCoding": {
                    "system": "https://fhir.kbv.de/CodeSystem/KBV_CS_SFHIR_KBV_DMP",
                    "code": "00"
                  }
                },
                {
                  "url": "http://fhir.de/StructureDefinition/gkv/wop",
                  "valueCoding": {
                    "system": "https://fhir.kbv.de/CodeSystem/KBV_CS_SFHIR_ITA_WOP",
                    "code": "61"
                  }
                },
                {
                  "url": "http://fhir.de/StructureDefinition/gkv/versichertenart",
                  "valueCoding": {
                    "system": "https://fhir.kbv.de/CodeSystem/KBV_CS_SFHIR_KBV_VERSICHERTENSTATUS",
                    "code": "1"
                  }
                }
              ],
              "status": "active",
              "type": {
                "coding": [
                  {
                    "system": "http://fhir.de/CodeSystem/versicherungsart-de-basis",
                    "code": "GKV"
                  }
                ]
              },
              "beneficiary": {
                "reference": "Patient/77b5032b-a682-4e79-9825-e3d24aa1d793"
              },
              "payor": [
                {
                  "identifier": {
                    "system": "http://fhir.de/NamingSystem/arge-ik/iknr",
                    "value": "809524984"
                  },
                  "display": "KOA Berlin"
                }
              ]
            }
          },
          {
            "fullUrl": "https://pvs.gematik.de/fhir/Practitioner/42b3439d-5f3e-49d2-9c4b-3a1d67c6c5f2",
            "resource": {
              "resourceType": "Practitioner",
              "id": "42b3439d-5f3e-49d2-9c4b-3a1d67c6c5f2",
              "meta": {
                "profile": [
                  "https://fhir.kbv.de/StructureDefinition/KBV_PR_FOR_Practitioner|1.0.3"
                ]
              },
              "identifier": [
                {
                  "type": {
                    "coding": [
                      {
                        "system": "http://terminology.hl7.org/CodeSystem/v2-0203",
                        "code": "LANR"
                      }
                    ]
                  },
                  "system": "https://fhir.kbv.de/NamingSystem/KBV_NS_Base_ANR",
                  "value": "391441296"
                }
              ],
              "name": [
                {
                  "use": "official",
                  "family": "Schraßer",
                  "given": ["Dr."],
                  "prefix": ["Dr."],
                  "_prefix": [
                    {
                      "extension": [
                        {
                          "url": "http://hl7.org/fhir/StructureDefinition/iso21090-EN-qualifier",
                          "valueCode": "AC"
                        }
                      ]
                    }
                  ]
                }
              ],
              "qualification": [
                {
                  "code": {
                    "coding": [
                      {
                        "system": "https://fhir.kbv.de/CodeSystem/KBV_CS_FOR_Qualification_Type",
                        "code": "00"
                      }
                    ]
                  }
                },
                {
                  "code": {
                    "text": "Super-Facharzt für alles Mögliche"
                  }
                }
              ]
            }
          }
        ],
        "signature": {
          "type": [
            {
              "system": "urn:iso-astm:E1762-95:2013",
              "code": "1.2.840.10065.1.12.1.5"
            }
          ],
          "when": "2023-03-16T11:48:48.851+00:00",
          "who": {
            "reference": "https://erp-test.zentral.erp.splitdns.ti-dienste.de/Device/1"
          },
          "targetFormat": "application/fhir+json",
          "sigFormat": "application/jose",
          "data": ""
        }
      }
    }
  ]
}
