{
  "resourceType": "Bundle",
  "id": "627898a8-b08b-4203-961b-cb28bcd9ddbe",
  "meta": {
    "profile": [
      "https://fhir.gkvsv.de/StructureDefinition/GKVSV_PR_TA7_Sammelrechnung_Bundle|1.0.6"
    ],
    "tag": [
      {
        "display": "Beispiel der TA7/eAbrechnungsdaten."
      },
      {
        "display": "ACHTUNG! Der fachlich korrekte Inhalt der Beispielinstanz kann nicht gewährleistet werden. Wir sind jederzeit dankbar für Hinweise auf Fehler oder für Verbesserungsvorschläge."
      }
    ]
  },
  "identifier": {
    "extension": [
      {
        "url": "https://fhir.gkvsv.de/StructureDefinition/GKVSV_EX_ERP_TA7_Dateinummer",
        "valueString": "00072"
      }
    ],
    "system": "https://fhir.gkvsv.de/NamingSystem/GKVSV_NS_Dateiname",
    "value": "ARZFHR21072"
  },
  "type": "document",
  "timestamp": "2021-08-10T10:00:00+00:00",
  "entry": [
    {
      "fullUrl": "urn:uuid:2ba9cbc7-8581-4f95-8cfc-b29ca51677ac",
      "resource": {
        "resourceType": "Composition",
        "id": "2ba9cbc7-8581-4f95-8cfc-b29ca51677ac",
        "meta": {
          "profile": [
            "https://fhir.gkvsv.de/StructureDefinition/GKVSV_PR_TA7_Sammelrechnung_Composition|1.0.6"
          ]
        },
        "extension": [
          {
            "url": "https://fhir.gkvsv.de/StructureDefinition/GKVSV_EX_TA7_IK_Empfaenger",
            "valueIdentifier": {
              "system": "http://fhir.de/NamingSystem/arge-ik/iknr",
              "value": "104027544"
            }
          },
          {
            "url": "https://fhir.gkvsv.de/StructureDefinition/GKVSV_EX_TA7_IK_Kostentraeger",
            "valueIdentifier": {
              "system": "http://fhir.de/NamingSystem/arge-ik/iknr",
              "value": "108035612"
            }
          }
        ],
        "status": "final",
        "type": {
          "coding": [
            {
              "system": "https://fhir.gkvsv.de/CodeSystem/GKVSV_CS_ERP_TA7",
              "code": "SR",
              "display": "Sammelrechnung"
            }
          ]
        },
        "date": "2021-07-31",
        "author": [
          {
            "identifier": {
              "system": "http://fhir.de/NamingSystem/arge-ik/iknr",
              "value": "308400023"
            }
          }
        ],
        "title": "elektronische Sammelrechnung",
        "section": [
          {
            "code": {
              "coding": [
                {
                  "system": "https://fhir.gkvsv.de/CodeSystem/GKVSV_CS_ERP_TA7",
                  "code": "LSR",
                  "display": "Liste der Sammelrechnungen"
                }
              ]
            },
            "entry": [
              {
                "reference": "urn:uuid:c81143b3-5020-4425-b9d3-a0e4a2c31800"
              }
            ]
          },
          {
            "code": {
              "coding": [
                {
                  "system": "https://fhir.gkvsv.de/CodeSystem/GKVSV_CS_ERP_TA7",
                  "code": "R",
                  "display": "Rechnungen"
                }
              ]
            },
            "entry": [
              {
                "reference": "urn:uuid:11c410b2-e9e7-4760-bf2c-a91b3bc7cb56"
              }
            ]
          }
        ]
      }
    },
    {
      "fullUrl": "urn:uuid:c81143b3-5020-4425-b9d3-a0e4a2c31800",
      "resource": {
        "resourceType": "List",
        "id": "c81143b3-5020-4425-b9d3-a0e4a2c31800",
        "meta": {
          "profile": [
            "https://fhir.gkvsv.de/StructureDefinition/GKVSV_PR_TA7_Sammelrechnung_List|1.0.6"
          ]
        },
        "status": "current",
        "mode": "working",
        "entry": [
          {
            "item": {
              "reference": "Bundle/627898a8-b08b-4203-961b-cb28bcd9ddbe"
            }
          }
        ]
      }
    },
    {
      "fullUrl": "urn:uuid:11c410b2-e9e7-4760-bf2c-a91b3bc7cb56",
      "resource": {
        "resourceType": "Invoice",
        "id": "11c410b2-e9e7-4760-bf2c-a91b3bc7cb56",
        "meta": {
          "profile": [
            "https://fhir.gkvsv.de/StructureDefinition/GKVSV_PR_TA7_Rechnung|1.0.6"
          ]
        },
        "extension": [
          {
            "url": "https://fhir.gkvsv.de/StructureDefinition/GKVSV_EX_ERP_TA7_Abrechnungszeitraum",
            "valueDateTime": "2021-07-31"
          },
          {
            "extension": [
              {
                "url": "lineItem",
                "valueReference": {
                  "reference": "urn:uuid:e7867364-4f4b-4b17-8b23-65798a4ce7de"
                }
              }
            ],
            "url": "https://fhir.gkvsv.de/StructureDefinition/GKVSV_EX_ERP_RezeptBundleReferenz"
          }
        ],
        "identifier": [
          {
            "system": "https://fhir.gkvsv.de/NamingSystem/GKVSV_NS_Sammelrechnungsnummer",
            "value": "108035612-05-100821"
          }
        ],
        "status": "issued",
        "type": {
          "coding": [
            {
              "system": "https://fhir.gkvsv.de/CodeSystem/GKVSV_CS_ERP_Rechnungsart",
              "code": "6"
            }
          ]
        },
        "recipient": {
          "identifier": {
            "system": "http://fhir.de/NamingSystem/arge-ik/iknr",
            "value": "108035612"
          }
        },
        "date": "2021-08-10"
      }
    },
    {
      "fullUrl": "urn:uuid:e7867364-4f4b-4b17-8b23-65798a4ce7de",
      "resource": {
        "resourceType": "Bundle",
        "id": "e7867364-4f4b-4b17-8b23-65798a4ce7de",
        "meta": {
          "profile": [
            "https://fhir.gkvsv.de/StructureDefinition/GKVSV_PR_TA7_RezeptBundle|1.0.6"
          ]
        },
        "type": "collection",
        "entry": [
          {
            "link": [
              {
                "relation": "item",
                "url": "https://fhir.kbv.de/StructureDefinition/KBV_PR_ERP_Bundle"
              }
            ],
            "fullUrl": "urn:uuid:54ac4ca5-ac95-4ddc-932b-aff884e029cf",
            "resource": {
              "resourceType": "Binary",
              "id": "54ac4ca5-ac95-4ddc-932b-aff884e029cf",
              "meta": {
                "profile": [
                  "https://gematik.de/fhir/StructureDefinition/ErxBinary"
                ]
              },
              "contentType": "application/pkcs7-mime",
              "data": "VmVyb3JkbnVuZ3NkYXRlbiBCZWlzcGllbCBFcnN0ZWxsdW5nIEJlaXNwaWVsIGVBYnJlY2hudW5nc2RhdGVu"
            }
          },
          {
            "link": [
              {
                "relation": "item",
                "url": "https://gematik.de/fhir/StructureDefinition/ErxReceipt"
              }
            ],
            "fullUrl": "urn:uuid:7c82f421-223e-45f7-8a00-df035dd3a565",
            "resource": {
              "resourceType": "Bundle",
              "id": "7c82f421-223e-45f7-8a00-df035dd3a565",
              "meta": {
                "profile": [
                  "https://gematik.de/fhir/StructureDefinition/ErxReceipt"
                ]
              },
              "identifier": {
                "system": "https://gematik.de/fhir/NamingSystem/PrescriptionID",
                "value": "160.100.000.000.026.61"
              },
              "type": "document",
              "timestamp": "2021-07-27T09:30:00+00:00",
              "link": [
                {
                  "relation": "self",
                  "url": "https://gematik.erppre.de:443/Task/160.100.000.000.026.61/$close"
                }
              ],
              "entry": [
                {
                  "fullUrl": "urn:uuid:3ead03d4-fdf8-4b3e-9e24-ecd5b4fea7e1",
                  "resource": {
                    "resourceType": "Composition",
                    "id": "3ead03d4-fdf8-4b3e-9e24-ecd5b4fea7e1",
                    "meta": {
                      "profile": [
                        "https://gematik.de/fhir/StructureDefinition/ErxComposition"
                      ]
                    },
                    "extension": [
                      {
                        "url": "https://gematik.de/fhir/StructureDefinition/BeneficiaryExtension",
                        "valueIdentifier": {
                          "system": "https://gematik.de/fhir/NamingSystem/TelematikID",
                          "value": "606358757"
                        }
                      }
                    ],
                    "status": "final",
                    "type": {
                      "coding": [
                        {
                          "system": "https://gematik.de/fhir/CodeSystem/Documenttype",
                          "code": "3",
                          "display": "Receipt"
                        }
                      ]
                    },
                    "date": "2021-07-27T09:30:00Z",
                    "author": [
                      {
                        "reference": "https://gematik.erppre.de:443/Device"
                      }
                    ],
                    "title": "Quittung",
                    "event": [
                      {
                        "period": {
                          "start": "2021-07-27T08:45:00Z",
                          "end": "2021-07-27T09:30:00Z"
                        }
                      }
                    ]
                  }
                },
                {
                  "fullUrl": "https://gematik.erppre.de:443/Device",
                  "resource": {
                    "resourceType": "Device",
                    "id": "1",
                    "meta": {
                      "profile": [
                        "https://gematik.de/fhir/StructureDefinition/ErxDevice"
                      ]
                    },
                    "status": "active",
                    "serialNumber": "0.3.1",
                    "deviceName": [
                      {
                        "name": "E-Rezept Fachdienst",
                        "type": "user-friendly-name"
                      }
                    ],
                    "version": [
                      {
                        "value": "0.3.1"
                      }
                    ],
                    "contact": [
                      {
                        "system": "email",
                        "value": "betrieb@gematik.de"
                      }
                    ]
                  }
                }
              ],
              "signature": {
                "type": [
                  {
                    "system": "urn:iso-astm:E1762-95:2013",
                    "code": "1.2.840.10065.1.12.1.1"
                  }
                ],
                "when": "2021-07-27T09:30:00+00:00",
                "who": {
                  "reference": "https://gematik.erppre.de:443/Device"
                },
                "sigFormat": "application/pkcs7-mime",
                "data": ""
              }
            }
          },
          {
            "link": [
              {
                "relation": "item",
                "url": "http://fhir.abda.de/eRezeptAbgabedaten/StructureDefinition/DAV-PR-ERP-AbgabedatenBundle"
              }
            ],
            "fullUrl": "urn:uuid:7f0be544-b762-47fd-b71e-3b65af0d68cd",
            "resource": {
              "resourceType": "Binary",
              "id": "7f0be544-b762-47fd-b71e-3b65af0d68cd",
              "meta": {
                "profile": [
                  "https://gematik.de/fhir/StructureDefinition/ErxBinary"
                ]
              },
              "contentType": "application/pkcs7-mime",
              "data": "ZUFiZ2FiZWRhdGVuIEJlaXNwaWVsIEVyc3RlbGx1bmcgQmVpc3BpZWwgZUFicmVjaG51bmdzZGF0ZW4="
            }
          },
          {
            "link": [
              {
                "relation": "item",
                "url": "https://fhir.gkvsv.de/StructureDefinition/GKVSV_PR_ERP_eAbrechnungsdaten"
              }
            ],
            "fullUrl": "urn:uuid:d467f424-e0db-4b14-93e9-d044c50e2d5e",
            "resource": {
              "resourceType": "Invoice",
              "id": "d467f424-e0db-4b14-93e9-d044c50e2d5e",
              "meta": {
                "profile": [
                  "https://fhir.gkvsv.de/StructureDefinition/GKVSV_PR_ERP_eAbrechnungsdaten|1.0.6"
                ]
              },
              "extension": [
                {
                  "url": "https://fhir.gkvsv.de/StructureDefinition/GKVSV_EX_ERP_Irrlaeufer",
                  "valueBoolean": false
                },
                {
                  "extension": [
                    {
                      "url": "zaehlerHerstellung",
                      "valuePositiveInt": 2
                    },
                    {
                      "extension": [
                        {
                          "url": "zaehlerEinheit",
                          "valuePositiveInt": 1
                        },
                        {
                          "extension": [
                            {
                              "url": "zaehlerAbrechnungsposition",
                              "valuePositiveInt": 2
                            },
                            {
                              "url": "verwurf_geprueft",
                              "valueCodeableConcept": {
                                "coding": [
                                  {
                                    "system": "https://fhir.gkvsv.de/CodeSystem/GKVSV_CS_ERP_Verwurf",
                                    "code": "2"
                                  }
                                ]
                              }
                            },
                            {
                              "extension": [
                                {
                                  "url": "zuAbschlagCode",
                                  "valueCodeableConcept": {
                                    "coding": [
                                      {
                                        "system": "https://fhir.gkvsv.de/CodeSystem/GKVSV_CS_ERP_ZuAbschlagKey",
                                        "code": "R004"
                                      }
                                    ]
                                  }
                                },
                                {
                                  "url": "zuAbschlagKennzeichen",
                                  "valueCode": "deduction"
                                },
                                {
                                  "url": "zuAbschlagBetrag",
                                  "valueMoney": {
                                    "value": -69.07,
                                    "currency": "EUR"
                                  }
                                }
                              ],
                              "url": "zuAbschlaegeZusatzdaten"
                            }
                          ],
                          "url": "abrechnungsposition"
                        }
                      ],
                      "url": "einheit"
                    }
                  ],
                  "url": "http://fhir.gkvsv.de/StructureDefinition/GKVSV_EX_ERP_ZusatzdatenHerstellung"
                }
              ],
              "identifier": [
                {
                  "system": "https://gematik.de/fhir/NamingSystem/PrescriptionID",
                  "value": "160.100.000.000.026.61"
                },
                {
                  "system": "https://fhir.gkvsv.de/NamingSystem/GKVSV_NS_Belegnummer",
                  "value": "2105000000713456789"
                }
              ],
              "status": "issued",
              "issuer": {
                "extension": [
                  {
                    "url": "https://fhir.gkvsv.de/StructureDefinition/GKVSV_EX_ERP_LE_Sitz",
                    "valueCoding": {
                      "system": "https://fhir.gkvsv.de/CodeSystem/GKVSV_CS_ERP_Leistungserbringer_Sitz",
                      "code": "1"
                    }
                  }
                ],
                "identifier": {
                  "type": {
                    "coding": [
                      {
                        "system": "https://fhir.gkvsv.de/CodeSystem/GKVSV_CS_ERP_Leistungserbringertyp",
                        "code": "A"
                      }
                    ]
                  },
                  "system": "http://fhir.de/NamingSystem/arge-ik/iknr",
                  "value": "987654321"
                }
              },
              "lineItem": [
                {
                  "extension": [
                    {
                      "url": "https://fhir.gkvsv.de/StructureDefinition/GKVSV_EX_ERP_Positionstyp",
                      "valueCodeableConcept": {
                        "coding": [
                          {
                            "system": "https://fhir.gkvsv.de/CodeSystem/GKVSV_CS_ERP_Positionstyp",
                            "code": "1",
                            "display": "übrige Position"
                          }
                        ]
                      }
                    },
                    {
                      "url": "https://fhir.gkvsv.de/StructureDefinition/GKVSV_EX_ERP_VAT_VALUE",
                      "valueMoney": {
                        "value": 57.01,
                        "currency": "EUR"
                      }
                    },
                    {
                      "url": "https://fhir.gkvsv.de/StructureDefinition/GKVSV_EX_ERP_Import",
                      "valueCodeableConcept": {
                        "coding": [
                          {
                            "system": "https://fhir.gkvsv.de/CodeSystem/GKVSV_CS_ERP_Import",
                            "code": "0"
                          }
                        ]
                      }
                    }
                  ],
                  "sequence": 1,
                  "chargeItemCodeableConcept": {
                    "coding": [
                      {
                        "system": "http://terminology.hl7.org/CodeSystem/v3-NullFlavor",
                        "code": "UNC"
                      }
                    ]
                  },
                  "priceComponent": [
                    {
                      "type": "deduction",
                      "code": {
                        "coding": [
                          {
                            "system": "https://fhir.gkvsv.de/CodeSystem/GKVSV_CS_ERP_ZuAbschlagKey",
                            "code": "R001"
                          }
                        ]
                      },
                      "amount": {
                        "value": -1.77,
                        "currency": "EUR"
                      }
                    }
                  ]
                }
              ]
            }
          }
        ]
      }
    }
  ]
}