<Bundle xmlns="http://hl7.org/fhir">
   <id value="a0dc774a-0e00-0000-0003-000000000000"/>
   <meta>
      <profile value="https://gematik.de/fhir/erp/StructureDefinition/GEM_ERP_PR_Bundle|1.4"/>
   </meta>
   <identifier>
      <system value="https://gematik.de/fhir/erp/NamingSystem/GEM_ERP_NS_PrescriptionId"/>
      <value value="160.000.239.761.372.41"/>
   </identifier>
   <type value="document"/>
   <timestamp value="2025-03-28T08:03:39.519+00:00"/>
   <link>
      <relation value="self"/>
      <url value="https://erp-ref.zentral.erp.splitdns.ti-dienste.de/Task/160.000.239.761.372.41/$close/"/>
   </link>
   <entry>
      <fullUrl value="urn:uuid:1461e1f4-3e63-45bd-b2a0-8a20e334b5e7"/>
      <resource>
         <Composition xmlns="http://hl7.org/fhir">
            <id value="1461e1f4-3e63-45bd-b2a0-8a20e334b5e7"/>
            <meta>
               <profile value="https://gematik.de/fhir/erp/StructureDefinition/GEM_ERP_PR_Composition|1.4"/>
            </meta>
            <extension url="https://gematik.de/fhir/erp/StructureDefinition/GEM_ERP_EX_Beneficiary">
               <valueIdentifier>
                  <system value="https://gematik.de/fhir/sid/telematik-id"/>
                  <value value="3-SMC-B-Testkarte--883110000163973"/>
               </valueIdentifier>
            </extension>
            <status value="final"/>
            <type>
               <coding>
                  <system value="https://gematik.de/fhir/erp/CodeSystem/GEM_ERP_CS_DocumentType"/>
                  <code value="3"/>
                  <display value="Receipt"/>
               </coding>
            </type>
            <date value="2025-03-28T08:03:39.510+00:00"/>
            <author>
               <reference value="urn:uuid:6b4a3f1c-8eb1-4cb3-88f2-b7b89802f47b"/>
            </author>
            <title value="Quittung"/>
            <event>
               <period>
                  <start value="2025-03-28T08:03:39.250+00:00"/>
                  <end value="2025-03-28T08:03:39.510+00:00"/>
               </period>
            </event>
            <section>
               <entry>
                  <reference value="urn:uuid:518cc145-f700-4dd9-9ed2-52315ca8de30"/>
               </entry>
            </section>
         </Composition>
      </resource>
   </entry>
   <entry>
      <fullUrl value="urn:uuid:6b4a3f1c-8eb1-4cb3-88f2-b7b89802f47b"/>
      <resource>
         <Device xmlns="http://hl7.org/fhir">
            <id value="1"/>
            <meta>
               <profile value="https://gematik.de/fhir/erp/StructureDefinition/GEM_ERP_PR_Device|1.4"/>
            </meta>
            <status value="active"/>
            <serialNumber value="1.17.0"/>
            <deviceName>
               <name value="E-Rezept Fachdienst"/>
               <type value="user-friendly-name"/>
            </deviceName>
            <version>
               <value value="1.17.0"/>
            </version>
            <contact>
               <system value="email"/>
               <value value="betrieb@gematik.de"/>
            </contact>
         </Device>
      </resource>
   </entry>
   <entry>
      <fullUrl value="urn:uuid:518cc145-f700-4dd9-9ed2-52315ca8de30"/>
      <resource>
         <Binary xmlns="http://hl7.org/fhir">
            <id value="518cc145-f700-4dd9-9ed2-52315ca8de30"/>
            <meta>
               <versionId value="1"/>
               <profile value="https://gematik.de/fhir/erp/StructureDefinition/GEM_ERP_PR_Digest|1.4"/>
            </meta>
            <contentType value="application/octet-stream"/>
            <data value="of70BXlsAnigQYJcsw6bg6xx/aOQgXNMs2xUvnSOXRg="/>
         </Binary>
      </resource>
   </entry>
   <signature>
      <type>
         <system value="urn:iso-astm:E1762-95:2013"/>
         <code value="1.2.840.10065.1.12.1.1"/>
      </type>
      <when value="2025-03-28T08:03:39.521+00:00"/>
      <who>
         <reference value="urn:uuid:6b4a3f1c-8eb1-4cb3-88f2-b7b89802f47b"/>
      </who>
      <sigFormat value="application/pkcs7-mime"/>
      <data value=""/>
   </signature>
</Bundle>