{
  "resourceType": "Bundle",
  "id": "edd55212-965f-4018-a287-6b08e7f5c53c",
  "meta": {
    "profile": [
      "http://fhir.abda.de/eRezeptAbgabedaten/StructureDefinition/DAV-PR-ERP-AbgabedatenBundle|1.3"
    ],
    "tag": [
      {
        "display": "Beispiel für Abgabedaten für ein Fertigarzneimittel mit Abweichung vom Rabattvertrag, Belieferung im Notdienst, Rezeptaenderung"
      },
      {
        "display": "ACHTUNG! Der fachlich korrekte Inhalt der Beispielinstanz kann nicht gewährleistet werden. Wir sind jederzeit dankbar für Hinweise auf Fehler oder für Verbesserungsvorschläge."
      }
    ]
  },
  "type": "document",
  "identifier": {
    "system": "https://gematik.de/fhir/erp/NamingSystem/GEM_ERP_NS_PrescriptionId",
    "value": "160.123.456.789.123.58"
  },
  "timestamp": "2021-01-20T23:30:00Z",
  "entry": [
    {
      "resource": {
        "resourceType": "Composition",
        "id": "f50ef9ae-1819-414b-8406-3b7d376221cd",
        "meta": {
          "profile": [
            "http://fhir.abda.de/eRezeptAbgabedaten/StructureDefinition/DAV-PR-ERP-AbgabedatenComposition|1.3"
          ]
        },
        "status": "final",
        "type": {
          "coding": [
            {
              "system": "http://fhir.abda.de/eRezeptAbgabedaten/CodeSystem/DAV-CS-ERP-CompositionTypes",
              "code": "ERezeptAbgabedaten"
            }
          ]
        },
        "title": "ERezeptAbgabedaten",
        "section": [
          {
            "title": "Abgabeinformationen",
            "entry": [
              {
                "reference": "urn:uuid:b3216147-6fea-4d32-91c2-097bd4e4bed8"
              }
            ]
          },
          {
            "title": "Apotheke",
            "entry": [
              {
                "reference": "urn:uuid:82daeab4-f0c8-41e8-b7c6-0a4af8871341"
              }
            ]
          }
        ],
        "date": "2021-01-20T23:30:00Z",
        "author": [
          {
            "reference": "urn:uuid:82daeab4-f0c8-41e8-b7c6-0a4af8871341"
          }
        ]
      },
      "fullUrl": "urn:uuid:f50ef9ae-1819-414b-8406-3b7d376221cd"
    },
    {
      "resource": {
        "resourceType": "Organization",
        "id": "82daeab4-f0c8-41e8-b7c6-0a4af8871341",
        "meta": {
          "profile": [
            "http://fhir.abda.de/eRezeptAbgabedaten/StructureDefinition/DAV-PR-ERP-Apotheke|1.3"
          ]
        },
        "identifier": [
          {
            "system": "http://fhir.de/sid/arge-ik/iknr",
            "value": "123456789"
          }
        ],
        "address": [
          {
            "type": "physical",
            "line": [
              "Taunusstraße 89"
            ],
            "_line": [
              {
                "extension": [
                  {
                    "url": "http://hl7.org/fhir/StructureDefinition/iso21090-ADXP-streetName",
                    "valueString": "Taunusstraße"
                  },
                  {
                    "url": "http://hl7.org/fhir/StructureDefinition/iso21090-ADXP-houseNumber",
                    "valueString": "89"
                  }
                ]
              }
            ],
            "city": "Langen",
            "postalCode": "63225",
            "country": "D"
          }
        ],
        "name": "Adler-Apotheke"
      },
      "fullUrl": "urn:uuid:82daeab4-f0c8-41e8-b7c6-0a4af8871341"
    },
    {
      "resource": {
        "resourceType": "MedicationDispense",
        "id": "b3216147-6fea-4d32-91c2-097bd4e4bed8",
        "meta": {
          "profile": [
            "http://fhir.abda.de/eRezeptAbgabedaten/StructureDefinition/DAV-PR-ERP-Abgabeinformationen|1.3"
          ]
        },
        "status": "completed",
        "type": {
          "coding": [
            {
              "system": "http://fhir.abda.de/eRezeptAbgabedaten/CodeSystem/DAV-CS-ERP-MedicationDispenseTyp",
              "code": "Abgabeinformationen"
            }
          ]
        },
        "extension": [
          {
            "url": "http://fhir.abda.de/eRezeptAbgabedaten/StructureDefinition/DAV-EX-ERP-Abrechnungszeilen",
            "valueReference": {
              "reference": "urn:uuid:1195c68c-a71b-4bcf-b870-fb2dacdcfb68"
            }
          }
        ],
        "authorizingPrescription": [
          {
            "identifier": {
              "system": "https://gematik.de/fhir/erp/NamingSystem/GEM_ERP_NS_PrescriptionId",
              "value": "160.123.456.789.123.58"
            }
          }
        ],
        "substitution": {
          "extension": [
            {
              "extension": [
                {
                  "url": "ArtRezeptaenderung",
                  "valueCodeableConcept": {
                    "coding": [
                      {
                        "code": "5",
                        "system": "http://fhir.abda.de/eRezeptAbgabedaten/CodeSystem/DAV-CS-ERP-ArtRezeptaenderung"
                      }
                    ]
                  }
                },
                {
                  "url": "RueckspracheArzt",
                  "valueCodeableConcept": {
                    "coding": [
                      {
                        "code": "2",
                        "system": "http://fhir.abda.de/eRezeptAbgabedaten/CodeSystem/DAV-CS-ERP-RueckspracheArzt"
                      }
                    ]
                  }
                }
              ],
              "url": "http://fhir.abda.de/eRezeptAbgabedaten/StructureDefinition/DAV-EX-ERP-Rezeptaenderung"
            }
          ],
          "wasSubstituted": true
        },
        "medicationCodeableConcept": {
          "coding": [
            {
              "code": "not-applicable",
              "system": "http://terminology.hl7.org/CodeSystem/data-absent-reason"
            }
          ]
        },
        "performer": [
          {
            "actor": {
              "reference": "urn:uuid:82daeab4-f0c8-41e8-b7c6-0a4af8871341"
            }
          }
        ],
        "whenHandedOver": "2021-01-20"
      },
      "fullUrl": "urn:uuid:b3216147-6fea-4d32-91c2-097bd4e4bed8"
    },
    {
      "resource": {
        "resourceType": "Invoice",
        "id": "1195c68c-a71b-4bcf-b870-fb2dacdcfb68",
        "meta": {
          "profile": [
            "http://fhir.abda.de/eRezeptAbgabedaten/StructureDefinition/DAV-PR-ERP-Abrechnungszeilen|1.3"
          ]
        },
        "status": "issued",
        "type": {
          "coding": [
            {
              "system": "http://fhir.abda.de/eRezeptAbgabedaten/CodeSystem/DAV-CS-ERP-InvoiceTyp",
              "code": "Abrechnungszeilen"
            }
          ]
        },
        "lineItem": [
          {
            "priceComponent": [
              {
                "type": "informational",
                "extension": [
                  {
                    "url": "http://fhir.abda.de/eRezeptAbgabedaten/StructureDefinition/DAV-EX-ERP-MwStSatz",
                    "valueDecimal": 19.0
                  },
                  {
                    "url": "http://fhir.abda.de/eRezeptAbgabedaten/StructureDefinition/DAV-EX-ERP-KostenVersicherter",
                    "extension": [
                      {
                        "url": "Kategorie",
                        "valueCodeableConcept": {
                          "coding": [
                            {
                              "code": "0",
                              "system": "http://fhir.abda.de/eRezeptAbgabedaten/CodeSystem/DAV-CS-ERP-KostenVersicherterKategorie"
                            }
                          ]
                        }
                      },
                      {
                        "url": "Kostenbetrag",
                        "valueMoney": {
                          "currency": "EUR",
                          "value": 5.0
                        }
                      }
                    ]
                  }
                ],
                "amount": {
                  "currency": "EUR",
                  "value": 12.59
                },
                "factor": 1
              }
            ],
            "extension": [
              {
                "extension": [
                  {
                    "extension": [
                      {
                        "extension": [
                          {
                            "url": "Schluessel",
                            "valueCodeableConcept": {
                              "coding": [
                                {
                                  "code": "1",
                                  "system": "http://fhir.abda.de/eRezeptAbgabedaten/CodeSystem/DAV-CS-ERP-ZusatzattributFAMSchluesselMarkt"
                                }
                              ]
                            }
                          },
                          {
                            "url": "Gruppe",
                            "valueCodeableConcept": {
                              "coding": [
                                {
                                  "system": "http://fhir.abda.de/eRezeptAbgabedaten/CodeSystem/DAV-CS-ERP-ZusatzattributGruppe",
                                  "code": "1"
                                }
                              ]
                            }
                          }
                        ],
                        "url": "Markt"
                      },
                      {
                        "url": "Rabattvertragserfuellung",
                        "extension": [
                          {
                            "url": "Gruppe",
                            "valueCodeableConcept": {
                              "coding": [
                                {
                                  "system": "http://fhir.abda.de/eRezeptAbgabedaten/CodeSystem/DAV-CS-ERP-ZusatzattributGruppe",
                                  "code": "2"
                                }
                              ]
                            }
                          },
                          {
                            "url": "Schluessel",
                            "valueCodeableConcept": {
                              "coding": [
                                {
                                  "code": "3",
                                  "system": "http://fhir.abda.de/eRezeptAbgabedaten/CodeSystem/DAV-CS-ERP-ZusatzattributFAMSchluesselAbgaberangfolge"
                                }
                              ]
                            }
                          }
                        ]
                      },
                      {
                        "url": "PreisguenstigesFAM",
                        "extension": [
                          {
                            "url": "Gruppe",
                            "valueCodeableConcept": {
                              "coding": [
                                {
                                  "system": "http://fhir.abda.de/eRezeptAbgabedaten/CodeSystem/DAV-CS-ERP-ZusatzattributGruppe",
                                  "code": "3"
                                }
                              ]
                            }
                          },
                          {
                            "url": "Schluessel",
                            "valueCodeableConcept": {
                              "coding": [
                                {
                                  "code": "1",
                                  "system": "http://fhir.abda.de/eRezeptAbgabedaten/CodeSystem/DAV-CS-ERP-ZusatzattributFAMSchluesselAbgaberangfolge"
                                }
                              ]
                            }
                          }
                        ]
                      },
                      {
                        "url": "ImportFAM",
                        "extension": [
                          {
                            "url": "Gruppe",
                            "valueCodeableConcept": {
                              "coding": [
                                {
                                  "system": "http://fhir.abda.de/eRezeptAbgabedaten/CodeSystem/DAV-CS-ERP-ZusatzattributGruppe",
                                  "code": "4"
                                }
                              ]
                            }
                          },
                          {
                            "url": "Schluessel",
                            "valueCodeableConcept": {
                              "coding": [
                                {
                                  "code": "0",
                                  "system": "http://fhir.abda.de/eRezeptAbgabedaten/CodeSystem/DAV-CS-ERP-ZusatzattributFAMSchluesselImportFAM"
                                }
                              ]
                            }
                          }
                        ]
                      }
                    ],
                    "url": "ZusatzattributFAM"
                  }
                ],
                "url": "http://fhir.abda.de/eRezeptAbgabedaten/StructureDefinition/DAV-EX-ERP-Zusatzattribute"
              },
              {
                "url": "http://fhir.abda.de/eRezeptAbgabedaten/StructureDefinition/DAV-EX-ERP-Chargenbezeichnung",
                "valueString": "A987654321-1"
              }
            ],
            "sequence": 1,
            "chargeItemCodeableConcept": {
              "coding": [
                {
                  "code": "01675496",
                  "system": "http://fhir.de/CodeSystem/ifa/pzn"
                }
              ]
            }
          },
          {
            "extension": [
              {
                "extension": [
                  {
                    "extension": [
                      {
                        "url": "DatumUhrzeit",
                        "valueDateTime": "2021-01-20T23:15:00.0Z"
                      },
                      {
                        "url": "Gruppe",
                        "valueCodeableConcept": {
                          "coding": [
                            {
                              "system": "http://fhir.abda.de/eRezeptAbgabedaten/CodeSystem/DAV-CS-ERP-ZusatzattributGruppe",
                              "code": "11"
                            }
                          ]
                        }
                      },
                      {
                        "url": "Schluessel",
                        "valueBoolean": true
                      }
                    ],
                    "url": "ZusatzattributAbgabeNoctu"
                  }
                ],
                "url": "http://fhir.abda.de/eRezeptAbgabedaten/StructureDefinition/DAV-EX-ERP-Zusatzattribute"
              }
            ],
            "priceComponent": [
              {
                "type": "informational",
                "extension": [
                  {
                    "url": "http://fhir.abda.de/eRezeptAbgabedaten/StructureDefinition/DAV-EX-ERP-MwStSatz",
                    "valueDecimal": 19.0
                  },
                  {
                    "url": "http://fhir.abda.de/eRezeptAbgabedaten/StructureDefinition/DAV-EX-ERP-KostenVersicherter",
                    "extension": [
                      {
                        "url": "Kategorie",
                        "valueCodeableConcept": {
                          "coding": [
                            {
                              "code": "0",
                              "system": "http://fhir.abda.de/eRezeptAbgabedaten/CodeSystem/DAV-CS-ERP-KostenVersicherterKategorie"
                            }
                          ]
                        }
                      },
                      {
                        "url": "Kostenbetrag",
                        "valueMoney": {
                          "currency": "EUR",
                          "value": 0.0
                        }
                      }
                    ]
                  }
                ],
                "amount": {
                  "currency": "EUR",
                  "value": 2.5
                },
                "factor": 1
              }
            ],
            "sequence": 2,
            "chargeItemCodeableConcept": {
              "coding": [
                {
                  "code": "02567018",
                  "system": "http://fhir.de/CodeSystem/ifa/pzn"
                }
              ]
            }
          }
        ],
        "totalGross": {
          "currency": "EUR",
          "extension": [
            {
              "url": "http://fhir.abda.de/eRezeptAbgabedaten/StructureDefinition/DAV-EX-ERP-Gesamtzuzahlung",
              "valueMoney": {
                "currency": "EUR",
                "value": 5.0
              }
            }
          ],
          "value": 15.09
        }
      },
      "fullUrl": "urn:uuid:1195c68c-a71b-4bcf-b870-fb2dacdcfb68"
    }
  ]
}