<Bundle xmlns="http://hl7.org/fhir">
    <id value="erp-bereitstellen-02-Prescription-Bundle"/>
    <meta>
        <lastUpdated value="2025-01-15T15:29:00.434+00:00"/>
        <profile value="https://fhir.kbv.de/StructureDefinition/KBV_PR_ERP_Bundle|1.1.0"/>
    </meta>
    <identifier>
        <system value="https://gematik.de/fhir/erp/NamingSystem/GEM_ERP_NS_PrescriptionId"/>
        <value value="160.000.000.000.000.01"/>
    </identifier>
    <type value="document"/>
    <timestamp value="2025-01-15T15:29:00.434+00:00"/>
    <entry>
        <fullUrl value="http://pvs.praxis-topp-gluecklich.local/fhir/Composition/b0e22b86-e7e9-46c1-80fe-e6e24442d77c"/>
        <resource>
            <Composition>
                <id value="b0e22b86-e7e9-46c1-80fe-e6e24442d77c"/>
                <meta>
                    <profile value="https://fhir.kbv.de/StructureDefinition/KBV_PR_ERP_Composition|1.1.0"/>
                </meta>
                <extension url="https://fhir.kbv.de/StructureDefinition/KBV_EX_FOR_Legal_basis">
                    <valueCoding>
                        <system value="https://fhir.kbv.de/CodeSystem/KBV_CS_SFHIR_KBV_STATUSKENNZEICHEN"/>
                        <code value="00"/>
                    </valueCoding>
                </extension>
                <status value="final"/>
                <type>
                    <coding>
                        <system value="https://fhir.kbv.de/CodeSystem/KBV_CS_SFHIR_KBV_FORMULAR_ART"/>
                        <code value="e16A"/>
                    </coding>
                </type>
                <subject>
                    <reference value="Patient/9774f67f-a238-4daf-b4e6-Pat-GKV"/>
                </subject>
                <date value="2025-01-15T15:29:00.434+00:00"/>
                <author>
                    <reference value="Practitioner/d8463daf-258e-4cad-a86a-6fd42fac161c"/>
                    <type value="Practitioner"/>
                </author>
                <author>
                    <type value="Device"/>
                    <identifier>
                        <system value="https://fhir.kbv.de/NamingSystem/KBV_NS_FOR_Pruefnummer"/>
                        <value value="Y/400/1910/36/346"/>
                    </identifier>
                </author>
                <title value="elektronische Arzneimittelverordnung"/>
                <attester>
                    <mode value="legal"/>
                    <party>
                        <reference value="Practitioner/20597e0e-cb2a-45b3-95f0-dc3dbdb617c3"/>
                    </party>
                </attester>
                <custodian>
                    <reference value="Organization/cf042e44-086a-4d51-9c77-172f9a972e3b"/>
                </custodian>
                <section>
                    <code>
                        <coding>
                            <system value="https://fhir.kbv.de/CodeSystem/KBV_CS_ERP_Section_Type"/>
                            <code value="Prescription"/>
                        </coding>
                    </code>
                    <entry>
                        <reference value="MedicationRequest/f58f4403-7a3a-4a12-bb15-b2fa25b02561"/>
                    </entry>
                </section>
                <section>
                    <code>
                        <coding>
                            <system value="https://fhir.kbv.de/CodeSystem/KBV_CS_ERP_Section_Type"/>
                            <code value="Coverage"/>
                        </coding>
                    </code>
                    <entry>
                        <reference value="Coverage/1b1ffb6e-eb05-43d7-87eb-Cov-GKV"/>
                    </entry>
                </section>
            </Composition>
        </resource>
    </entry>
    <entry>
        <fullUrl value="http://pvs.praxis-topp-gluecklich.local/fhir/MedicationRequest/f58f4403-7a3a-4a12-bb15-b2fa25b02561"/>
        <resource>
            <MedicationRequest>
                <id value="f58f4403-7a3a-4a12-bb15-b2fa25b02561"/>
                <meta>
                    <profile value="https://fhir.kbv.de/StructureDefinition/KBV_PR_ERP_Prescription|1.1.0"/>
                </meta>
                <extension url="https://fhir.kbv.de/StructureDefinition/KBV_EX_ERP_EmergencyServicesFee">
                    <valueBoolean value="false"/>
                </extension>
                <extension url="https://fhir.kbv.de/StructureDefinition/KBV_EX_ERP_BVG">
                    <valueBoolean value="false"/>
                </extension>
                <extension url="https://fhir.kbv.de/StructureDefinition/KBV_EX_ERP_Multiple_Prescription">
                    <extension url="Kennzeichen">
                        <valueBoolean value="true"/>
                    </extension>
                    <extension url="Nummerierung">
                        <valueRatio>
                            <numerator>
                                <value value="2"/>
                            </numerator>
                            <denominator>
                                <value value="4"/>
                            </denominator>
                        </valueRatio>
                    </extension>
                    <extension url="Zeitraum">
                        <valuePeriod>
                            <start value="2025-01-15"/>
                            <end value="2025-02-14"/>
                        </valuePeriod>
                    </extension>
                    <extension url="ID">
                        <valueIdentifier>
                            <system value="urn:ietf:rfc:3986"/>
                            <value value="urn:uuid:24e2e10d-e962-4d1c-be4f-8760e690a5f0"/>
                        </valueIdentifier>
                    </extension>
                </extension>
                <extension url="https://fhir.kbv.de/StructureDefinition/KBV_EX_FOR_StatusCoPayment">
                    <valueCoding>
                        <system value="https://fhir.kbv.de/CodeSystem/KBV_CS_FOR_StatusCoPayment"/>
                        <code value="0"/>
                    </valueCoding>
                </extension>
                <extension url="https://fhir.kbv.de/StructureDefinition/KBV_EX_FOR_Accident">
                    <extension url="Unfallkennzeichen">
                        <valueCoding>
                            <system value="https://fhir.kbv.de/CodeSystem/KBV_CS_FOR_Ursache_Type"/>
                            <code value="1"/>
                        </valueCoding>
                    </extension>
                    <extension url="Unfalltag">
                        <valueDate value="2025-01-15"/>
                    </extension>
                </extension>
                <status value="active"/>
                <intent value="order"/>
                <medicationReference>
                    <reference value="Medication/e3a4efa7-84fc-465b-b14c-720195097783"/>
                </medicationReference>
                <subject>
                    <reference value="Patient/9774f67f-a238-4daf-b4e6-Pat-GKV"/>
                </subject>
                <authoredOn value="2025-01-15"/>
                <requester>
                    <reference value="Practitioner/d8463daf-258e-4cad-a86a-6fd42fac161c"/>
                </requester>
                <insurance>
                    <reference value="Coverage/1b1ffb6e-eb05-43d7-87eb-Cov-GKV"/>
                </insurance>
                <note>
                    <text value="Dummy-Hinweis für die Apotheke"/>
                </note>
                <dosageInstruction>
                    <extension url="https://fhir.kbv.de/StructureDefinition/KBV_EX_ERP_DosageFlag">
                        <valueBoolean value="false"/>
                    </extension>
                </dosageInstruction>
                <dispenseRequest>
                    <quantity>
                        <value value="2"/>
                        <system value="http://unitsofmeasure.org"/>
                        <code value="{Package}"/>
                    </quantity>
                </dispenseRequest>
            </MedicationRequest>
        </resource>
    </entry>
    <entry>
        <fullUrl value="http://pvs.praxis-topp-gluecklich.local/fhir/Medication/e3a4efa7-84fc-465b-b14c-720195097783"/>
        <resource>
            <Medication>
                <id value="e3a4efa7-84fc-465b-b14c-720195097783"/>
                <meta>
                    <profile value="https://fhir.kbv.de/StructureDefinition/KBV_PR_ERP_Medication_Ingredient|1.1.0"/>
                </meta>
                <extension url="https://fhir.kbv.de/StructureDefinition/KBV_EX_ERP_Medication_Category">
                    <valueCoding>
                        <system value="https://fhir.kbv.de/CodeSystem/KBV_CS_ERP_Medication_Category"/>
                        <code value="00"/>
                    </valueCoding>
                </extension>
                <extension url="https://fhir.kbv.de/StructureDefinition/KBV_EX_ERP_Medication_Vaccine">
                    <valueBoolean value="false"/>
                </extension>
                <code>
                    <coding>
                        <system value="https://fhir.kbv.de/CodeSystem/KBV_CS_ERP_Medication_Type"/>
                        <code value="wirkstoff"/>
                    </coding>
                </code>
                <form>
                    <text value="Tabletten"/>
                </form>
                <amount>
                    <numerator>
                        <extension url="https://fhir.kbv.de/StructureDefinition/KBV_EX_ERP_Medication_PackagingSize">
                            <valueString value="2x20"/>
                        </extension>
                        <unit value="Stk"/>
                    </numerator>
                    <denominator>
                        <value value="1"/>
                    </denominator>
                </amount>
                <ingredient>
                    <itemCodeableConcept>
                        <coding>
                            <system value="http://fhir.de/CodeSystem/ask"/>
                            <code value="Dummy-ASK"/>
                        </coding>
                        <text value="Ibuprofen"/>
                    </itemCodeableConcept>
                    <strength>
                        <numerator>
                            <value value="800"/>
                            <unit value="mg"/>
                        </numerator>
                        <denominator>
                            <value value="1"/>
                        </denominator>
                    </strength>
                </ingredient>
            </Medication>
        </resource>
    </entry>
    <entry>
        <fullUrl value="http://pvs.praxis-topp-gluecklich.local/fhir/Patient/9774f67f-a238-4daf-b4e6-Pat-GKV"/>
        <resource>
            <Patient>
                <id value="9774f67f-a238-4daf-b4e6-Pat-GKV"/>
                <meta>
                    <profile value="https://fhir.kbv.de/StructureDefinition/KBV_PR_FOR_Patient|1.1.0"/>
                </meta>
                <identifier>
                    <type>
                        <coding>
                            <system value="http://fhir.de/CodeSystem/identifier-type-de-basis"/>
                            <code value="GKV"/>
                        </coding>
                    </type>
                    <system value="http://fhir.de/sid/gkv/kvid-10"/>
                    <value value="X234567890"/>
                </identifier>
                <name>
                    <use value="official"/>
                    <family value="Ludger Königsstein">
                        <extension url="http://hl7.org/fhir/StructureDefinition/humanname-own-name">
                            <valueString value="Königsstein"/>
                        </extension>
                    </family>
                    <given value="Ludger"/>
                </name>
                <birthDate value="1935-06-22"/>
                <address>
                    <type value="both"/>
                    <line value="Musterstr. 1">
                        <extension url="http://hl7.org/fhir/StructureDefinition/iso21090-ADXP-houseNumber">
                            <valueString value="1"/>
                        </extension>
                        <extension url="http://hl7.org/fhir/StructureDefinition/iso21090-ADXP-streetName">
                            <valueString value="Musterstr."/>
                        </extension>
                    </line>
                    <city value="Berlin"/>
                    <postalCode value="10623"/>
                </address>
            </Patient>
        </resource>
    </entry>
    <entry>
        <fullUrl value="http://pvs.praxis-topp-gluecklich.local/fhir/Practitioner/20597e0e-cb2a-45b3-95f0-dc3dbdb617c3"/>
        <resource>
            <Practitioner>
                <id value="20597e0e-cb2a-45b3-95f0-dc3dbdb617c3"/>
                <meta>
                    <profile value="https://fhir.kbv.de/StructureDefinition/KBV_PR_FOR_Practitioner|1.1.0"/>
                </meta>
                <identifier>
                    <type>
                        <coding>
                            <system value="http://terminology.hl7.org/CodeSystem/v2-0203"/>
                            <code value="LANR"/>
                        </coding>
                    </type>
                    <system value="https://fhir.kbv.de/NamingSystem/KBV_NS_Base_ANR"/>
                    <value value="838382202"/>
                </identifier>
                <name>
                    <use value="official"/>
                    <family value="Topp-Glücklich">
                        <extension url="http://hl7.org/fhir/StructureDefinition/humanname-own-name">
                            <valueString value="Topp-Glücklich"/>
                        </extension>
                    </family>
                    <given value="Hans"/>
                    <prefix value="Dr. med.">
                        <extension url="http://hl7.org/fhir/StructureDefinition/iso21090-EN-qualifier">
                            <valueCode value="AC"/>
                        </extension>
                    </prefix>
                </name>
                <qualification>
                    <code>
                        <coding>
                            <system value="https://fhir.kbv.de/CodeSystem/KBV_CS_FOR_Qualification_Type"/>
                            <code value="00"/>
                        </coding>
                    </code>
                </qualification>
                <qualification>
                    <code>
                        <coding>
                            <system value="https://fhir.kbv.de/CodeSystem/KBV_CS_FOR_Berufsbezeichnung"/>
                            <code value="Berufsbezeichnung"/>
                        </coding>
                        <text value="FA Biochemie"/>
                    </code>
                </qualification>
            </Practitioner>
        </resource>
    </entry>
    <entry>
        <fullUrl value="http://pvs.praxis-topp-gluecklich.local/fhir/Practitioner/d8463daf-258e-4cad-a86a-6fd42fac161c"/>
        <resource>
            <Practitioner>
                <id value="d8463daf-258e-4cad-a86a-6fd42fac161c"/>
                <meta>
                    <profile value="https://fhir.kbv.de/StructureDefinition/KBV_PR_FOR_Practitioner|1.1.0"/>
                </meta>
                <identifier>
                    <type>
                        <coding>
                            <system value="http://terminology.hl7.org/CodeSystem/v2-0203"/>
                            <code value="LANR"/>
                        </coding>
                    </type>
                    <system value="https://fhir.kbv.de/NamingSystem/KBV_NS_Base_ANR"/>
                    <value value="838382210"/>
                </identifier>
                <name>
                    <use value="official"/>
                    <family value="Meier">
                        <extension url="http://hl7.org/fhir/StructureDefinition/humanname-own-name">
                            <valueString value="Meier"/>
                        </extension>
                    </family>
                    <given value="Jörgen"/>
                </name>
                <qualification>
                    <code>
                        <coding>
                            <system value="https://fhir.kbv.de/CodeSystem/KBV_CS_FOR_Qualification_Type"/>
                            <code value="03"/>
                        </coding>
                    </code>
                </qualification>
                <qualification>
                    <code>
                        <coding>
                            <system value="https://fhir.kbv.de/CodeSystem/KBV_CS_FOR_Berufsbezeichnung"/>
                            <code value="Berufsbezeichnung"/>
                        </coding>
                        <text value="FA Onkologie"/>
                    </code>
                </qualification>
            </Practitioner>
        </resource>
    </entry>
    <entry>
        <fullUrl value="http://pvs.praxis-topp-gluecklich.local/fhir/Organization/cf042e44-086a-4d51-9c77-172f9a972e3b"/>
        <resource>
            <Organization>
                <id value="cf042e44-086a-4d51-9c77-172f9a972e3b"/>
                <meta>
                    <profile value="https://fhir.kbv.de/StructureDefinition/KBV_PR_FOR_Organization|1.1.0"/>
                </meta>
                <identifier>
                    <type>
                        <coding>
                            <system value="http://terminology.hl7.org/CodeSystem/v2-0203"/>
                            <code value="BSNR"/>
                        </coding>
                    </type>
                    <system value="https://fhir.kbv.de/NamingSystem/KBV_NS_Base_BSNR"/>
                    <value value="031234567"/>
                </identifier>
                <name value="Hausarztpraxis Dr. Topp-Glücklich"/>
                <telecom>
                    <system value="phone"/>
                    <value value="0301234567"/>
                </telecom>
                <address>
                    <type value="both"/>
                    <line value="Musterstr. 2">
                        <extension url="http://hl7.org/fhir/StructureDefinition/iso21090-ADXP-houseNumber">
                            <valueString value="2"/>
                        </extension>
                        <extension url="http://hl7.org/fhir/StructureDefinition/iso21090-ADXP-streetName">
                            <valueString value="Musterstr."/>
                        </extension>
                    </line>
                    <city value="Berlin"/>
                    <postalCode value="10623"/>
                </address>
            </Organization>
        </resource>
    </entry>
    <entry>
        <fullUrl value="http://pvs.praxis-topp-gluecklich.local/fhir/Coverage/1b1ffb6e-eb05-43d7-87eb-Cov-GKV"/>
        <resource>
            <Coverage>
                <id value="1b1ffb6e-eb05-43d7-87eb-Cov-GKV"/>
                <meta>
                    <profile value="https://fhir.kbv.de/StructureDefinition/KBV_PR_FOR_Coverage|1.1.0"/>
                </meta>
                <extension url="http://fhir.de/StructureDefinition/gkv/besondere-personengruppe">
                    <valueCoding>
                        <system value="https://fhir.kbv.de/CodeSystem/KBV_CS_SFHIR_KBV_PERSONENGRUPPE"/>
                        <code value="00"/>
                    </valueCoding>
                </extension>
                <extension url="http://fhir.de/StructureDefinition/gkv/dmp-kennzeichen">
                    <valueCoding>
                        <system value="https://fhir.kbv.de/CodeSystem/KBV_CS_SFHIR_KBV_DMP"/>
                        <code value="00"/>
                    </valueCoding>
                </extension>
                <extension url="http://fhir.de/StructureDefinition/gkv/wop">
                    <valueCoding>
                        <system value="https://fhir.kbv.de/CodeSystem/KBV_CS_SFHIR_ITA_WOP"/>
                        <code value="03"/>
                    </valueCoding>
                </extension>
                <extension url="http://fhir.de/StructureDefinition/gkv/versichertenart">
                    <valueCoding>
                        <system value="https://fhir.kbv.de/CodeSystem/KBV_CS_SFHIR_KBV_VERSICHERTENSTATUS"/>
                        <code value="1"/>
                    </valueCoding>
                </extension>
                <status value="active"/>
                <type>
                    <coding>
                        <system value="http://fhir.de/CodeSystem/versicherungsart-de-basis"/>
                        <code value="GKV"/>
                    </coding>
                </type>
                <beneficiary>
                    <reference value="Patient/9774f67f-a238-4daf-b4e6-Pat-GKV"/>
                </beneficiary>
                <payor>
                    <identifier>
                        <system value="http://fhir.de/sid/arge-ik/iknr"/>
                        <value value="104212059"/>
                    </identifier>
                    <display value="AOK Rheinland/Hamburg"/>
                </payor>
            </Coverage>
        </resource>
    </entry>
</Bundle>