{
  "resourceType": "Bundle",
  "id": "91446b7b-6e1e-468d-bc6a-de8b8ebdc8ef",
  "meta": {
    "profile": [
      "https://fhir.gkvsv.de/StructureDefinition/GKVSV_PR_TA7_Sammelrechnung_Bundle|1.1.0"
    ],
    "tag": [
      {
        "display": "Beispiel der TA7/eAbrechnungsdaten."
      },
      {
        "display": "ACHTUNG! Der fachlich korrekte Inhalt der Beispielinstanz kann nicht gew채hrleistet werden. Wir sind jederzeit dankbar f체r Hinweise auf Fehler oder f체r Verbesserungsvorschl채ge."
      }
    ]
  },
  "identifier": {
    "extension": [
      {
        "url": "https://fhir.gkvsv.de/StructureDefinition/GKVSV_EX_ERP_TA7_Dateinummer",
        "valueString": "00001"
      }
    ],
    "system": "https://fhir.gkvsv.de/NamingSystem/GKVSV_NS_Dateiname",
    "value": "ARZFHR22001"
  },
  "type": "document",
  "timestamp": "2022-06-10T10:00:00+00:00",
  "entry": [
    {
      "fullUrl": "urn:uuid:fa1a7ffa-194c-45b4-a3bd-81b2729b5bfd",
      "resource": {
        "resourceType": "Composition",
        "id": "fa1a7ffa-194c-45b4-a3bd-81b2729b5bfd",
        "meta": {
          "profile": [
            "https://fhir.gkvsv.de/StructureDefinition/GKVSV_PR_TA7_Sammelrechnung_Composition|1.1.0"
          ]
        },
        "extension": [
          {
            "url": "https://fhir.gkvsv.de/StructureDefinition/GKVSV_EX_TA7_IK_Empfaenger",
            "valueIdentifier": {
              "system": "http://fhir.de/NamingSystem/arge-ik/iknr",
              "value": "104212516"
            }
          },
          {
            "url": "https://fhir.gkvsv.de/StructureDefinition/GKVSV_EX_TA7_IK_Kostentraeger",
            "valueIdentifier": {
              "system": "http://fhir.de/NamingSystem/arge-ik/iknr",
              "value": "104212505"
            }
          }
        ],
        "status": "final",
        "type": {
          "coding": [
            {
              "system": "https://fhir.gkvsv.de/CodeSystem/GKVSV_CS_ERP_TA7",
              "code": "SR",
              "display": "Sammelrechnung"
            }
          ]
        },
        "date": "2022-05-31",
        "author": [
          {
            "identifier": {
              "system": "http://fhir.de/NamingSystem/arge-ik/iknr",
              "value": "987654321"
            }
          }
        ],
        "title": "elektronische Sammelrechnung",
        "section": [
          {
            "code": {
              "coding": [
                {
                  "system": "https://fhir.gkvsv.de/CodeSystem/GKVSV_CS_ERP_TA7",
                  "code": "LSR",
                  "display": "Liste der Sammelrechnungen"
                }
              ]
            },
            "entry": [
              {
                "reference": "urn:uuid:a461d39c-e885-42ad-97a9-86ccffb3c850"
              }
            ]
          },
          {
            "code": {
              "coding": [
                {
                  "system": "https://fhir.gkvsv.de/CodeSystem/GKVSV_CS_ERP_TA7",
                  "code": "R",
                  "display": "Rechnungen"
                }
              ]
            },
            "entry": [
              {
                "reference": "urn:uuid:2249ba5f-519f-40af-859a-2f5f8141fa4c"
              }
            ]
          }
        ]
      }
    },
    {
      "fullUrl": "urn:uuid:a461d39c-e885-42ad-97a9-86ccffb3c850",
      "resource": {
        "resourceType": "List",
        "id": "a461d39c-e885-42ad-97a9-86ccffb3c850",
        "meta": {
          "profile": [
            "https://fhir.gkvsv.de/StructureDefinition/GKVSV_PR_TA7_Sammelrechnung_List|1.1.0"
          ]
        },
        "status": "current",
        "mode": "working",
        "entry": [
          {
            "item": {
              "reference": "Bundle/91446b7b-6e1e-468d-bc6a-de8b8ebdc8ef"
            }
          }
        ]
      }
    },
    {
      "fullUrl": "urn:uuid:2249ba5f-519f-40af-859a-2f5f8141fa4c",
      "resource": {
        "resourceType": "Invoice",
        "id": "2249ba5f-519f-40af-859a-2f5f8141fa4c",
        "meta": {
          "profile": [
            "https://fhir.gkvsv.de/StructureDefinition/GKVSV_PR_TA7_Rechnung|1.1.0"
          ]
        },
        "extension": [
          {
            "url": "https://fhir.gkvsv.de/StructureDefinition/GKVSV_EX_ERP_TA7_Abrechnungszeitraum",
            "valueDateTime": "2022-05-31"
          },
          {
            "extension": [
              {
                "url": "lineItem",
                "valueReference": {
                  "reference": "urn:uuid:284e62c8-9797-4e61-9722-45959858a305"
                }
              }
            ],
            "url": "https://fhir.gkvsv.de/StructureDefinition/GKVSV_EX_ERP_RezeptBundleReferenz"
          }
        ],
        "identifier": [
          {
            "system": "https://fhir.gkvsv.de/NamingSystem/GKVSV_NS_Sammelrechnungsnummer",
            "value": "104212505-01-100622"
          }
        ],
        "status": "issued",
        "type": {
          "coding": [
            {
              "system": "https://fhir.gkvsv.de/CodeSystem/GKVSV_CS_ERP_Rechnungsart",
              "code": "3"
            }
          ]
        },
        "recipient": {
          "identifier": {
            "system": "http://fhir.de/NamingSystem/arge-ik/iknr",
            "value": "104212505"
          }
        },
        "date": "2022-06-10"
      }
    },
    {
      "fullUrl": "urn:uuid:284e62c8-9797-4e61-9722-45959858a305",
      "resource": {
        "resourceType": "Bundle",
        "id": "284e62c8-9797-4e61-9722-45959858a305",
        "meta": {
          "profile": [
            "https://fhir.gkvsv.de/StructureDefinition/GKVSV_PR_TA7_RezeptBundle|1.1.0"
          ]
        },
        "type": "collection",
        "entry": [
          {
            "link": [
              {
                "relation": "item",
                "url": "https://fhir.kbv.de/StructureDefinition/KBV_PR_ERP_Bundle"
              }
            ],
            "fullUrl": "urn:uuid:a9aea390-b695-476c-94c3-8f0125472a97",
            "resource": {
              "resourceType": "Binary",
              "id": "a9aea390-b695-476c-94c3-8f0125472a97",
              "meta": {
                "profile": [
                  "https://gematik.de/fhir/StructureDefinition/ErxBinary"
                ]
              },
              "contentType": "application/pkcs7-mime",
              "data": "VmVyb3JkbnVuZ3NkYXRlbiBCZWlzcGllbCBFcnN0ZWxsdW5nIEJlaXNwaWVsIGVBYnJlY2hudW5nc2RhdGVu"
            }
          },
          {
            "link": [
              {
                "relation": "item",
                "url": "https://gematik.de/fhir/StructureDefinition/ErxReceipt"
              }
            ],
            "fullUrl": "urn:uuid:d219342a-c907-4ff6-abbb-f4765441dacc",
            "resource": {
              "resourceType": "Binary",
              "id": "d219342a-c907-4ff6-abbb-f4765441dacc",
              "meta": {
                "profile": [
                  "https://gematik.de/fhir/StructureDefinition/ErxBinary"
                ]
              },
              "contentType": "application/pkcs7-mime",
              "data": "UXVpdHR1bmdzLUJlaXNwaWVsIEVyc3RlbGx1bmcgQmVpc3BpZWwgZUFicmVjaG51bmdzZGF0ZW4="
            }
          },
          {
            "link": [
              {
                "relation": "item",
                "url": "http://fhir.abda.de/eRezeptAbgabedaten/StructureDefinition/DAV-PR-ERP-AbgabedatenBundle"
              }
            ],
            "fullUrl": "urn:uuid:60fbad4f-115d-4390-9ecc-ad371463fb98",
            "resource": {
              "resourceType": "Binary",
              "id": "60fbad4f-115d-4390-9ecc-ad371463fb98",
              "meta": {
                "profile": [
                  "https://gematik.de/fhir/StructureDefinition/ErxBinary"
                ]
              },
              "contentType": "application/pkcs7-mime",
              "data": "ZUFiZ2FiZWRhdGVuIEJlaXNwaWVsIEVyc3RlbGx1bmcgQmVpc3BpZWwgZUFicmVjaG51bmdzZGF0ZW4="
            }
          },
          {
            "link": [
              {
                "relation": "item",
                "url": "https://fhir.gkvsv.de/StructureDefinition/GKVSV_PR_ERP_eAbrechnungsdaten"
              }
            ],
            "fullUrl": "urn:uuid:96c78f3a-49a2-449b-876e-d8743fa8d6c6",
            "resource": {
              "resourceType": "Invoice",
              "id": "96c78f3a-49a2-449b-876e-d8743fa8d6c6",
              "meta": {
                "profile": [
                  "https://fhir.gkvsv.de/StructureDefinition/GKVSV_PR_ERP_eAbrechnungsdaten|1.1.0"
                ]
              },
              "extension": [
                {
                  "url": "https://fhir.gkvsv.de/StructureDefinition/GKVSV_EX_ERP_Irrlaeufer",
                  "valueBoolean": false
                }
              ],
              "identifier": [
                {
                  "system": "https://gematik.de/fhir/NamingSystem/PrescriptionID",
                  "value": "160.100.000.000.023.70"
                },
                {
                  "system": "https://fhir.gkvsv.de/NamingSystem/GKVSV_NS_Belegnummer",
                  "value": "2105523450040000001"
                }
              ],
              "status": "issued",
              "issuer": {
                "extension": [
                  {
                    "url": "https://fhir.gkvsv.de/StructureDefinition/GKVSV_EX_ERP_LE_Sitz",
                    "valueCoding": {
                      "system": "https://fhir.gkvsv.de/CodeSystem/GKVSV_CS_ERP_Leistungserbringer_Sitz",
                      "code": "1"
                    }
                  }
                ],
                "identifier": {
                  "type": {
                    "coding": [
                      {
                        "system": "https://fhir.gkvsv.de/CodeSystem/GKVSV_CS_ERP_Leistungserbringertyp",
                        "code": "A"
                      }
                    ]
                  },
                  "system": "http://fhir.de/NamingSystem/arge-ik/iknr",
                  "value": "308412345"
                }
              },
              "lineItem": [
                {
                  "extension": [
                    {
                      "url": "https://fhir.gkvsv.de/StructureDefinition/GKVSV_EX_ERP_Positionstyp",
                      "valueCodeableConcept": {
                        "coding": [
                          {
                            "system": "https://fhir.gkvsv.de/CodeSystem/GKVSV_CS_ERP_Positionstyp",
                            "code": "1",
                            "display": "체brige Position"
                          }
                        ]
                      }
                    },
                    {
                      "url": "https://fhir.gkvsv.de/StructureDefinition/GKVSV_EX_ERP_VAT_VALUE",
                      "valueMoney": {
                        "value": 2.47,
                        "currency": "EUR"
                      }
                    },
                    {
                      "url": "https://fhir.gkvsv.de/StructureDefinition/GKVSV_EX_ERP_Import",
                      "valueCodeableConcept": {
                        "coding": [
                          {
                            "system": "https://fhir.gkvsv.de/CodeSystem/GKVSV_CS_ERP_Import",
                            "code": "0"
                          }
                        ]
                      }
                    }
                  ],
                  "sequence": 1,
                  "chargeItemCodeableConcept": {
                    "coding": [
                      {
                        "system": "http://terminology.hl7.org/CodeSystem/v3-NullFlavor",
                        "code": "UNC"
                      }
                    ]
                  },
                  "priceComponent": [
                    {
                      "type": "deduction",
                      "code": {
                        "coding": [
                          {
                            "system": "https://fhir.gkvsv.de/CodeSystem/GKVSV_CS_ERP_ZuAbschlagKey",
                            "code": "R001"
                          }
                        ]
                      },
                      "amount": {
                        "value": -1.77,
                        "currency": "EUR"
                      }
                    }
                  ]
                }
              ]
            }
          }
        ]
      }
    }
  ]
}