<Bundle xmlns="http://hl7.org/fhir">
   <id value="a0e2774a-0e00-0000-0003-000000000000"/>
   <meta>
      <profile value="https://gematik.de/fhir/erp/StructureDefinition/GEM_ERP_PR_Bundle|1.4"/>
   </meta>
   <identifier>
      <system value="https://gematik.de/fhir/erp/NamingSystem/GEM_ERP_NS_PrescriptionId"/>
      <value value="160.000.239.761.378.23"/>
   </identifier>
   <type value="document"/>
   <timestamp value="2025-03-28T08:03:52.234+00:00"/>
   <link>
      <relation value="self"/>
      <url value="https://erp-ref.zentral.erp.splitdns.ti-dienste.de/Task/160.000.239.761.378.23/$close/"/>
   </link>
   <entry>
      <fullUrl value="urn:uuid:9f7ecdc6-3f99-41d7-9ebe-55e9fa7feee2"/>
      <resource>
         <Composition xmlns="http://hl7.org/fhir">
            <id value="9f7ecdc6-3f99-41d7-9ebe-55e9fa7feee2"/>
            <meta>
               <profile value="https://gematik.de/fhir/erp/StructureDefinition/GEM_ERP_PR_Composition|1.4"/>
            </meta>
            <extension url="https://gematik.de/fhir/erp/StructureDefinition/GEM_ERP_EX_Beneficiary">
               <valueIdentifier>
                  <system value="https://gematik.de/fhir/sid/telematik-id"/>
                  <value value="3-SMC-B-Testkarte--883110000163973"/>
               </valueIdentifier>
            </extension>
            <status value="final"/>
            <type>
               <coding>
                  <system value="https://gematik.de/fhir/erp/CodeSystem/GEM_ERP_CS_DocumentType"/>
                  <code value="3"/>
                  <display value="Receipt"/>
               </coding>
            </type>
            <date value="2025-03-28T08:03:52.224+00:00"/>
            <author>
               <reference value="urn:uuid:63e2f11c-f667-458d-8822-e54cb671c113"/>
            </author>
            <title value="Quittung"/>
            <event>
               <period>
                  <start value="2025-03-28T08:03:51.861+00:00"/>
                  <end value="2025-03-28T08:03:52.224+00:00"/>
               </period>
            </event>
            <section>
               <entry>
                  <reference value="urn:uuid:f5a5449b-e853-4db6-a95e-1ef471341ae9"/>
               </entry>
            </section>
         </Composition>
      </resource>
   </entry>
   <entry>
      <fullUrl value="urn:uuid:63e2f11c-f667-458d-8822-e54cb671c113"/>
      <resource>
         <Device xmlns="http://hl7.org/fhir">
            <id value="1"/>
            <meta>
               <profile value="https://gematik.de/fhir/erp/StructureDefinition/GEM_ERP_PR_Device|1.4"/>
            </meta>
            <status value="active"/>
            <serialNumber value="1.17.0"/>
            <deviceName>
               <name value="E-Rezept Fachdienst"/>
               <type value="user-friendly-name"/>
            </deviceName>
            <version>
               <value value="1.17.0"/>
            </version>
            <contact>
               <system value="email"/>
               <value value="betrieb@gematik.de"/>
            </contact>
         </Device>
      </resource>
   </entry>
   <entry>
      <fullUrl value="urn:uuid:f5a5449b-e853-4db6-a95e-1ef471341ae9"/>
      <resource>
         <Binary xmlns="http://hl7.org/fhir">
            <id value="f5a5449b-e853-4db6-a95e-1ef471341ae9"/>
            <meta>
               <versionId value="1"/>
               <profile value="https://gematik.de/fhir/erp/StructureDefinition/GEM_ERP_PR_Digest|1.4"/>
            </meta>
            <contentType value="application/octet-stream"/>
            <data value="/K10EN63+VVfZpDyz2QWCBm4YK+W542NKmBAT57NEPg="/>
         </Binary>
      </resource>
   </entry>
   <signature>
      <type>
         <system value="urn:iso-astm:E1762-95:2013"/>
         <code value="1.2.840.10065.1.12.1.1"/>
      </type>
      <when value="2025-03-28T08:03:52.236+00:00"/>
      <who>
         <reference value="urn:uuid:63e2f11c-f667-458d-8822-e54cb671c113"/>
      </who>
      <sigFormat value="application/pkcs7-mime"/>
      <data value=""/>
   </signature>
</Bundle>