<Parameters xmlns="http://hl7.org/fhir">
   <id value="fb4b715f-c428-408e-b923-070d7df24bb7"/>
   <meta>
      <profile value="https://gematik.de/fhir/epa-medication/StructureDefinition/epa-op-provide-dispensation-erp-input-parameters|1.0.3"/>
   </meta>
   <parameter>
      <name value="rxDispensation"/>
      <part>
         <name value="prescriptionId"/>
         <valueIdentifier>
            <system value="https://gematik.de/fhir/erp/NamingSystem/GEM_ERP_NS_PrescriptionId"/>
            <value value="160.100.000.000.001.39"/>
         </valueIdentifier>
      </part>
      <part>
         <name value="authoredOn"/>
         <valueDate value="1970-01-01"/>
      </part>
      <part>
         <name value="medicationDispense"/>
         <resource>
            <MedicationDispense xmlns="http://hl7.org/fhir">
               <id value="73dae71c-9f56-4efd-a6f5-095131a1855f"/>
               <meta>
                  <profile value="https://gematik.de/fhir/epa-medication/StructureDefinition/epa-medication-dispense|1.0.3"/>
               </meta>
               <identifier>
                  <system value="https://gematik.de/fhir/epa-medication/sid/rx-originator-process-identifier"/>
                  <value value="dceee4a2-12fa-44a4-8f97-60fc6a4d668e_160.100.000.000.001.39"/>
               </identifier>
               <status value="completed"/>
               <category>
                  <coding>
                     <system value="https://gematik.de/fhir/epa-medication/CodeSystem/EPAMedicationDispenseCategoryCS"/>
                     <code value="prescription"/>
                     <display value="prescription dispense"/>
                  </coding>
               </category>
               <medicationReference>
                  <reference value="Medication/eb43aa95-df04-454d-9a57-02b151c8bbea"/>
               </medicationReference>
               <subject>
                  <identifier>
                     <system value="http://fhir.de/sid/gkv/kvid-10"/>
                     <value value="K220645122"/>
                  </identifier>
               </subject>
               <performer>
                  <actor>
                     <reference value="Organization/0343ca72-cc7f-4116-804e-917525662805"/>
                  </actor>
               </performer>
               <whenHandedOver value="2023-07-27"/>
            </MedicationDispense>
         </resource>
      </part>
      <part>
         <name value="medication"/>
         <resource>
            <Medication xmlns="http://hl7.org/fhir">
               <id value="eb43aa95-df04-454d-9a57-02b151c8bbea"/>
               <meta>
                  <profile value="https://gematik.de/fhir/epa-medication/StructureDefinition/epa-medication|1.0.3"/>
               </meta>
               <extension url="https://gematik.de/fhir/epa-medication/StructureDefinition/drug-category-extension">
                  <valueCoding>
                     <system value="https://gematik.de/fhir/epa-medication/CodeSystem/epa-drug-category-cs"/>
                     <code value="00"/>
                  </valueCoding>
               </extension>
               <extension url="https://gematik.de/fhir/epa-medication/StructureDefinition/medication-id-vaccine-extension">
                  <valueBoolean value="false"/>
               </extension>
               <extension url="http://fhir.de/StructureDefinition/normgroesse">
                  <valueCode value="N3"/>
               </extension>
               <code>
                  <coding>
                     <system value="http://fhir.de/CodeSystem/ifa/pzn"/>
                     <code value="09494280"/>
                  </coding>
                  <text value="Venlafaxin Heumann 75 mg Tabletten, 100 St."/>
               </code>
               <form>
                  <coding>
                     <system value="https://fhir.kbv.de/CodeSystem/KBV_CS_SFHIR_KBV_DARREICHUNGSFORM"/>
                     <code value="TAB"/>
                  </coding>
               </form>
               <amount>
                  <numerator>
                     <extension url="https://gematik.de/fhir/epa-medication/StructureDefinition/medication-packaging-size-extension">
                        <valueString value="100"/>
                     </extension>
                     <unit value="Tabletten"/>
                  </numerator>
                  <denominator>
                     <value value="1"/>
                  </denominator>
               </amount>
               <batch>
                  <lotNumber value="A123456789-1"/>
                  <expirationDate value="2024-12-31"/>
               </batch>
            </Medication>
         </resource>
      </part>
      <part>
         <name value="organization"/>
         <resource>
            <Organization xmlns="http://hl7.org/fhir">
               <id value="0343ca72-cc7f-4116-804e-917525662805"/>
               <meta>
                  <profile value="https://gematik.de/fhir/directory/StructureDefinition/OrganizationDirectory|0.11.12"/>
                  <tag>
                     <system value="https://gematik.de/fhir/directory/CodeSystem/Origin"/>
                     <code value="ldap"/>
                  </tag>
               </meta>
               <identifier>
                  <system value="https://gematik.de/fhir/sid/telematik-id"/>
                  <value value="3-07.2.1234560000.10.789"/>
               </identifier>
               <type>
                  <coding>
                     <system value="https://gematik.de/fhir/directory/CodeSystem/OrganizationProfessionOID"/>
                     <code value="1.2.276.0.76.4.58"/>
                  </coding>
               </type>
               <name value="Dan Deline"/>
            </Organization>
         </resource>
      </part>
   </parameter>
</Parameters>