<Bundle xmlns="http://hl7.org/fhir">
   <id value="c8d7a81d-0000-0000-0003-000000000000"/>
   <meta>
      <profile value="https://gematik.de/fhir/erp/StructureDefinition/GEM_ERP_PR_Bundle|1.2"/>
   </meta>
   <identifier>
      <system value="https://gematik.de/fhir/erp/NamingSystem/GEM_ERP_NS_PrescriptionId"/>
      <value value="200.000.001.943.767.22"/>
   </identifier>
   <type value="document"/>
   <timestamp value="2023-04-18T06:43:18.902+00:00"/>
   <link>
      <relation value="self"/>
      <url value="https://erp-dev.zentral.erp.splitdns.ti-dienste.de/Task/200.000.001.943.767.22/$close/"/>
   </link>
   <entry>
      <fullUrl value="urn:uuid:30625041-80e4-44d9-911b-78adf0749ccd"/>
      <resource>
         <Composition xmlns="http://hl7.org/fhir">
            <meta>
               <profile value="https://gematik.de/fhir/erp/StructureDefinition/GEM_ERP_PR_Composition|1.2"/>
            </meta>
            <extension url="https://gematik.de/fhir/erp/StructureDefinition/GEM_ERP_EX_Beneficiary">
               <valueIdentifier>
                  <system value="https://gematik.de/fhir/sid/telematik-id"/>
                  <value value="3-SMC-B-Testkarte-883110000116873"/>
               </valueIdentifier>
            </extension>
            <status value="final"/>
            <type>
               <coding>
                  <system value="https://gematik.de/fhir/erp/CodeSystem/GEM_ERP_CS_DocumentType"/>
                  <code value="3"/>
                  <display value="Receipt"/>
               </coding>
            </type>
            <date value="2023-04-18T06:43:18.901+00:00"/>
            <author>
               <reference value="https://erp-dev.zentral.erp.splitdns.ti-dienste.de/Device/1"/>
            </author>
            <title value="Quittung"/>
            <event>
               <period>
                  <start value="2023-04-18T06:43:17.277+00:00"/>
                  <end value="2023-04-18T06:43:18.901+00:00"/>
               </period>
            </event>
            <section>
               <entry>
                  <reference value="Binary/PrescriptionDigest-200.000.001.943.767.22"/>
               </entry>
            </section>
         </Composition>
      </resource>
   </entry>
   <entry>
      <fullUrl value="https://erp-dev.zentral.erp.splitdns.ti-dienste.de/Device/1"/>
      <resource>
         <Device xmlns="http://hl7.org/fhir">
            <id value="1"/>
            <meta>
               <profile value="https://gematik.de/fhir/erp/StructureDefinition/GEM_ERP_PR_Device|1.2"/>
            </meta>
            <status value="active"/>
            <serialNumber value="1.10.0"/>
            <deviceName>
               <name value="E-Rezept Fachdienst"/>
               <type value="user-friendly-name"/>
            </deviceName>
            <version>
               <value value="1.10.0"/>
            </version>
            <contact>
               <system value="email"/>
               <value value="betrieb@gematik.de"/>
            </contact>
         </Device>
      </resource>
   </entry>
   <entry>
      <fullUrl value="https://erp-dev.zentral.erp.splitdns.ti-dienste.de/Binary/PrescriptionDigest-200.000.001.943.767.22"/>
      <resource>
         <Binary xmlns="http://hl7.org/fhir">
            <id value="PrescriptionDigest-200.000.001.943.767.22"/>
            <meta>
               <versionId value="1"/>
               <profile value="https://gematik.de/fhir/erp/StructureDefinition/GEM_ERP_PR_Digest|1.2"/>
            </meta>
            <contentType value="application/octet-stream"/>
            <data value="P9SeNra9uK1v8bpqSGRx9xdaEShpsKvW2fCca1HmJ6o="/>
         </Binary>
      </resource>
   </entry>
   <signature>
      <type>
         <system value="urn:iso-astm:E1762-95:2013"/>
         <code value="1.2.840.10065.1.12.1.1"/>
      </type>
      <when value="2023-04-18T06:43:18.903+00:00"/>
      <who>
         <reference value="https://erp-dev.zentral.erp.splitdns.ti-dienste.de/Device/1"/>
      </who>
      <sigFormat value="application/pkcs7-mime"/>
      <data value=""/>
   </signature>
</Bundle>