{
  "resourceType": "Bundle",
  "id": "470b662e-388e-4c72-a7a6-f378102d54d5",
  "meta": {
    "profile": [
      "https://fhir.kbv.de/StructureDefinition/KBV_PR_ERP_Bundle|1.1.0"
    ]
  },
  "identifier": {
    "system": "https://gematik.de/fhir/erp/NamingSystem/GEM_ERP_NS_PrescriptionId",
    "value": "160.115.468.135.035.50"
  },
  "type": "document",
  "timestamp": "2024-11-19T08:30:00+00:00",
  "entry": [
    {
      "fullUrl": "http://pvs.praxis.local/fhir/Composition/e986ef7f-16a5-4093-8641-906d8e5f0c06",
      "resource": {
        "resourceType": "Composition",
        "id": "e986ef7f-16a5-4093-8641-906d8e5f0c06",
        "meta": {
          "profile": [
            "https://fhir.kbv.de/StructureDefinition/KBV_PR_ERP_Composition|1.1.0"
          ]
        },
        "extension": [
          {
            "url": "https://fhir.kbv.de/StructureDefinition/KBV_EX_FOR_Legal_basis",
            "valueCoding": {
              "system": "https://fhir.kbv.de/CodeSystem/KBV_CS_SFHIR_KBV_STATUSKENNZEICHEN",
              "code": "00"
            }
          }
        ],
        "status": "final",
        "type": {
          "coding": [
            {
              "system": "https://fhir.kbv.de/CodeSystem/KBV_CS_SFHIR_KBV_FORMULAR_ART",
              "code": "e16A"
            }
          ]
        },
        "subject": {
          "reference": "Patient/ee8fcdd6-a7b7-4aab-a136-9647058c9225"
        },
        "date": "2024-11-19T08:00:00Z",
        "author": [
          {
            "reference": "Practitioner/9f7d5509-e131-4c01-986e-c83ec1f8ac69",
            "type": "Practitioner"
          },
          {
            "type": "Device",
            "identifier": {
              "system": "https://fhir.kbv.de/NamingSystem/KBV_NS_FOR_Pruefnummer",
              "value": "Y/400/2107/36/999"
            }
          }
        ],
        "title": "elektronische Arzneimittelverordnung",
        "custodian": {
          "reference": "Organization/3d707edb-83f5-43e8-9958-b17f3210c8f0"
        },
        "section": [
          {
            "code": {
              "coding": [
                {
                  "system": "https://fhir.kbv.de/CodeSystem/KBV_CS_ERP_Section_Type",
                  "code": "Prescription"
                }
              ]
            },
            "entry": [
              {
                "reference": "MedicationRequest/559e0b95-a9e3-439d-a67f-e319e961f87f"
              }
            ]
          },
          {
            "code": {
              "coding": [
                {
                  "system": "https://fhir.kbv.de/CodeSystem/KBV_CS_ERP_Section_Type",
                  "code": "Coverage"
                }
              ]
            },
            "entry": [
              {
                "reference": "Coverage/16559e29-1425-43ed-a208-536b68b393b1"
              }
            ]
          }
        ]
      }
    },
    {
      "fullUrl": "http://pvs.praxis.local/fhir/MedicationRequest/559e0b95-a9e3-439d-a67f-e319e961f87f",
      "resource": {
        "resourceType": "MedicationRequest",
        "id": "559e0b95-a9e3-439d-a67f-e319e961f87f",
        "meta": {
          "profile": [
            "https://fhir.kbv.de/StructureDefinition/KBV_PR_ERP_Prescription|1.1.0"
          ]
        },
        "extension": [
          {
            "url": "https://fhir.kbv.de/StructureDefinition/KBV_EX_ERP_EmergencyServicesFee",
            "valueBoolean": false
          },
          {
            "url": "https://fhir.kbv.de/StructureDefinition/KBV_EX_ERP_BVG",
            "valueBoolean": false
          },
          {
            "extension": [
              {
                "url": "Kennzeichen",
                "valueBoolean": false
              }
            ],
            "url": "https://fhir.kbv.de/StructureDefinition/KBV_EX_ERP_Multiple_Prescription"
          },
          {
            "url": "https://fhir.kbv.de/StructureDefinition/KBV_EX_FOR_StatusCoPayment",
            "valueCoding": {
              "system": "https://fhir.kbv.de/CodeSystem/KBV_CS_FOR_StatusCoPayment",
              "code": "0"
            }
          }
        ],
        "status": "active",
        "intent": "order",
        "medicationReference": {
          "reference": "Medication/ce8f49a5-8cd1-4ec3-8cf8-5a436726e1a2"
        },
        "subject": {
          "reference": "Patient/ee8fcdd6-a7b7-4aab-a136-9647058c9225"
        },
        "authoredOn": "2024-11-19",
        "requester": {
          "reference": "Practitioner/9f7d5509-e131-4c01-986e-c83ec1f8ac69"
        },
        "insurance": [
          {
            "reference": "Coverage/16559e29-1425-43ed-a208-536b68b393b1"
          }
        ],
        "dosageInstruction": [
          {
            "extension": [
              {
                "url": "https://fhir.kbv.de/StructureDefinition/KBV_EX_ERP_DosageFlag",
                "valueBoolean": false
              }
            ]
          }
        ],
        "dispenseRequest": {
          "quantity": {
            "value": 1,
            "system": "http://unitsofmeasure.org",
            "code": "{Package}"
          }
        },
        "substitution": {
          "allowedBoolean": true
        }
      }
    },
    {
      "fullUrl": "http://pvs.praxis.local/fhir/Medication/ce8f49a5-8cd1-4ec3-8cf8-5a436726e1a2",
      "resource": {
        "resourceType": "Medication",
        "id": "ce8f49a5-8cd1-4ec3-8cf8-5a436726e1a2",
        "meta": {
          "profile": [
            "https://fhir.kbv.de/StructureDefinition/KBV_PR_ERP_Medication_PZN|1.1.0"
          ]
        },
        "extension": [
          {
            "url": "https://fhir.kbv.de/StructureDefinition/KBV_EX_Base_Medication_Type",
            "valueCodeableConcept": {
              "coding": [
                {
                  "system": "http://snomed.info/sct",
                  "version": "http://snomed.info/sct/900000000000207008/version/20220331",
                  "code": "763158003",
                  "display": "Medicinal product (product)"
                }
              ]
            }
          },
          {
            "url": "https://fhir.kbv.de/StructureDefinition/KBV_EX_ERP_Medication_Category",
            "valueCoding": {
              "system": "https://fhir.kbv.de/CodeSystem/KBV_CS_ERP_Medication_Category",
              "code": "00"
            }
          },
          {
            "url": "https://fhir.kbv.de/StructureDefinition/KBV_EX_ERP_Medication_Vaccine",
            "valueBoolean": false
          },
          {
            "url": "http://fhir.de/StructureDefinition/normgroesse",
            "valueCode": "N3"
          }
        ],
        "code": {
          "coding": [
            {
              "system": "http://fhir.de/CodeSystem/ifa/pzn",
              "code": "06437034"
            }
          ],
          "text": "Doxycyclin 100 - 1 A Pharma® 50 Tbl. N3"
        },
        "form": {
          "coding": [
            {
              "system": "https://fhir.kbv.de/CodeSystem/KBV_CS_SFHIR_KBV_DARREICHUNGSFORM",
              "code": "FTA"
            }
          ]
        },
        "amount": {
          "numerator": {
            "extension": [
              {
                "url": "https://fhir.kbv.de/StructureDefinition/KBV_EX_ERP_Medication_PackagingSize",
                "valueString": "50"
              }
            ],
            "unit": "Stück"
          },
          "denominator": {
            "value": 1
          }
        }
      }
    },
    {
      "fullUrl": "http://pvs.praxis.local/fhir/Patient/ee8fcdd6-a7b7-4aab-a136-9647058c9225",
      "resource": {
        "resourceType": "Patient",
        "id": "ee8fcdd6-a7b7-4aab-a136-9647058c9225",
        "meta": {
          "profile": [
            "https://fhir.kbv.de/StructureDefinition/KBV_PR_FOR_Patient|1.1.0"
          ]
        },
        "identifier": [
          {
            "type": {
              "coding": [
                {
                  "system": "http://fhir.de/CodeSystem/identifier-type-de-basis",
                  "code": "GKV"
                }
              ]
            },
            "system": "http://fhir.de/sid/gkv/kvid-10",
            "value": "K220635158"
          }
        ],
        "name": [
          {
            "use": "official",
            "family": "Königsstein",
            "_family": {
              "extension": [
                {
                  "url": "http://hl7.org/fhir/StructureDefinition/humanname-own-name",
                  "valueString": "Königsstein"
                }
              ]
            },
            "given": [
              "Ludger"
            ]
          }
        ],
        "birthDate": "1935-06-22",
        "address": [
          {
            "type": "both",
            "line": [
              "Blumenweg"
            ],
            "_line": [
              {
                "extension": [
                  {
                    "url": "http://hl7.org/fhir/StructureDefinition/iso21090-ADXP-streetName",
                    "valueString": "Blumenweg"
                  }
                ]
              }
            ],
            "city": "Esens",
            "postalCode": "26427",
            "country": "D"
          }
        ]
      }
    },
    {
      "fullUrl": "http://pvs.praxis.local/fhir/Practitioner/9f7d5509-e131-4c01-986e-c83ec1f8ac69",
      "resource": {
        "resourceType": "Practitioner",
        "id": "9f7d5509-e131-4c01-986e-c83ec1f8ac69",
        "meta": {
          "profile": [
            "https://fhir.kbv.de/StructureDefinition/KBV_PR_FOR_Practitioner|1.1.0"
          ]
        },
        "identifier": [
          {
            "type": {
              "coding": [
                {
                  "system": "http://terminology.hl7.org/CodeSystem/v2-0203",
                  "code": "LANR"
                }
              ]
            },
            "system": "https://fhir.kbv.de/NamingSystem/KBV_NS_Base_ANR",
            "value": "987654423"
          },
          {
            "type": {
              "coding": [
                {
                  "system": "http://terminology.hl7.org/CodeSystem/v2-0203",
                  "code": "PRN"
                }
              ]
            },
            "system": "https://gematik.de/fhir/sid/telematik-id",
            "value": "1-748382202"
          }
        ],
        "name": [
          {
            "use": "official",
            "family": "Schneider",
            "_family": {
              "extension": [
                {
                  "url": "http://hl7.org/fhir/StructureDefinition/humanname-own-name",
                  "valueString": "Schneider"
                }
              ]
            },
            "given": [
              "Emma"
            ],
            "prefix": [
              "Dr. med."
            ],
            "_prefix": [
              {
                "extension": [
                  {
                    "url": "http://hl7.org/fhir/StructureDefinition/iso21090-EN-qualifier",
                    "valueCode": "AC"
                  }
                ]
              }
            ]
          }
        ],
        "qualification": [
          {
            "code": {
              "coding": [
                {
                  "system": "https://fhir.kbv.de/CodeSystem/KBV_CS_FOR_Qualification_Type",
                  "code": "00"
                }
              ]
            }
          },
          {
            "code": {
              "coding": [
                {
                  "system": "https://fhir.kbv.de/CodeSystem/KBV_CS_FOR_Berufsbezeichnung",
                  "code": "Berufsbezeichnung"
                }
              ],
              "text": "Fachärztin für Innere Medizin"
            }
          }
        ]
      }
    },
    {
      "fullUrl": "http://pvs.praxis.local/fhir/Organization/3d707edb-83f5-43e8-9958-b17f3210c8f0",
      "resource": {
        "resourceType": "Organization",
        "id": "3d707edb-83f5-43e8-9958-b17f3210c8f0",
        "meta": {
          "profile": [
            "https://fhir.kbv.de/StructureDefinition/KBV_PR_FOR_Organization|1.1.0"
          ]
        },
        "identifier": [
          {
            "type": {
              "coding": [
                {
                  "system": "http://terminology.hl7.org/CodeSystem/v2-0203",
                  "code": "BSNR"
                }
              ]
            },
            "system": "https://fhir.kbv.de/NamingSystem/KBV_NS_Base_BSNR",
            "value": "721111100"
          }
        ],
        "name": "MVZ",
        "telecom": [
          {
            "system": "phone",
            "value": "0301234567"
          },
          {
            "system": "fax",
            "value": "030123456789"
          },
          {
            "system": "email",
            "value": "mvz@e-mail.de"
          }
        ],
        "address": [
          {
            "type": "both",
            "line": [
              "Herbert-Lewin-Platz 2"
            ],
            "_line": [
              {
                "extension": [
                  {
                    "url": "http://hl7.org/fhir/StructureDefinition/iso21090-ADXP-streetName",
                    "valueString": "Herbert-Lewin-Platz"
                  },
                  {
                    "url": "http://hl7.org/fhir/StructureDefinition/iso21090-ADXP-houseNumber",
                    "valueString": "2"
                  }
                ]
              }
            ],
            "city": "Berlin",
            "postalCode": "10623",
            "country": "D"
          }
        ]
      }
    },
    {
      "fullUrl": "http://pvs.praxis.local/fhir/Coverage/16559e29-1425-43ed-a208-536b68b393b1",
      "resource": {
        "resourceType": "Coverage",
        "id": "16559e29-1425-43ed-a208-536b68b393b1",
        "meta": {
          "profile": [
            "https://fhir.kbv.de/StructureDefinition/KBV_PR_FOR_Coverage|1.1.0"
          ]
        },
        "extension": [
          {
            "url": "http://fhir.de/StructureDefinition/gkv/besondere-personengruppe",
            "valueCoding": {
              "system": "https://fhir.kbv.de/CodeSystem/KBV_CS_SFHIR_KBV_PERSONENGRUPPE",
              "code": "00"
            }
          },
          {
            "url": "http://fhir.de/StructureDefinition/gkv/dmp-kennzeichen",
            "valueCoding": {
              "system": "https://fhir.kbv.de/CodeSystem/KBV_CS_SFHIR_KBV_DMP",
              "code": "05"
            }
          },
          {
            "url": "http://fhir.de/StructureDefinition/gkv/wop",
            "valueCoding": {
              "system": "https://fhir.kbv.de/CodeSystem/KBV_CS_SFHIR_ITA_WOP",
              "code": "17"
            }
          },
          {
            "url": "http://fhir.de/StructureDefinition/gkv/versichertenart",
            "valueCoding": {
              "system": "https://fhir.kbv.de/CodeSystem/KBV_CS_SFHIR_KBV_VERSICHERTENSTATUS",
              "code": "5"
            }
          }
        ],
        "status": "active",
        "type": {
          "coding": [
            {
              "system": "http://fhir.de/CodeSystem/versicherungsart-de-basis",
              "code": "GKV"
            }
          ]
        },
        "beneficiary": {
          "reference": "Patient/ee8fcdd6-a7b7-4aab-a136-9647058c9225"
        },
        "payor": [
          {
            "identifier": {
              "system": "http://fhir.de/sid/arge-ik/iknr",
              "value": "109719018"
            },
            "display": "AOK Nordost"
          }
        ]
      }
    }
  ]
}