{
  "resourceType": "Bundle",
  "id": "80785418-076e-4318-9c29-addb6180a1f5",
  "meta": {
    "profile": [
      "https://gematik.de/fhir/erp/StructureDefinition/GEM_ERP_PR_CloseOperationInputBundle|1.3"
    ],
    "tag": [
      {
        "display": "Beispiel MedicationDispense PKV PZN Bsp 31 (multiple medications)"
      }
    ]
  },
  "type": "collection",
  "entry": [
    {
      "fullUrl": "urn:uuid:8fdf05c2-0150-4c5e-a45c-3c300ca8d455",
      "resource": {
        "resourceType": "MedicationDispense",
        "id": "8fdf05c2-0150-4c5e-a45c-3c300ca8d455",
        "meta": {
          "profile": [
            "https://gematik.de/fhir/erp/StructureDefinition/GEM_ERP_PR_MedicationDispense|1.3"
          ],
          "tag": [
            {
              "display": "Beispiel MedicationDispense PZN Bsp 31"
            },
            {
              "display": "ACHTUNG! Der fachlich korrekte Inhalt der Beispielinstanz kann nicht gewährleistet werden. Wir sind jederzeit dankbar für Hinweise auf Fehler oder für Verbesserungsvorschläge."
            }
          ]
        },
        "contained": [
          {
            "resourceType": "Medication",
            "id": "f18cf2b8-9618-4445-a914-d79083e63be9",
            "meta": {
              "profile": [
                "https://fhir.kbv.de/StructureDefinition/KBV_PR_ERP_Medication_PZN|1.1.0"
              ]
            },
            "extension": [
              {
                "url": "https://fhir.kbv.de/StructureDefinition/KBV_EX_Base_Medication_Type",
                "valueCodeableConcept": {
                  "coding": [
                    {
                      "system": "http://snomed.info/sct",
                      "version": "http://snomed.info/sct/900000000000207008/version/20220331",
                      "code": "763158003",
                      "display": "Medicinal product (product)"
                    }
                  ]
                }
              },
              {
                "url": "https://fhir.kbv.de/StructureDefinition/KBV_EX_ERP_Medication_Category",
                "valueCoding": {
                  "system": "https://fhir.kbv.de/CodeSystem/KBV_CS_ERP_Medication_Category",
                  "code": "00"
                }
              },
              {
                "url": "https://fhir.kbv.de/StructureDefinition/KBV_EX_ERP_Medication_Vaccine",
                "valueBoolean": false
              },
              {
                "url": "http://fhir.de/StructureDefinition/normgroesse",
                "valueCode": "N2"
              }
            ],
            "code": {
              "coding": [
                {
                  "system": "http://fhir.de/CodeSystem/ifa/pzn",
                  "code": "06437028"
                }
              ],
              "text": "Doxycyclin 100-1A Pharma Tabletten N2"
            },
            "form": {
              "coding": [
                {
                  "system": "https://fhir.kbv.de/CodeSystem/KBV_CS_SFHIR_KBV_DARREICHUNGSFORM",
                  "code": "TAB"
                }
              ]
            },
            "amount": {
              "numerator": {
                "extension": [
                  {
                    "url": "https://fhir.kbv.de/StructureDefinition/KBV_EX_ERP_Medication_PackagingSize",
                    "valueString": "20"
                  }
                ],
                "unit": "Stück"
              },
              "denominator": {
                "value": 1
              }
            },
            "batch": {
              "lotNumber": "A9876543210123-45678"
            }
          }
        ],
        "identifier": [
          {
            "system": "https://gematik.de/fhir/erp/NamingSystem/GEM_ERP_NS_PrescriptionId",
            "value": "160.115.468.135.035.50"
          }
        ],
        "status": "completed",
        "medicationReference": {
          "reference": "#f18cf2b8-9618-4445-a914-d79083e63be9"
        },
        "subject": {
          "identifier": {
            "system": "http://fhir.de/sid/gkv/kvid-10",
            "value": "K220635158"
          }
        },
        "performer": [
          {
            "actor": {
              "identifier": {
                "system": "https://gematik.de/fhir/sid/telematik-id",
                "value": "3-07.2.1234560000.10.789"
              }
            }
          }
        ],
        "quantity": {
          "value": 2,
          "system": "http://unitsofmeasure.org",
          "code": "{Package}"
        },
        "whenHandedOver": "2024-11-19"
      }
    },
    {
      "fullUrl": "urn:uuid:0455a017-acd8-47cf-9036-e9d9920ecf55",
      "resource": {
        "resourceType": "MedicationDispense",
        "id": "0455a017-acd8-47cf-9036-e9d9920ecf55",
        "meta": {
          "profile": [
            "https://gematik.de/fhir/erp/StructureDefinition/GEM_ERP_PR_MedicationDispense|1.3"
          ],
          "tag": [
            {
              "display": "Beispiel MedicationDispense PZN Bsp 31"
            },
            {
              "display": "ACHTUNG! Der fachlich korrekte Inhalt der Beispielinstanz kann nicht gewährleistet werden. Wir sind jederzeit dankbar für Hinweise auf Fehler oder für Verbesserungsvorschläge."
            }
          ]
        },
        "contained": [
          {
            "resourceType": "Medication",
            "id": "43a4b03c-de10-40b9-a592-26cd42fd9bf9",
            "meta": {
              "profile": [
                "https://fhir.kbv.de/StructureDefinition/KBV_PR_ERP_Medication_PZN|1.1.0"
              ]
            },
            "extension": [
              {
                "url": "https://fhir.kbv.de/StructureDefinition/KBV_EX_Base_Medication_Type",
                "valueCodeableConcept": {
                  "coding": [
                    {
                      "system": "http://snomed.info/sct",
                      "version": "http://snomed.info/sct/900000000000207008/version/20220331",
                      "code": "763158003",
                      "display": "Medicinal product (product)"
                    }
                  ]
                }
              },
              {
                "url": "https://fhir.kbv.de/StructureDefinition/KBV_EX_ERP_Medication_Category",
                "valueCoding": {
                  "system": "https://fhir.kbv.de/CodeSystem/KBV_CS_ERP_Medication_Category",
                  "code": "00"
                }
              },
              {
                "url": "https://fhir.kbv.de/StructureDefinition/KBV_EX_ERP_Medication_Vaccine",
                "valueBoolean": false
              },
              {
                "url": "http://fhir.de/StructureDefinition/normgroesse",
                "valueCode": "N1"
              }
            ],
            "code": {
              "coding": [
                {
                  "system": "http://fhir.de/CodeSystem/ifa/pzn",
                  "code": "06437011"
                }
              ],
              "text": "Doxycyclin 100-1A Pharma Tabletten N1"
            },
            "form": {
              "coding": [
                {
                  "system": "https://fhir.kbv.de/CodeSystem/KBV_CS_SFHIR_KBV_DARREICHUNGSFORM",
                  "code": "TAB"
                }
              ]
            },
            "amount": {
              "numerator": {
                "extension": [
                  {
                    "url": "https://fhir.kbv.de/StructureDefinition/KBV_EX_ERP_Medication_PackagingSize",
                    "valueString": "10"
                  }
                ],
                "unit": "Stück"
              },
              "denominator": {
                "value": 1
              }
            },
            "batch": {
              "lotNumber": "A9876543210123-87654"
            }
          }
        ],
        "identifier": [
          {
            "system": "https://gematik.de/fhir/erp/NamingSystem/GEM_ERP_NS_PrescriptionId",
            "value": "160.115.468.135.035.50"
          }
        ],
        "status": "completed",
        "medicationReference": {
          "reference": "#43a4b03c-de10-40b9-a592-26cd42fd9bf9"
        },
        "subject": {
          "identifier": {
            "system": "http://fhir.de/sid/gkv/kvid-10",
            "value": "K220635158"
          }
        },
        "performer": [
          {
            "actor": {
              "identifier": {
                "system": "https://gematik.de/fhir/sid/telematik-id",
                "value": "3-07.2.1234560000.10.789"
              }
            }
          }
        ],
        "whenHandedOver": "2024-11-19"
      }
    }
  ]
}