{
  "resourceType": "Bundle",
  "id": "8b27ad4d-b631-43f9-a787-7e2434102e29",
  "type": "collection",
  "timestamp": "2025-03-28T08:03:28.751+00:00",
  "link": [ {
    "relation": "self",
    "url": "https://erp-ref.zentral.erp.splitdns.ti-dienste.de/Task/160.000.239.761.369.50"
  } ],
  "entry": [ {
    "fullUrl": "https://erp-ref.zentral.erp.splitdns.ti-dienste.de/Task/160.000.239.761.369.50",
    "resource": {
      "resourceType": "Task",
      "id": "160.000.239.761.369.50",
      "meta": {
        "profile": [ "https://gematik.de/fhir/erp/StructureDefinition/GEM_ERP_PR_Task|1.4" ]
      },
      "extension": [ {
        "url": "https://gematik.de/fhir/erp/StructureDefinition/GEM_ERP_EX_PrescriptionType",
        "valueCoding": {
          "system": "https://gematik.de/fhir/erp/CodeSystem/GEM_ERP_CS_FlowType",
          "code": "160",
          "display": "Muster 16 (Apothekenpflichtige Arzneimittel)"
        }
      }, {
        "url": "https://gematik.de/fhir/erp/StructureDefinition/GEM_ERP_EX_ExpiryDate",
        "valueDate": "2025-06-28"
      }, {
        "url": "https://gematik.de/fhir/erp/StructureDefinition/GEM_ERP_EX_AcceptDate",
        "valueDate": "2025-04-25"
      } ],
      "identifier": [ {
        "use": "official",
        "system": "https://gematik.de/fhir/erp/NamingSystem/GEM_ERP_NS_PrescriptionId",
        "value": "160.000.239.761.369.50"
      }, {
        "use": "official",
        "system": "https://gematik.de/fhir/erp/NamingSystem/GEM_ERP_NS_AccessCode",
        "value": "eab82a3b5780d9eab87b5bf8e133f5305b13f6a0031d3f1438360415cdffd1da"
      } ],
      "status": "ready",
      "intent": "order",
      "for": {
        "identifier": {
          "system": "http://fhir.de/sid/gkv/kvid-10",
          "value": "X110614233"
        }
      },
      "authoredOn": "2025-03-28T08:03:28.132+00:00",
      "lastModified": "2025-03-28T08:03:28.341+00:00",
      "performerType": [ {
        "coding": [ {
          "system": "https://gematik.de/fhir/erp/CodeSystem/GEM_ERP_CS_OrganizationType",
          "code": "urn:oid:1.2.276.0.76.4.54",
          "display": "Öffentliche Apotheke"
        } ],
        "text": "Öffentliche Apotheke"
      } ],
      "input": [ {
        "type": {
          "coding": [ {
            "system": "https://gematik.de/fhir/erp/CodeSystem/GEM_ERP_CS_DocumentType",
            "code": "2"
          } ]
        },
        "valueReference": {
          "reference": "a0d9774a-0e00-0000-0002-000000000000"
        }
      } ]
    }
  }, {
    "fullUrl": "urn:uuid:a0d9774a-0e00-0000-0002-000000000000",
    "resource": {
      "resourceType": "Bundle",
      "id": "a0d9774a-0e00-0000-0002-000000000000",
      "meta": {
        "profile": [ "https://fhir.kbv.de/StructureDefinition/KBV_PR_ERP_Bundle|1.1.0" ]
      },
      "identifier": {
        "system": "https://gematik.de/fhir/erp/NamingSystem/GEM_ERP_NS_PrescriptionId",
        "value": "160.000.239.761.369.50"
      },
      "type": "document",
      "timestamp": "2025-03-28T09:03:28.210+01:00",
      "entry": [ {
        "fullUrl": "https://pvs.gematik.de/fhir/Composition/23c8d934-3b72-4105-818e-4485e871c4de",
        "resource": {
          "resourceType": "Composition",
          "id": "23c8d934-3b72-4105-818e-4485e871c4de",
          "meta": {
            "profile": [ "https://fhir.kbv.de/StructureDefinition/KBV_PR_ERP_Composition|1.1.0" ]
          },
          "extension": [ {
            "url": "https://fhir.kbv.de/StructureDefinition/KBV_EX_FOR_Legal_basis",
            "valueCoding": {
              "system": "https://fhir.kbv.de/CodeSystem/KBV_CS_SFHIR_KBV_STATUSKENNZEICHEN",
              "code": "00"
            }
          } ],
          "status": "final",
          "type": {
            "coding": [ {
              "system": "https://fhir.kbv.de/CodeSystem/KBV_CS_SFHIR_KBV_FORMULAR_ART",
              "code": "e16A"
            } ]
          },
          "subject": {
            "reference": "Patient/7a119d10-2f0d-405f-98c0-c0daf361fa10"
          },
          "date": "2025-03-28T09:03:28+01:00",
          "author": [ {
            "type": "Device",
            "identifier": {
              "system": "https://fhir.kbv.de/NamingSystem/KBV_NS_FOR_Pruefnummer",
              "value": "GEMATIK/410/2109/36/123"
            }
          }, {
            "reference": "Practitioner/cb0c9e09-c400-499f-bcaf-141fe3ff7082",
            "type": "Practitioner"
          } ],
          "title": "elektronische Arzneimittelverordnung",
          "custodian": {
            "reference": "Organization/d92beaad-985c-4b56-93b7-5cb5821ed524"
          },
          "section": [ {
            "code": {
              "coding": [ {
                "system": "https://fhir.kbv.de/CodeSystem/KBV_CS_ERP_Section_Type",
                "code": "Coverage"
              } ]
            },
            "entry": [ {
              "reference": "Coverage/a31a7d08-7266-4ac4-a0bf-9d06fe213ca2"
            } ]
          }, {
            "code": {
              "coding": [ {
                "system": "https://fhir.kbv.de/CodeSystem/KBV_CS_ERP_Section_Type",
                "code": "Prescription"
              } ]
            },
            "entry": [ {
              "reference": "MedicationRequest/ffe6da24-5c1e-4645-81f0-4a1471a0e95d"
            } ]
          } ]
        }
      }, {
        "fullUrl": "https://pvs.gematik.de/fhir/Coverage/a31a7d08-7266-4ac4-a0bf-9d06fe213ca2",
        "resource": {
          "resourceType": "Coverage",
          "id": "a31a7d08-7266-4ac4-a0bf-9d06fe213ca2",
          "meta": {
            "profile": [ "https://fhir.kbv.de/StructureDefinition/KBV_PR_FOR_Coverage|1.1.0" ]
          },
          "extension": [ {
            "url": "http://fhir.de/StructureDefinition/gkv/besondere-personengruppe",
            "valueCoding": {
              "system": "https://fhir.kbv.de/CodeSystem/KBV_CS_SFHIR_KBV_PERSONENGRUPPE",
              "code": "00"
            }
          }, {
            "url": "http://fhir.de/StructureDefinition/gkv/dmp-kennzeichen",
            "valueCoding": {
              "system": "https://fhir.kbv.de/CodeSystem/KBV_CS_SFHIR_KBV_DMP",
              "code": "00"
            }
          }, {
            "url": "http://fhir.de/StructureDefinition/gkv/wop",
            "valueCoding": {
              "system": "https://fhir.kbv.de/CodeSystem/KBV_CS_SFHIR_ITA_WOP",
              "code": "47"
            }
          }, {
            "url": "http://fhir.de/StructureDefinition/gkv/versichertenart",
            "valueCoding": {
              "system": "https://fhir.kbv.de/CodeSystem/KBV_CS_SFHIR_KBV_VERSICHERTENSTATUS",
              "code": "1"
            }
          } ],
          "status": "active",
          "type": {
            "coding": [ {
              "system": "http://fhir.de/CodeSystem/versicherungsart-de-basis",
              "code": "GKV"
            } ]
          },
          "beneficiary": {
            "reference": "Patient/715b8f25-73f2-49bd-922a-b6381039f1e4"
          },
          "payor": [ {
            "identifier": {
              "system": "http://fhir.de/sid/arge-ik/iknr",
              "value": "105230076"
            },
            "display": "BKK MERCK"
          } ]
        }
      }, {
        "fullUrl": "https://pvs.gematik.de/fhir/Patient/7a119d10-2f0d-405f-98c0-c0daf361fa10",
        "resource": {
          "resourceType": "Patient",
          "id": "7a119d10-2f0d-405f-98c0-c0daf361fa10",
          "meta": {
            "profile": [ "https://fhir.kbv.de/StructureDefinition/KBV_PR_FOR_Patient|1.1.0" ]
          },
          "identifier": [ {
            "type": {
              "coding": [ {
                "system": "http://fhir.de/CodeSystem/identifier-type-de-basis",
                "code": "GKV"
              } ]
            },
            "system": "http://fhir.de/sid/gkv/kvid-10",
            "value": "X110614233"
          } ],
          "name": [ {
            "use": "official",
            "family": "Hüllmann",
            "_family": {
              "extension": [ {
                "url": "http://hl7.org/fhir/StructureDefinition/humanname-own-name",
                "valueString": "Hüllmann"
              } ]
            },
            "given": [ "Sina" ]
          } ],
          "birthDate": "1990-07-20",
          "address": [ {
            "type": "both",
            "line": [ "Strombergstr. 02a" ],
            "_line": [ {
              "extension": [ {
                "url": "http://hl7.org/fhir/StructureDefinition/iso21090-ADXP-houseNumber",
                "valueString": "02a"
              }, {
                "url": "http://hl7.org/fhir/StructureDefinition/iso21090-ADXP-streetName",
                "valueString": "Strombergstr."
              } ]
            } ],
            "city": "Henninggrün",
            "postalCode": "89847",
            "country": "D"
          } ]
        }
      }, {
        "fullUrl": "https://pvs.gematik.de/fhir/Practitioner/cb0c9e09-c400-499f-bcaf-141fe3ff7082",
        "resource": {
          "resourceType": "Practitioner",
          "id": "cb0c9e09-c400-499f-bcaf-141fe3ff7082",
          "meta": {
            "profile": [ "https://fhir.kbv.de/StructureDefinition/KBV_PR_FOR_Practitioner|1.1.0" ]
          },
          "identifier": [ {
            "type": {
              "coding": [ {
                "system": "http://terminology.hl7.org/CodeSystem/v2-0203",
                "code": "LANR"
              } ]
            },
            "system": "https://fhir.kbv.de/NamingSystem/KBV_NS_Base_ANR",
            "value": "369709443"
          } ],
          "name": [ {
            "use": "official",
            "family": "Schraßer",
            "_family": {
              "extension": [ {
                "url": "http://hl7.org/fhir/StructureDefinition/humanname-own-name",
                "valueString": "Schraßer"
              } ]
            },
            "given": [ "Dr." ],
            "prefix": [ "Dr." ],
            "_prefix": [ {
              "extension": [ {
                "url": "http://hl7.org/fhir/StructureDefinition/iso21090-EN-qualifier",
                "valueCode": "AC"
              } ]
            } ]
          } ],
          "qualification": [ {
            "code": {
              "coding": [ {
                "system": "https://fhir.kbv.de/CodeSystem/KBV_CS_FOR_Qualification_Type",
                "code": "00"
              } ]
            }
          }, {
            "code": {
              "coding": [ {
                "system": "https://fhir.kbv.de/CodeSystem/KBV_CS_FOR_Berufsbezeichnung",
                "code": "Berufsbezeichnung"
              } ],
              "text": "Super-Facharzt für alles Mögliche"
            }
          } ]
        }
      }, {
        "fullUrl": "https://pvs.gematik.de/fhir/Organization/d92beaad-985c-4b56-93b7-5cb5821ed524",
        "resource": {
          "resourceType": "Organization",
          "id": "d92beaad-985c-4b56-93b7-5cb5821ed524",
          "meta": {
            "profile": [ "https://fhir.kbv.de/StructureDefinition/KBV_PR_FOR_Organization|1.1.0" ]
          },
          "identifier": [ {
            "type": {
              "coding": [ {
                "system": "http://terminology.hl7.org/CodeSystem/v2-0203",
                "code": "BSNR"
              } ]
            },
            "system": "https://fhir.kbv.de/NamingSystem/KBV_NS_Base_BSNR",
            "value": "514769154"
          } ],
          "name": "Arztpraxis Schraßer",
          "telecom": [ {
            "system": "phone",
            "value": "(0757) 752708667"
          }, {
            "system": "email",
            "value": "peter.pietsch@faller.com"
          } ],
          "address": [ {
            "type": "both",
            "line": [ "Else-Lasker-Schüler-Str. 19a" ],
            "_line": [ {
              "extension": [ {
                "url": "http://hl7.org/fhir/StructureDefinition/iso21090-ADXP-houseNumber",
                "valueString": "19a"
              }, {
                "url": "http://hl7.org/fhir/StructureDefinition/iso21090-ADXP-streetName",
                "valueString": "Else-Lasker-Schüler-Str."
              } ]
            } ],
            "city": "Schön Janeland",
            "postalCode": "77614",
            "country": "D"
          } ]
        }
      }, {
        "fullUrl": "https://pvs.gematik.de/fhir/Medication/bafd98e3-dc24-43ea-9dfb-a42e58a67f34",
        "resource": {
          "resourceType": "Medication",
          "id": "bafd98e3-dc24-43ea-9dfb-a42e58a67f34",
          "meta": {
            "profile": [ "https://fhir.kbv.de/StructureDefinition/KBV_PR_ERP_Medication_PZN|1.1.0" ]
          },
          "extension": [ {
            "url": "https://fhir.kbv.de/StructureDefinition/KBV_EX_Base_Medication_Type",
            "valueCodeableConcept": {
              "coding": [ {
                "system": "http://snomed.info/sct",
                "version": "http://snomed.info/sct/900000000000207008/version/20220331",
                "code": "763158003",
                "display": "Medicinal product (product)"
              } ]
            }
          }, {
            "url": "https://fhir.kbv.de/StructureDefinition/KBV_EX_ERP_Medication_Category",
            "valueCoding": {
              "system": "https://fhir.kbv.de/CodeSystem/KBV_CS_ERP_Medication_Category",
              "code": "00"
            }
          }, {
            "url": "https://fhir.kbv.de/StructureDefinition/KBV_EX_ERP_Medication_Vaccine",
            "valueBoolean": false
          }, {
            "url": "http://fhir.de/StructureDefinition/normgroesse",
            "valueCode": "NB"
          } ],
          "code": {
            "coding": [ {
              "system": "http://fhir.de/CodeSystem/ifa/pzn",
              "code": "12345678"
            } ],
            "text": "Schmerzmittel"
          },
          "form": {
            "coding": [ {
              "system": "https://fhir.kbv.de/CodeSystem/KBV_CS_SFHIR_KBV_DARREICHUNGSFORM",
              "code": "TAB"
            } ]
          },
          "amount": {
            "numerator": {
              "extension": [ {
                "url": "https://fhir.kbv.de/StructureDefinition/KBV_EX_ERP_Medication_PackagingSize",
                "valueString": "1"
              } ],
              "unit": "Stk"
            },
            "denominator": {
              "value": 1
            }
          }
        }
      }, {
        "fullUrl": "https://pvs.gematik.de/fhir/MedicationRequest/ffe6da24-5c1e-4645-81f0-4a1471a0e95d",
        "resource": {
          "resourceType": "MedicationRequest",
          "id": "ffe6da24-5c1e-4645-81f0-4a1471a0e95d",
          "meta": {
            "profile": [ "https://fhir.kbv.de/StructureDefinition/KBV_PR_ERP_Prescription|1.1.0" ]
          },
          "extension": [ {
            "url": "https://fhir.kbv.de/StructureDefinition/KBV_EX_ERP_BVG",
            "valueBoolean": false
          }, {
            "url": "https://fhir.kbv.de/StructureDefinition/KBV_EX_ERP_EmergencyServicesFee",
            "valueBoolean": false
          }, {
            "url": "https://fhir.kbv.de/StructureDefinition/KBV_EX_ERP_Multiple_Prescription",
            "extension": [ {
              "url": "Kennzeichen",
              "valueBoolean": false
            } ]
          }, {
            "url": "https://fhir.kbv.de/StructureDefinition/KBV_EX_FOR_StatusCoPayment",
            "valueCoding": {
              "system": "https://fhir.kbv.de/CodeSystem/KBV_CS_FOR_StatusCoPayment",
              "code": "1"
            }
          } ],
          "status": "active",
          "intent": "order",
          "medicationReference": {
            "reference": "Medication/bafd98e3-dc24-43ea-9dfb-a42e58a67f34"
          },
          "subject": {
            "reference": "Patient/7a119d10-2f0d-405f-98c0-c0daf361fa10"
          },
          "authoredOn": "2025-03-28",
          "requester": {
            "reference": "Practitioner/cb0c9e09-c400-499f-bcaf-141fe3ff7082"
          },
          "insurance": [ {
            "reference": "Coverage/a31a7d08-7266-4ac4-a0bf-9d06fe213ca2"
          } ],
          "dosageInstruction": [ {
            "extension": [ {
              "url": "https://fhir.kbv.de/StructureDefinition/KBV_EX_ERP_DosageFlag",
              "valueBoolean": true
            } ],
            "text": "1-1-3-0-1-2"
          } ],
          "dispenseRequest": {
            "quantity": {
              "value": 1,
              "system": "http://unitsofmeasure.org",
              "code": "{Package}"
            }
          },
          "substitution": {
            "allowedBoolean": false
          }
        }
      } ],
      "signature": {
        "type": [ {
          "system": "urn:iso-astm:E1762-95:2013",
          "code": "1.2.840.10065.1.12.1.5"
        } ],
        "when": "2025-03-28T08:03:28.751+00:00",
        "who": {
          "reference": "https://erp-ref.zentral.erp.splitdns.ti-dienste.de/Device/1"
        },
        "targetFormat": "application/fhir+json",
        "sigFormat": "application/jose",
        "data": ""
      }
    }
  } ]
}