{
  "resourceType": "Bundle",
  "id": "b3816cbb-a21f-41f4-b8c3-a9fddabe3a40",
  "meta": {
    "profile": [
      "http://fhir.abda.de/eRezeptAbgabedaten/StructureDefinition/DAV-PR-ERP-AbgabedatenBundle|1.4"
    ],
    "tag": [
      {
        "display": "Beispiel für Abgabedaten für eine Wirkstoff-Verordnung Variante 4 (9c85a2a5-92ee-4a57-83cb-ba90a0df2a21)"
      },
      {
        "display": "ACHTUNG! Der fachlich korrekte Inhalt der Beispielinstanz kann nicht gewährleistet werden. Wir sind jederzeit dankbar für Hinweise auf Fehler oder für Verbesserungsvorschläge."
      }
    ]
  },
  "identifier": {
    "system": "https://gematik.de/fhir/erp/NamingSystem/GEM_ERP_NS_PrescriptionId",
    "value": "160.100.000.000.019.82"
  },
  "type": "document",
  "timestamp": "2025-01-27T10:00:00+00:00",
  "entry": [
    {
      "fullUrl": "urn:uuid:2a1e6c81-4f9d-497c-b321-2e0d121c388f",
      "resource": {
        "resourceType": "Composition",
        "id": "2a1e6c81-4f9d-497c-b321-2e0d121c388f",
        "meta": {
          "profile": [
            "http://fhir.abda.de/eRezeptAbgabedaten/StructureDefinition/DAV-PR-ERP-AbgabedatenComposition|1.4"
          ]
        },
        "status": "final",
        "type": {
          "coding": [
            {
              "system": "http://fhir.abda.de/eRezeptAbgabedaten/CodeSystem/DAV-CS-ERP-CompositionTypes",
              "code": "ERezeptAbgabedaten"
            }
          ]
        },
        "date": "2025-01-27T10:00:00Z",
        "author": [
          {
            "reference": "urn:uuid:2f7b41b2-a499-4f52-b57a-e07e710c5067"
          }
        ],
        "title": "ERezeptAbgabedaten",
        "section": [
          {
            "title": "Abgabeinformationen",
            "entry": [
              {
                "reference": "urn:uuid:97bd16a5-5170-4d0a-b17a-3ad3a0acb6b2"
              }
            ]
          },
          {
            "title": "Apotheke",
            "entry": [
              {
                "reference": "urn:uuid:2f7b41b2-a499-4f52-b57a-e07e710c5067"
              }
            ]
          }
        ]
      }
    },
    {
      "fullUrl": "urn:uuid:2f7b41b2-a499-4f52-b57a-e07e710c5067",
      "resource": {
        "resourceType": "Organization",
        "id": "2f7b41b2-a499-4f52-b57a-e07e710c5067",
        "meta": {
          "profile": [
            "http://fhir.abda.de/eRezeptAbgabedaten/StructureDefinition/DAV-PR-ERP-Apotheke|1.4"
          ]
        },
        "identifier": [
          {
            "system": "http://fhir.de/sid/arge-ik/iknr",
            "value": "308412345"
          }
        ],
        "name": "Adler-Apotheke",
        "address": [
          {
            "type": "physical",
            "line": [
              "Taunusstraße 89"
            ],
            "_line": [
              {
                "extension": [
                  {
                    "url": "http://hl7.org/fhir/StructureDefinition/iso21090-ADXP-streetName",
                    "valueString": "Taunusstraße"
                  },
                  {
                    "url": "http://hl7.org/fhir/StructureDefinition/iso21090-ADXP-houseNumber",
                    "valueString": "89"
                  }
                ]
              }
            ],
            "city": "Langen",
            "postalCode": "63225",
            "country": "D"
          }
        ]
      }
    },
    {
      "fullUrl": "urn:uuid:97bd16a5-5170-4d0a-b17a-3ad3a0acb6b2",
      "resource": {
        "resourceType": "MedicationDispense",
        "id": "97bd16a5-5170-4d0a-b17a-3ad3a0acb6b2",
        "meta": {
          "profile": [
            "http://fhir.abda.de/eRezeptAbgabedaten/StructureDefinition/DAV-PR-ERP-Abgabeinformationen|1.4"
          ]
        },
        "extension": [
          {
            "url": "http://fhir.abda.de/eRezeptAbgabedaten/StructureDefinition/DAV-EX-ERP-Abrechnungszeilen",
            "valueReference": {
              "reference": "urn:uuid:19c29610-5399-4145-ba46-62e0de0f1b77"
            }
          }
        ],
        "status": "completed",
        "medicationCodeableConcept": {
          "coding": [
            {
              "system": "http://terminology.hl7.org/CodeSystem/data-absent-reason",
              "code": "not-applicable"
            }
          ]
        },
        "performer": [
          {
            "actor": {
              "reference": "urn:uuid:2f7b41b2-a499-4f52-b57a-e07e710c5067"
            }
          }
        ],
        "authorizingPrescription": [
          {
            "identifier": {
              "system": "https://gematik.de/fhir/erp/NamingSystem/GEM_ERP_NS_PrescriptionId",
              "value": "160.100.000.000.019.82"
            }
          }
        ],
        "type": {
          "coding": [
            {
              "system": "http://fhir.abda.de/eRezeptAbgabedaten/CodeSystem/DAV-CS-ERP-MedicationDispenseTyp",
              "code": "Abgabeinformationen"
            }
          ]
        },
        "whenHandedOver": "2025-01-27"
      }
    },
    {
      "fullUrl": "urn:uuid:19c29610-5399-4145-ba46-62e0de0f1b77",
      "resource": {
        "resourceType": "Invoice",
        "id": "19c29610-5399-4145-ba46-62e0de0f1b77",
        "meta": {
          "profile": [
            "http://fhir.abda.de/eRezeptAbgabedaten/StructureDefinition/DAV-PR-ERP-Abrechnungszeilen|1.4"
          ]
        },
        "status": "issued",
        "type": {
          "coding": [
            {
              "system": "http://fhir.abda.de/eRezeptAbgabedaten/CodeSystem/DAV-CS-ERP-InvoiceTyp",
              "code": "Abrechnungszeilen"
            }
          ]
        },
        "lineItem": [
          {
            "extension": [
              {
                "extension": [
                  {
                    "extension": [
                      {
                        "extension": [
                          {
                            "url": "Schluessel",
                            "valueCodeableConcept": {
                              "coding": [
                                {
                                  "system": "http://fhir.abda.de/eRezeptAbgabedaten/CodeSystem/DAV-CS-ERP-ZusatzattributFAMSchluesselMarkt",
                                  "code": "1"
                                }
                              ]
                            }
                          },
                          {
                            "url": "Gruppe",
                            "valueCodeableConcept": {
                              "coding": [
                                {
                                  "system": "http://fhir.abda.de/eRezeptAbgabedaten/CodeSystem/DAV-CS-ERP-ZusatzattributGruppe",
                                  "code": "1"
                                }
                              ]
                            }
                          }
                        ],
                        "url": "Markt"
                      },
                      {
                        "extension": [
                          {
                            "url": "Gruppe",
                            "valueCodeableConcept": {
                              "coding": [
                                {
                                  "system": "http://fhir.abda.de/eRezeptAbgabedaten/CodeSystem/DAV-CS-ERP-ZusatzattributGruppe",
                                  "code": "2"
                                }
                              ]
                            }
                          },
                          {
                            "url": "Schluessel",
                            "valueCodeableConcept": {
                              "coding": [
                                {
                                  "system": "http://fhir.abda.de/eRezeptAbgabedaten/CodeSystem/DAV-CS-ERP-ZusatzattributFAMSchluesselAbgaberangfolge",
                                  "code": "0"
                                }
                              ]
                            }
                          }
                        ],
                        "url": "Rabattvertragserfuellung"
                      },
                      {
                        "extension": [
                          {
                            "url": "Gruppe",
                            "valueCodeableConcept": {
                              "coding": [
                                {
                                  "system": "http://fhir.abda.de/eRezeptAbgabedaten/CodeSystem/DAV-CS-ERP-ZusatzattributGruppe",
                                  "code": "3"
                                }
                              ]
                            }
                          },
                          {
                            "url": "Schluessel",
                            "valueCodeableConcept": {
                              "coding": [
                                {
                                  "system": "http://fhir.abda.de/eRezeptAbgabedaten/CodeSystem/DAV-CS-ERP-ZusatzattributFAMSchluesselAbgaberangfolge",
                                  "code": "0"
                                }
                              ]
                            }
                          }
                        ],
                        "url": "PreisguenstigesFAM"
                      },
                      {
                        "extension": [
                          {
                            "url": "Gruppe",
                            "valueCodeableConcept": {
                              "coding": [
                                {
                                  "system": "http://fhir.abda.de/eRezeptAbgabedaten/CodeSystem/DAV-CS-ERP-ZusatzattributGruppe",
                                  "code": "4"
                                }
                              ]
                            }
                          },
                          {
                            "url": "Schluessel",
                            "valueCodeableConcept": {
                              "coding": [
                                {
                                  "system": "http://fhir.abda.de/eRezeptAbgabedaten/CodeSystem/DAV-CS-ERP-ZusatzattributFAMSchluesselImportFAM",
                                  "code": "0"
                                }
                              ]
                            }
                          }
                        ],
                        "url": "ImportFAM"
                      }
                    ],
                    "url": "ZusatzattributFAM"
                  },
                  {
                    "extension": [
                      {
                        "url": "Schluessel",
                        "valueBoolean": true
                      },
                      {
                        "url": "Gruppe",
                        "valueCodeableConcept": {
                          "coding": [
                            {
                              "system": "http://fhir.abda.de/eRezeptAbgabedaten/CodeSystem/DAV-CS-ERP-ZusatzattributGruppe",
                              "code": "6"
                            }
                          ]
                        }
                      }
                    ],
                    "url": "ZusatzattributWunscharzneimittel"
                  }
                ],
                "url": "http://fhir.abda.de/eRezeptAbgabedaten/StructureDefinition/DAV-EX-ERP-Zusatzattribute"
              },
              {
                "url": "http://fhir.abda.de/eRezeptAbgabedaten/StructureDefinition/DAV-EX-ERP-Chargenbezeichnung",
                "valueString": "A123456789-1"
              }
            ],
            "sequence": 1,
            "chargeItemCodeableConcept": {
              "coding": [
                {
                  "system": "http://fhir.de/CodeSystem/ifa/pzn",
                  "code": "01097987"
                }
              ]
            },
            "priceComponent": [
              {
                "extension": [
                  {
                    "url": "http://fhir.abda.de/eRezeptAbgabedaten/StructureDefinition/DAV-EX-ERP-MwStSatz",
                    "valueDecimal": 19.00
                  },
                  {
                    "extension": [
                      {
                        "url": "Kategorie",
                        "valueCodeableConcept": {
                          "coding": [
                            {
                              "system": "http://fhir.abda.de/eRezeptAbgabedaten/CodeSystem/DAV-CS-ERP-KostenVersicherterKategorie",
                              "code": "0"
                            }
                          ]
                        }
                      },
                      {
                        "url": "Kostenbetrag",
                        "valueMoney": {
                          "value": 0.00,
                          "currency": "EUR"
                        }
                      }
                    ],
                    "url": "http://fhir.abda.de/eRezeptAbgabedaten/StructureDefinition/DAV-EX-ERP-KostenVersicherter"
                  }
                ],
                "type": "informational",
                "factor": 1,
                "amount": {
                  "value": 0.00,
                  "currency": "EUR"
                }
              }
            ]
          }
        ],
        "totalGross": {
          "extension": [
            {
              "url": "http://fhir.abda.de/eRezeptAbgabedaten/StructureDefinition/DAV-EX-ERP-Gesamtzuzahlung",
              "valueMoney": {
                "value": 0.00,
                "currency": "EUR"
              }
            }
          ],
          "value": 0.00,
          "currency": "EUR"
        }
      }
    }
  ]
}