{
  "resourceType": "Bundle",
  "id": "dffbfd6a-5712-4798-bdc8-07201eb77ab8",
  "meta": {
    "profile": [
      "https://gematik.de/fhir/erp/StructureDefinition/GEM_ERP_PR_Bundle|1.2"
    ],
    "tag": [
      {
        "display": "Receipt Bundle 'Quittung' for completed dispensation of a prescription"
      }
    ]
  },
  "identifier": {
    "system": "https://gematik.de/fhir/erp/NamingSystem/GEM_ERP_NS_PrescriptionId",
    "value": "160.000.033.491.280.78"
  },
  "type": "document",
  "timestamp": "2022-03-18T15:28:00+00:00",
  "entry": [
    {
      "fullUrl": "urn:uuid:c624cf47-e235-4624-af71-0a09dc9254dc",
      "resource": {
        "resourceType": "Composition",
        "id": "c624cf47-e235-4624-af71-0a09dc9254dc",
        "meta": {
          "profile": [
            "https://gematik.de/fhir/erp/StructureDefinition/GEM_ERP_PR_Composition|1.2"
          ]
        },
        "extension": [
          {
            "url": "https://gematik.de/fhir/erp/StructureDefinition/GEM_ERP_EX_Beneficiary",
            "valueIdentifier": {
              "system": "https://gematik.de/fhir/sid/telematik-id",
              "value": "3-SMC-B-Testkarte-883110000129070"
            }
          }
        ],
        "status": "final",
        "type": {
          "coding": [
            {
              "system": "https://gematik.de/fhir/erp/CodeSystem/GEM_ERP_CS_DocumentType",
              "code": "3",
              "display": "Receipt"
            }
          ]
        },
        "date": "2022-03-18T15:29:00+00:00",
        "author": [
          {
            "reference": "https://erp.zentral.erp.splitdns.ti-dienste.de/Device/1"
          }
        ],
        "title": "Quittung",
        "event": [
          {
            "period": {
              "start": "2022-03-18T15:28:00+00:00",
              "end": "2022-03-18T15:29:00+00:00"
            }
          }
        ],
        "section": [
          {
            "entry": [
              {
                "reference": "Binary/PrescriptionDigest-160.123.456.789.123.58"
              }
            ]
          }
        ]
      }
    },
    {
      "fullUrl": "https://erp.zentral.erp.splitdns.ti-dienste.de/Device/1",
      "resource": {
        "resourceType": "Device",
        "id": "1",
        "meta": {
          "profile": [
            "https://gematik.de/fhir/erp/StructureDefinition/GEM_ERP_PR_Device|1.2"
          ]
        },
        "status": "active",
        "serialNumber": "1.4.0",
        "deviceName": [
          {
            "name": "E-Rezept-Fachdienst",
            "type": "user-friendly-name"
          }
        ],
        "version": [
          {
            "value": "1.4.0"
          }
        ],
        "contact": [
          {
            "system": "email",
            "value": "betrieb@gematik.de"
          }
        ]
      }
    },
    {
      "fullUrl": "https://erp.zentral.erp.splitdns.ti-dienste.de/Task/160.000.080.761.527.39/PrescriptionDigest-160.123.456.789.123.58",
      "resource": {
        "resourceType": "Binary",
        "id": "PrescriptionDigest-160.123.456.789.123.58",
        "meta": {
          "profile": [
            "https://gematik.de/fhir/erp/StructureDefinition/GEM_ERP_PR_Digest|1.2"
          ]
        },
        "contentType": "application/octet-stream",
        "data": "tJg8c5ZtdhzEEhJ0ZpAsUVFx5dKuYgQFs5oKgthi17M="
      }
    }
  ],
  "signature": {
    "type": [
      {
        "system": "urn:iso-astm:E1762-95:2013",
        "code": "1.2.840.10065.1.12.1.1"
      }
    ],
    "when": "2022-03-18T15:28:00+00:00",
    "who": {
      "reference": "https://erp.zentral.erp.splitdns.ti-dienste.de/Device/1"
    },
    "sigFormat": "application/pkcs7-mime",
    "data": "dGhpcyBibG9iIGlzIHNuaXBwZWQ="
  }
}