<Parameters xmlns="http://hl7.org/fhir">
   <id value="26581d17-e7d2-42e2-969f-137b74a3b813"/>
   <meta>
      <profile value="https://gematik.de/fhir/erp/StructureDefinition/GEM_ERP_PR_PAR_CloseOperation_Input|1.4"/>
   </meta>
   <parameter>
      <name value="rxDispensation"/>
      <part>
         <name value="medicationDispense"/>
         <resource>
            <MedicationDispense xmlns="http://hl7.org/fhir">
               <id value="270e5759-3543-4fa4-96ac-9f0310be4d48"/>
               <meta>
                  <profile value="https://gematik.de/fhir/erp/StructureDefinition/GEM_ERP_PR_MedicationDispense|1.4"/>
               </meta>
               <identifier>
                  <system value="https://gematik.de/fhir/erp/NamingSystem/GEM_ERP_NS_PrescriptionId"/>
                  <value value="160.000.239.761.403.45"/>
               </identifier>
               <status value="completed"/>
               <medicationReference>
                  <reference value="2512caa1-7865-49fe-9384-ffbfd8621589"/>
               </medicationReference>
               <subject>
                  <identifier>
                     <system value="http://fhir.de/sid/gkv/kvid-10"/>
                     <value value="X110614233"/>
                  </identifier>
               </subject>
               <performer>
                  <actor>
                     <identifier>
                        <system value="https://gematik.de/fhir/sid/telematik-id"/>
                        <value value="3-SMC-B-Testkarte--883110000163973"/>
                     </identifier>
                  </actor>
               </performer>
               <whenPrepared value="2025-03-28"/>
               <whenHandedOver value="2025-03-28"/>
               <substitution>
                  <wasSubstituted value="true"/>
               </substitution>
            </MedicationDispense>
         </resource>
      </part>
      <part>
         <name value="medication"/>
         <resource>
            <Medication xmlns="http://hl7.org/fhir">
               <id value="2512caa1-7865-49fe-9384-ffbfd8621589"/>
               <meta>
                  <profile value="https://gematik.de/fhir/erp/StructureDefinition/GEM_ERP_PR_Medication|1.4"/>
               </meta>
               <extension url="https://gematik.de/fhir/epa-medication/StructureDefinition/drug-category-extension">
                  <valueCoding>
                     <system value="https://gematik.de/fhir/epa-medication/CodeSystem/epa-drug-category-cs"/>
                     <code value="01"/>
                  </valueCoding>
               </extension>
               <extension url="https://gematik.de/fhir/epa-medication/StructureDefinition/medication-id-vaccine-extension">
                  <valueBoolean value="false"/>
               </extension>
               <extension url="http://fhir.de/StructureDefinition/normgroesse">
                  <valueCode value="N1"/>
               </extension>
               <code>
                  <coding>
                     <system value="http://fhir.de/CodeSystem/ifa/pzn"/>
                     <code value="04100230"/>
                  </coding>
                  <text value="IBUFLAM akut"/>
               </code>
               <form>
                  <coding>
                     <system value="https://fhir.kbv.de/CodeSystem/KBV_CS_SFHIR_KBV_DARREICHUNGSFORM"/>
                     <code value="FTA"/>
                  </coding>
               </form>
               <amount>
                  <numerator>
                     <extension url="https://gematik.de/fhir/epa-medication/StructureDefinition/medication-total-quantity-formulation-extension">
                        <valueString value="10"/>
                     </extension>
                     <value value="10"/>
                     <unit value="Stk"/>
                  </numerator>
                  <denominator>
                     <value value="1"/>
                  </denominator>
               </amount>
               <batch>
                  <lotNumber value="0716916236"/>
                  <expirationDate value="2025-04-22T02:59:29+02:00"/>
               </batch>
            </Medication>
         </resource>
      </part>
   </parameter>
   <parameter>
      <name value="rxDispensation"/>
      <part>
         <name value="medicationDispense"/>
         <resource>
            <MedicationDispense xmlns="http://hl7.org/fhir">
               <id value="2f68954a-5163-4c20-b9fa-9ea55ea3ace3"/>
               <meta>
                  <profile value="https://gematik.de/fhir/erp/StructureDefinition/GEM_ERP_PR_MedicationDispense|1.4"/>
               </meta>
               <identifier>
                  <system value="https://gematik.de/fhir/erp/NamingSystem/GEM_ERP_NS_PrescriptionId"/>
                  <value value="160.000.239.761.403.45"/>
               </identifier>
               <status value="completed"/>
               <medicationReference>
                  <reference value="3a38dc8d-b9a9-4a79-b6cb-9fb3cf0382ae"/>
               </medicationReference>
               <subject>
                  <identifier>
                     <system value="http://fhir.de/sid/gkv/kvid-10"/>
                     <value value="X110614233"/>
                  </identifier>
               </subject>
               <performer>
                  <actor>
                     <identifier>
                        <system value="https://gematik.de/fhir/sid/telematik-id"/>
                        <value value="3-SMC-B-Testkarte--883110000163973"/>
                     </identifier>
                  </actor>
               </performer>
               <whenPrepared value="2025-03-28"/>
               <whenHandedOver value="2025-03-28"/>
               <substitution>
                  <wasSubstituted value="true"/>
               </substitution>
            </MedicationDispense>
         </resource>
      </part>
      <part>
         <name value="medication"/>
         <resource>
            <Medication xmlns="http://hl7.org/fhir">
               <id value="3a38dc8d-b9a9-4a79-b6cb-9fb3cf0382ae"/>
               <meta>
                  <profile value="https://gematik.de/fhir/erp/StructureDefinition/GEM_ERP_PR_Medication|1.4"/>
               </meta>
               <extension url="https://gematik.de/fhir/epa-medication/StructureDefinition/drug-category-extension">
                  <valueCoding>
                     <system value="https://gematik.de/fhir/epa-medication/CodeSystem/epa-drug-category-cs"/>
                     <code value="01"/>
                  </valueCoding>
               </extension>
               <extension url="https://gematik.de/fhir/epa-medication/StructureDefinition/medication-id-vaccine-extension">
                  <valueBoolean value="false"/>
               </extension>
               <extension url="http://fhir.de/StructureDefinition/normgroesse">
                  <valueCode value="N2"/>
               </extension>
               <code>
                  <coding>
                     <system value="http://fhir.de/CodeSystem/ifa/pzn"/>
                     <code value="04100218"/>
                  </coding>
                  <text value="IBUFLAM akut"/>
               </code>
               <form>
                  <coding>
                     <system value="https://fhir.kbv.de/CodeSystem/KBV_CS_SFHIR_KBV_DARREICHUNGSFORM"/>
                     <code value="FTA"/>
                  </coding>
               </form>
               <amount>
                  <numerator>
                     <extension url="https://gematik.de/fhir/epa-medication/StructureDefinition/medication-total-quantity-formulation-extension">
                        <valueString value="20"/>
                     </extension>
                     <value value="20"/>
                     <unit value="Stk"/>
                  </numerator>
                  <denominator>
                     <value value="1"/>
                  </denominator>
               </amount>
               <batch>
                  <lotNumber value="4906056231"/>
                  <expirationDate value="2025-04-21T15:54:37+02:00"/>
               </batch>
            </Medication>
         </resource>
      </part>
   </parameter>
   <parameter>
      <name value="rxDispensation"/>
      <part>
         <name value="medicationDispense"/>
         <resource>
            <MedicationDispense xmlns="http://hl7.org/fhir">
               <id value="3a8bfad1-ea31-47f9-bf82-372790b06315"/>
               <meta>
                  <profile value="https://gematik.de/fhir/erp/StructureDefinition/GEM_ERP_PR_MedicationDispense|1.4"/>
               </meta>
               <identifier>
                  <system value="https://gematik.de/fhir/erp/NamingSystem/GEM_ERP_NS_PrescriptionId"/>
                  <value value="160.000.239.761.403.45"/>
               </identifier>
               <status value="completed"/>
               <medicationReference>
                  <reference value="01eff000-e8e9-441d-98a9-ffda41ecc46c"/>
               </medicationReference>
               <subject>
                  <identifier>
                     <system value="http://fhir.de/sid/gkv/kvid-10"/>
                     <value value="X110614233"/>
                  </identifier>
               </subject>
               <performer>
                  <actor>
                     <identifier>
                        <system value="https://gematik.de/fhir/sid/telematik-id"/>
                        <value value="3-SMC-B-Testkarte--883110000163973"/>
                     </identifier>
                  </actor>
               </performer>
               <whenPrepared value="2025-03-28"/>
               <whenHandedOver value="2025-03-28"/>
               <substitution>
                  <wasSubstituted value="true"/>
               </substitution>
            </MedicationDispense>
         </resource>
      </part>
      <part>
         <name value="medication"/>
         <resource>
            <Medication xmlns="http://hl7.org/fhir">
               <id value="01eff000-e8e9-441d-98a9-ffda41ecc46c"/>
               <meta>
                  <profile value="https://gematik.de/fhir/erp/StructureDefinition/GEM_ERP_PR_Medication|1.4"/>
               </meta>
               <extension url="https://gematik.de/fhir/epa-medication/StructureDefinition/drug-category-extension">
                  <valueCoding>
                     <system value="https://gematik.de/fhir/epa-medication/CodeSystem/epa-drug-category-cs"/>
                     <code value="01"/>
                  </valueCoding>
               </extension>
               <extension url="https://gematik.de/fhir/epa-medication/StructureDefinition/medication-id-vaccine-extension">
                  <valueBoolean value="false"/>
               </extension>
               <extension url="http://fhir.de/StructureDefinition/normgroesse">
                  <valueCode value="N2"/>
               </extension>
               <code>
                  <coding>
                     <system value="http://fhir.de/CodeSystem/ifa/pzn"/>
                     <code value="04100218"/>
                  </coding>
                  <text value="IBUFLAM akut"/>
               </code>
               <form>
                  <coding>
                     <system value="https://fhir.kbv.de/CodeSystem/KBV_CS_SFHIR_KBV_DARREICHUNGSFORM"/>
                     <code value="FTA"/>
                  </coding>
               </form>
               <amount>
                  <numerator>
                     <extension url="https://gematik.de/fhir/epa-medication/StructureDefinition/medication-total-quantity-formulation-extension">
                        <valueString value="20"/>
                     </extension>
                     <value value="20"/>
                     <unit value="Stk"/>
                  </numerator>
                  <denominator>
                     <value value="1"/>
                  </denominator>
               </amount>
               <batch>
                  <lotNumber value="3754443608"/>
                  <expirationDate value="2025-04-23T05:38:45+02:00"/>
               </batch>
            </Medication>
         </resource>
      </part>
   </parameter>
</Parameters>