{
  "resourceType": "Bundle",
  "id": "57273c15-dc85-4b9d-9892-a3b1bb4f8929",
  "type": "searchset",
  "timestamp": "2025-03-28T08:05:02.380+00:00",
  "total": 0,
  "entry": [ {
    "fullUrl": "https://erp-ref.zentral.erp.splitdns.ti-dienste.de/MedicationDispense/160.000.239.761.403.45",
    "resource": {
      "resourceType": "MedicationDispense",
      "id": "160.000.239.761.403.45",
      "meta": {
        "profile": [ "https://gematik.de/fhir/erp/StructureDefinition/GEM_ERP_PR_MedicationDispense|1.4" ]
      },
      "identifier": [ {
        "system": "https://gematik.de/fhir/erp/NamingSystem/GEM_ERP_NS_PrescriptionId",
        "value": "160.000.239.761.403.45"
      } ],
      "status": "completed",
      "medicationReference": {
        "reference": "urn:uuid:12c7fffb-fbda-41f4-b808-785737422611"
      },
      "subject": {
        "identifier": {
          "system": "http://fhir.de/sid/gkv/kvid-10",
          "value": "X110614233"
        }
      },
      "performer": [ {
        "actor": {
          "identifier": {
            "system": "https://gematik.de/fhir/sid/telematik-id",
            "value": "3-SMC-B-Testkarte--883110000163973"
          }
        }
      } ],
      "whenPrepared": "2025-03-28",
      "whenHandedOver": "2025-03-28",
      "substitution": {
        "wasSubstituted": true
      }
    },
    "search": {
      "mode": "match"
    }
  }, {
    "fullUrl": "https://erp-ref.zentral.erp.splitdns.ti-dienste.de/MedicationDispense/160.000.239.761.403.45-1",
    "resource": {
      "resourceType": "MedicationDispense",
      "id": "160.000.239.761.403.45-1",
      "meta": {
        "profile": [ "https://gematik.de/fhir/erp/StructureDefinition/GEM_ERP_PR_MedicationDispense|1.4" ]
      },
      "identifier": [ {
        "system": "https://gematik.de/fhir/erp/NamingSystem/GEM_ERP_NS_PrescriptionId",
        "value": "160.000.239.761.403.45"
      } ],
      "status": "completed",
      "medicationReference": {
        "reference": "urn:uuid:8a78c6f9-40c7-4970-b37d-a02c01dad77a"
      },
      "subject": {
        "identifier": {
          "system": "http://fhir.de/sid/gkv/kvid-10",
          "value": "X110614233"
        }
      },
      "performer": [ {
        "actor": {
          "identifier": {
            "system": "https://gematik.de/fhir/sid/telematik-id",
            "value": "3-SMC-B-Testkarte--883110000163973"
          }
        }
      } ],
      "whenPrepared": "2025-03-28",
      "whenHandedOver": "2025-03-28",
      "substitution": {
        "wasSubstituted": true
      }
    },
    "search": {
      "mode": "match"
    }
  }, {
    "fullUrl": "https://erp-ref.zentral.erp.splitdns.ti-dienste.de/MedicationDispense/160.000.239.761.403.45-2",
    "resource": {
      "resourceType": "MedicationDispense",
      "id": "160.000.239.761.403.45-2",
      "meta": {
        "profile": [ "https://gematik.de/fhir/erp/StructureDefinition/GEM_ERP_PR_MedicationDispense|1.4" ]
      },
      "identifier": [ {
        "system": "https://gematik.de/fhir/erp/NamingSystem/GEM_ERP_NS_PrescriptionId",
        "value": "160.000.239.761.403.45"
      } ],
      "status": "completed",
      "medicationReference": {
        "reference": "urn:uuid:f45b03a8-35f3-404b-83ad-bb1d06b5af51"
      },
      "subject": {
        "identifier": {
          "system": "http://fhir.de/sid/gkv/kvid-10",
          "value": "X110614233"
        }
      },
      "performer": [ {
        "actor": {
          "identifier": {
            "system": "https://gematik.de/fhir/sid/telematik-id",
            "value": "3-SMC-B-Testkarte--883110000163973"
          }
        }
      } ],
      "whenPrepared": "2025-03-28",
      "whenHandedOver": "2025-03-28",
      "substitution": {
        "wasSubstituted": true
      }
    },
    "search": {
      "mode": "match"
    }
  }, {
    "fullUrl": "urn:uuid:12c7fffb-fbda-41f4-b808-785737422611",
    "resource": {
      "resourceType": "Medication",
      "id": "12c7fffb-fbda-41f4-b808-785737422611",
      "meta": {
        "profile": [ "https://gematik.de/fhir/erp/StructureDefinition/GEM_ERP_PR_Medication|1.4" ]
      },
      "extension": [ {
        "url": "https://gematik.de/fhir/epa-medication/StructureDefinition/drug-category-extension",
        "valueCoding": {
          "system": "https://gematik.de/fhir/epa-medication/CodeSystem/epa-drug-category-cs",
          "code": "01"
        }
      }, {
        "url": "https://gematik.de/fhir/epa-medication/StructureDefinition/medication-id-vaccine-extension",
        "valueBoolean": false
      }, {
        "url": "http://fhir.de/StructureDefinition/normgroesse",
        "valueCode": "N1"
      } ],
      "code": {
        "coding": [ {
          "system": "http://fhir.de/CodeSystem/ifa/pzn",
          "code": "04100230"
        } ],
        "text": "IBUFLAM akut"
      },
      "form": {
        "coding": [ {
          "system": "https://fhir.kbv.de/CodeSystem/KBV_CS_SFHIR_KBV_DARREICHUNGSFORM",
          "code": "FTA"
        } ]
      },
      "amount": {
        "numerator": {
          "extension": [ {
            "url": "https://gematik.de/fhir/epa-medication/StructureDefinition/medication-total-quantity-formulation-extension",
            "valueString": "10"
          } ],
          "value": 10,
          "unit": "Stk"
        },
        "denominator": {
          "value": 1
        }
      },
      "batch": {
        "lotNumber": "0716916236",
        "expirationDate": "2025-04-22T02:59:29+02:00"
      }
    },
    "search": {
      "mode": "include"
    }
  }, {
    "fullUrl": "urn:uuid:8a78c6f9-40c7-4970-b37d-a02c01dad77a",
    "resource": {
      "resourceType": "Medication",
      "id": "8a78c6f9-40c7-4970-b37d-a02c01dad77a",
      "meta": {
        "profile": [ "https://gematik.de/fhir/erp/StructureDefinition/GEM_ERP_PR_Medication|1.4" ]
      },
      "extension": [ {
        "url": "https://gematik.de/fhir/epa-medication/StructureDefinition/drug-category-extension",
        "valueCoding": {
          "system": "https://gematik.de/fhir/epa-medication/CodeSystem/epa-drug-category-cs",
          "code": "01"
        }
      }, {
        "url": "https://gematik.de/fhir/epa-medication/StructureDefinition/medication-id-vaccine-extension",
        "valueBoolean": false
      }, {
        "url": "http://fhir.de/StructureDefinition/normgroesse",
        "valueCode": "N2"
      } ],
      "code": {
        "coding": [ {
          "system": "http://fhir.de/CodeSystem/ifa/pzn",
          "code": "04100218"
        } ],
        "text": "IBUFLAM akut"
      },
      "form": {
        "coding": [ {
          "system": "https://fhir.kbv.de/CodeSystem/KBV_CS_SFHIR_KBV_DARREICHUNGSFORM",
          "code": "FTA"
        } ]
      },
      "amount": {
        "numerator": {
          "extension": [ {
            "url": "https://gematik.de/fhir/epa-medication/StructureDefinition/medication-total-quantity-formulation-extension",
            "valueString": "20"
          } ],
          "value": 20,
          "unit": "Stk"
        },
        "denominator": {
          "value": 1
        }
      },
      "batch": {
        "lotNumber": "4906056231",
        "expirationDate": "2025-04-21T15:54:37+02:00"
      }
    },
    "search": {
      "mode": "include"
    }
  }, {
    "fullUrl": "urn:uuid:f45b03a8-35f3-404b-83ad-bb1d06b5af51",
    "resource": {
      "resourceType": "Medication",
      "id": "f45b03a8-35f3-404b-83ad-bb1d06b5af51",
      "meta": {
        "profile": [ "https://gematik.de/fhir/erp/StructureDefinition/GEM_ERP_PR_Medication|1.4" ]
      },
      "extension": [ {
        "url": "https://gematik.de/fhir/epa-medication/StructureDefinition/drug-category-extension",
        "valueCoding": {
          "system": "https://gematik.de/fhir/epa-medication/CodeSystem/epa-drug-category-cs",
          "code": "01"
        }
      }, {
        "url": "https://gematik.de/fhir/epa-medication/StructureDefinition/medication-id-vaccine-extension",
        "valueBoolean": false
      }, {
        "url": "http://fhir.de/StructureDefinition/normgroesse",
        "valueCode": "N2"
      } ],
      "code": {
        "coding": [ {
          "system": "http://fhir.de/CodeSystem/ifa/pzn",
          "code": "04100218"
        } ],
        "text": "IBUFLAM akut"
      },
      "form": {
        "coding": [ {
          "system": "https://fhir.kbv.de/CodeSystem/KBV_CS_SFHIR_KBV_DARREICHUNGSFORM",
          "code": "FTA"
        } ]
      },
      "amount": {
        "numerator": {
          "extension": [ {
            "url": "https://gematik.de/fhir/epa-medication/StructureDefinition/medication-total-quantity-formulation-extension",
            "valueString": "20"
          } ],
          "value": 20,
          "unit": "Stk"
        },
        "denominator": {
          "value": 1
        }
      },
      "batch": {
        "lotNumber": "3754443608",
        "expirationDate": "2025-04-23T05:38:45+02:00"
      }
    },
    "search": {
      "mode": "include"
    }
  } ]
}