<Bundle xmlns="http://hl7.org/fhir">
    <id value="erp-abrufen-09-response-taskClose"/>
    <meta>
        <profile value="https://gematik.de/fhir/erp/StructureDefinition/GEM_ERP_PR_Bundle|1.5"/>
    </meta>
    <identifier>
        <system value="https://gematik.de/fhir/erp/NamingSystem/GEM_ERP_NS_PrescriptionId"/>
        <value value="160.000.000.000.000.01"/>
    </identifier>
    <type value="document"/>
    <timestamp value="2025-01-15T15:29:00.434+00:00"/>
    <link>
        <relation value="self"/>
        <url value="https://erp-ref.zentral.erp.splitdns.ti-dienste.de/Task/160.000.000.000.000.01/$close/"/>
    </link>
    <entry>
        <fullUrl value="urn:uuid:c624cf47-e235-4624-af71-0a09dc9254dc"/>
        <resource>
            <Composition>
                <id value="c624cf47-e235-4624-af71-0a09dc9254dc"/>
                <meta>
                    <profile value="https://gematik.de/fhir/erp/StructureDefinition/GEM_ERP_PR_Composition|1.5"/>
                </meta>
                <extension url="https://gematik.de/fhir/erp/StructureDefinition/GEM_ERP_EX_Beneficiary">
                    <valueIdentifier>
                        <system value="https://gematik.de/fhir/sid/telematik-id"/>
                        <value value="3-SMC-B-Testkarte-883110000129070"/>
                    </valueIdentifier>
                </extension>
                <status value="final"/>
                <type>
                    <coding>
                        <system value="https://gematik.de/fhir/erp/CodeSystem/GEM_ERP_CS_DocumentType"/>
                        <code value="3"/>
                        <display value="Receipt"/>
                    </coding>
                </type>
                <date value="2025-01-15T15:29:00.434+00:00"/>
                <author>
                    <reference value="urn:uuid:65ea903d-b3ea-4b5e-acbd-3e8c2c695542"/>
                </author>
                <title value="Quittung"/>
                <event>
                    <period>
                        <start value="2025-01-15T15:29:00.434+00:00"/>
                        <end value="2025-01-15T16:29:00.434+00:00"/>
                    </period>
                </event>
                <section>
                    <entry>
                        <reference value="urn:uuid:073ef818-3d18-4cf0-a5b7-9321ec838f94"/>
                    </entry>
                </section>
            </Composition>
        </resource>
    </entry>
    <entry>
        <fullUrl value="urn:uuid:65ea903d-b3ea-4b5e-acbd-3e8c2c695542"/>
        <resource>
            <Device>
                <id value="1"/>
                <meta>
                    <profile value="https://gematik.de/fhir/erp/StructureDefinition/GEM_ERP_PR_Device|1.5"/>
                </meta>
                <status value="active"/>
                <serialNumber value="1.16.0"/>
                <deviceName>
                    <name value="E-Rezept-Fachdienst"/>
                    <type value="user-friendly-name"/>
                </deviceName>
                <version>
                    <value value="1.16.0"/>
                </version>
                <contact>
                    <system value="email"/>
                    <value value="betrieb@gematik.de"/>
                </contact>
            </Device>
        </resource>
    </entry>
    <entry>
        <fullUrl value="urn:uuid:073ef818-3d18-4cf0-a5b7-9321ec838f94"/>
        <resource>
            <Binary>
                <id value="073ef818-3d18-4cf0-a5b7-9321ec838f94"/>
                <meta>
                    <versionId value="1"/>
                    <profile value="https://gematik.de/fhir/erp/StructureDefinition/GEM_ERP_PR_Digest|1.5"/>
                </meta>
                <contentType value="application/octet-stream"/>
                <data value="tJg8c5ZtdhzEEhJ0ZpAsUVFx5dKuYgQFs5oKgthi17M="/>
            </Binary>
        </resource>
    </entry>
    <signature>
        <type>
            <system value="urn:iso-astm:E1762-95:2013"/>
            <code value="1.2.840.10065.1.12.1.1"/>
        </type>
        <when value="2025-01-15T15:29:00.434+00:00"/>
        <who>
            <reference value="https://erp.zentral.erp.splitdns.ti-dienste.de/Device/1"/>
        </who>
        <sigFormat value="application/pkcs7-mime"/>
        <data value="RGllcyBpc3QgZWluIEJlaXNwaWVs"/>
    </signature>
</Bundle>