<Bundle xmlns="http://hl7.org/fhir">
	<id value="f592f66a-faa9-4366-a5b3-e97d9ed3189c" />
	<meta>
		<profile value="https://fhir.kbv.de/StructureDefinition/KBV_PR_ERP_Bundle|1.1.0" />
	</meta>
	<identifier>
		<system value="https://gematik.de/fhir/erp/NamingSystem/GEM_ERP_NS_PrescriptionId" />
		<value value="160.000.239.761.379.20" />
	</identifier>
	<type value="document" />
	<timestamp value="2025-03-28T09:03:53.538+01:00" />
	<entry>
		<fullUrl value="https://pvs.gematik.de/fhir/Composition/34fd8960-0e48-4e1c-a5eb-0077a3df7568" />
		<resource>
			<Composition xmlns="http://hl7.org/fhir">
				<id value="34fd8960-0e48-4e1c-a5eb-0077a3df7568" />
				<meta>
					<profile value="https://fhir.kbv.de/StructureDefinition/KBV_PR_ERP_Composition|1.1.0" />
				</meta>
				<extension url="https://fhir.kbv.de/StructureDefinition/KBV_EX_FOR_Legal_basis">
					<valueCoding>
						<system value="https://fhir.kbv.de/CodeSystem/KBV_CS_SFHIR_KBV_STATUSKENNZEICHEN" />
						<code value="00" />
					</valueCoding>
				</extension>
				<status value="final" />
				<type>
					<coding>
						<system value="https://fhir.kbv.de/CodeSystem/KBV_CS_SFHIR_KBV_FORMULAR_ART" />
						<code value="e16A" />
					</coding>
				</type>
				<subject>
					<reference value="Patient/7b68394e-a461-45b2-88dc-3873f66dbde1" />
				</subject>
				<date value="2025-03-28T09:03:53+01:00" />
				<author>
					<type value="Device" />
					<identifier>
						<system value="https://fhir.kbv.de/NamingSystem/KBV_NS_FOR_Pruefnummer" />
						<value value="GEMATIK/410/2109/36/123" />
					</identifier>
				</author>
				<author>
					<reference value="Practitioner/4d4202c6-d517-46e5-9e67-bd0e7714a6fb" />
					<type value="Practitioner" />
				</author>
				<title value="elektronische Arzneimittelverordnung" />
				<custodian>
					<reference value="Organization/39d1a85e-2a66-4ad8-b645-ebd7e15e2232" />
				</custodian>
				<section>
					<code>
						<coding>
							<system value="https://fhir.kbv.de/CodeSystem/KBV_CS_ERP_Section_Type" />
							<code value="Coverage" />
						</coding>
					</code>
					<entry>
						<reference value="Coverage/180a9e86-376c-4c52-b4a7-3d6a1e56e06a" />
					</entry>
				</section>
				<section>
					<code>
						<coding>
							<system value="https://fhir.kbv.de/CodeSystem/KBV_CS_ERP_Section_Type" />
							<code value="Prescription" />
						</coding>
					</code>
					<entry>
						<reference value="MedicationRequest/91ad4508-9431-4405-a450-fc625c0479a6" />
					</entry>
				</section>
			</Composition>
		</resource>
	</entry>
	<entry>
		<fullUrl value="https://pvs.gematik.de/fhir/Coverage/180a9e86-376c-4c52-b4a7-3d6a1e56e06a" />
		<resource>
			<Coverage xmlns="http://hl7.org/fhir">
				<id value="180a9e86-376c-4c52-b4a7-3d6a1e56e06a" />
				<meta>
					<profile value="https://fhir.kbv.de/StructureDefinition/KBV_PR_FOR_Coverage|1.1.0" />
				</meta>
				<extension url="http://fhir.de/StructureDefinition/gkv/besondere-personengruppe">
					<valueCoding>
						<system value="https://fhir.kbv.de/CodeSystem/KBV_CS_SFHIR_KBV_PERSONENGRUPPE" />
						<code value="00" />
					</valueCoding>
				</extension>
				<extension url="http://fhir.de/StructureDefinition/gkv/dmp-kennzeichen">
					<valueCoding>
						<system value="https://fhir.kbv.de/CodeSystem/KBV_CS_SFHIR_KBV_DMP" />
						<code value="00" />
					</valueCoding>
				</extension>
				<extension url="http://fhir.de/StructureDefinition/gkv/wop">
					<valueCoding>
						<system value="https://fhir.kbv.de/CodeSystem/KBV_CS_SFHIR_ITA_WOP" />
						<code value="01" />
					</valueCoding>
				</extension>
				<extension url="http://fhir.de/StructureDefinition/gkv/versichertenart">
					<valueCoding>
						<system value="https://fhir.kbv.de/CodeSystem/KBV_CS_SFHIR_KBV_VERSICHERTENSTATUS" />
						<code value="1" />
					</valueCoding>
				</extension>
				<status value="active" />
				<type>
					<coding>
						<system value="http://fhir.de/CodeSystem/versicherungsart-de-basis" />
						<code value="GKV" />
					</coding>
				</type>
				<beneficiary>
					<reference value="Patient/4c3119f2-b455-41d7-a2a7-441ab7fe08a3" />
				</beneficiary>
				<payor>
					<identifier>
						<system value="http://fhir.de/sid/arge-ik/iknr" />
						<value value="109939003" />
					</identifier>
					<display value="Deutsche BKK" />
				</payor>
			</Coverage>
		</resource>
	</entry>
	<entry>
		<fullUrl value="https://pvs.gematik.de/fhir/Patient/7b68394e-a461-45b2-88dc-3873f66dbde1" />
		<resource>
			<Patient xmlns="http://hl7.org/fhir">
				<id value="7b68394e-a461-45b2-88dc-3873f66dbde1" />
				<meta>
					<profile value="https://fhir.kbv.de/StructureDefinition/KBV_PR_FOR_Patient|1.1.0" />
				</meta>
				<identifier>
					<type>
						<coding>
							<system value="http://fhir.de/CodeSystem/identifier-type-de-basis" />
							<code value="GKV" />
						</coding>
					</type>
					<system value="http://fhir.de/sid/gkv/kvid-10" />
					<value value="X110614233" />
				</identifier>
				<name>
					<use value="official" />
					<family value="Hüllmann">
						<extension url="http://hl7.org/fhir/StructureDefinition/humanname-own-name">
							<valueString value="Hüllmann" />
						</extension>
					</family>
					<given value="Sina" />
				</name>
				<birthDate value="1988-08-24" />
				<address>
					<type value="both" />
					<line value="Im Kalkfeld 13b">
						<extension url="http://hl7.org/fhir/StructureDefinition/iso21090-ADXP-houseNumber">
							<valueString value="13b" />
						</extension>
						<extension url="http://hl7.org/fhir/StructureDefinition/iso21090-ADXP-streetName">
							<valueString value="Im Kalkfeld" />
						</extension>
					</line>
					<city value="Birkemeyerstadt" />
					<postalCode value="71391" />
					<country value="D" />
				</address>
			</Patient>
		</resource>
	</entry>
	<entry>
		<fullUrl value="https://pvs.gematik.de/fhir/Practitioner/4d4202c6-d517-46e5-9e67-bd0e7714a6fb" />
		<resource>
			<Practitioner xmlns="http://hl7.org/fhir">
				<id value="4d4202c6-d517-46e5-9e67-bd0e7714a6fb" />
				<meta>
					<profile value="https://fhir.kbv.de/StructureDefinition/KBV_PR_FOR_Practitioner|1.1.0" />
				</meta>
				<identifier>
					<type>
						<coding>
							<system value="http://terminology.hl7.org/CodeSystem/v2-0203" />
							<code value="LANR" />
						</coding>
					</type>
					<system value="https://fhir.kbv.de/NamingSystem/KBV_NS_Base_ANR" />
					<value value="370261409" />
				</identifier>
				<name>
					<use value="official" />
					<family value="Schraßer">
						<extension url="http://hl7.org/fhir/StructureDefinition/humanname-own-name">
							<valueString value="Schraßer" />
						</extension>
					</family>
					<given value="Dr." />
					<prefix value="Dr.">
						<extension url="http://hl7.org/fhir/StructureDefinition/iso21090-EN-qualifier">
							<valueCode value="AC" />
						</extension>
					</prefix>
				</name>
				<qualification>
					<code>
						<coding>
							<system value="https://fhir.kbv.de/CodeSystem/KBV_CS_FOR_Qualification_Type" />
							<code value="00" />
						</coding>
					</code>
				</qualification>
				<qualification>
					<code>
						<coding>
							<system value="https://fhir.kbv.de/CodeSystem/KBV_CS_FOR_Berufsbezeichnung" />
							<code value="Berufsbezeichnung" />
						</coding>
						<text value="Super-Facharzt für alles Mögliche" />
					</code>
				</qualification>
			</Practitioner>
		</resource>
	</entry>
	<entry>
		<fullUrl value="https://pvs.gematik.de/fhir/Organization/39d1a85e-2a66-4ad8-b645-ebd7e15e2232" />
		<resource>
			<Organization xmlns="http://hl7.org/fhir">
				<id value="39d1a85e-2a66-4ad8-b645-ebd7e15e2232" />
				<meta>
					<profile value="https://fhir.kbv.de/StructureDefinition/KBV_PR_FOR_Organization|1.1.0" />
				</meta>
				<identifier>
					<type>
						<coding>
							<system value="http://terminology.hl7.org/CodeSystem/v2-0203" />
							<code value="BSNR" />
						</coding>
					</type>
					<system value="https://fhir.kbv.de/NamingSystem/KBV_NS_Base_BSNR" />
					<value value="487160328" />
				</identifier>
				<name value="Arztpraxis Schraßer" />
				<telecom>
					<system value="phone" />
					<value value="+49-429-7303007" />
				</telecom>
				<telecom>
					<system value="email" />
					<value value="lili.zuber@drees.org" />
				</telecom>
				<address>
					<type value="both" />
					<line value="Am Kiesberg 82">
						<extension url="http://hl7.org/fhir/StructureDefinition/iso21090-ADXP-houseNumber">
							<valueString value="82" />
						</extension>
						<extension url="http://hl7.org/fhir/StructureDefinition/iso21090-ADXP-streetName">
							<valueString value="Am Kiesberg" />
						</extension>
					</line>
					<city value="Ost Elia" />
					<postalCode value="93153" />
					<country value="D" />
				</address>
			</Organization>
		</resource>
	</entry>
	<entry>
		<fullUrl value="https://pvs.gematik.de/fhir/Medication/a1e00457-1e46-4d8b-8b3f-1060b4edb8eb" />
		<resource>
			<Medication xmlns="http://hl7.org/fhir">
				<id value="a1e00457-1e46-4d8b-8b3f-1060b4edb8eb" />
				<meta>
					<profile value="https://fhir.kbv.de/StructureDefinition/KBV_PR_ERP_Medication_PZN|1.1.0" />
				</meta>
				<extension url="https://fhir.kbv.de/StructureDefinition/KBV_EX_Base_Medication_Type">
					<valueCodeableConcept>
						<coding>
							<system value="http://snomed.info/sct" />
							<version value="http://snomed.info/sct/900000000000207008/version/20220331" />
							<code value="763158003" />
							<display value="Medicinal product (product)" />
						</coding>
					</valueCodeableConcept>
				</extension>
				<extension url="https://fhir.kbv.de/StructureDefinition/KBV_EX_ERP_Medication_Category">
					<valueCoding>
						<system value="https://fhir.kbv.de/CodeSystem/KBV_CS_ERP_Medication_Category" />
						<code value="00" />
					</valueCoding>
				</extension>
				<extension url="https://fhir.kbv.de/StructureDefinition/KBV_EX_ERP_Medication_Vaccine">
					<valueBoolean value="false" />
				</extension>
				<extension url="http://fhir.de/StructureDefinition/normgroesse">
					<valueCode value="NB" />
				</extension>
				<code>
					<coding>
						<system value="http://fhir.de/CodeSystem/ifa/pzn" />
						<code value="12345678" />
					</coding>
					<text value="Schmerzmittel" />
				</code>
				<form>
					<coding>
						<system value="https://fhir.kbv.de/CodeSystem/KBV_CS_SFHIR_KBV_DARREICHUNGSFORM" />
						<code value="TAB" />
					</coding>
				</form>
				<amount>
					<numerator>
						<extension url="https://fhir.kbv.de/StructureDefinition/KBV_EX_ERP_Medication_PackagingSize">
							<valueString value="1" />
						</extension>
						<unit value="Stk" />
					</numerator>
					<denominator>
						<value value="1" />
					</denominator>
				</amount>
			</Medication>
		</resource>
	</entry>
	<entry>
		<fullUrl value="https://pvs.gematik.de/fhir/MedicationRequest/91ad4508-9431-4405-a450-fc625c0479a6" />
		<resource>
			<MedicationRequest xmlns="http://hl7.org/fhir">
				<id value="91ad4508-9431-4405-a450-fc625c0479a6" />
				<meta>
					<profile value="https://fhir.kbv.de/StructureDefinition/KBV_PR_ERP_Prescription|1.1.0" />
				</meta>
				<extension url="https://fhir.kbv.de/StructureDefinition/KBV_EX_ERP_BVG">
					<valueBoolean value="false" />
				</extension>
				<extension url="https://fhir.kbv.de/StructureDefinition/KBV_EX_ERP_EmergencyServicesFee">
					<valueBoolean value="false" />
				</extension>
				<extension url="https://fhir.kbv.de/StructureDefinition/KBV_EX_ERP_Multiple_Prescription">
					<extension url="Kennzeichen">
						<valueBoolean value="false" />
					</extension>
				</extension>
				<extension url="https://fhir.kbv.de/StructureDefinition/KBV_EX_FOR_StatusCoPayment">
					<valueCoding>
						<system value="https://fhir.kbv.de/CodeSystem/KBV_CS_FOR_StatusCoPayment" />
						<code value="1" />
					</valueCoding>
				</extension>
				<status value="active" />
				<intent value="order" />
				<medicationReference>
					<reference value="Medication/a1e00457-1e46-4d8b-8b3f-1060b4edb8eb" />
				</medicationReference>
				<subject>
					<reference value="Patient/7b68394e-a461-45b2-88dc-3873f66dbde1" />
				</subject>
				<authoredOn value="2025-03-28" />
				<requester>
					<reference value="Practitioner/4d4202c6-d517-46e5-9e67-bd0e7714a6fb" />
				</requester>
				<insurance>
					<reference value="Coverage/180a9e86-376c-4c52-b4a7-3d6a1e56e06a" />
				</insurance>
				<dosageInstruction>
					<extension url="https://fhir.kbv.de/StructureDefinition/KBV_EX_ERP_DosageFlag">
						<valueBoolean value="true" />
					</extension>
					<text value="3-1-3-3-2" />
				</dosageInstruction>
				<dispenseRequest>
					<quantity>
						<value value="1" />
						<system value="http://unitsofmeasure.org" />
						<code value="{Package}" />
					</quantity>
				</dispenseRequest>
				<substitution>
					<allowedBoolean value="false" />
				</substitution>
			</MedicationRequest>
		</resource>
	</entry>
</Bundle>
