<Bundle xmlns="http://hl7.org/fhir">
   <id value="a0e3774a-0e00-0000-0003-000000000000"/>
   <meta>
      <profile value="https://gematik.de/fhir/erp/StructureDefinition/GEM_ERP_PR_Bundle|1.4"/>
   </meta>
   <identifier>
      <system value="https://gematik.de/fhir/erp/NamingSystem/GEM_ERP_NS_PrescriptionId"/>
      <value value="160.000.239.761.379.20"/>
   </identifier>
   <type value="document"/>
   <timestamp value="2025-03-28T08:03:54.515+00:00"/>
   <link>
      <relation value="self"/>
      <url value="https://erp-ref.zentral.erp.splitdns.ti-dienste.de/Task/160.000.239.761.379.20/$close/"/>
   </link>
   <entry>
      <fullUrl value="urn:uuid:25883dcd-b617-4223-9ad4-619353823452"/>
      <resource>
         <Composition xmlns="http://hl7.org/fhir">
            <id value="25883dcd-b617-4223-9ad4-619353823452"/>
            <meta>
               <profile value="https://gematik.de/fhir/erp/StructureDefinition/GEM_ERP_PR_Composition|1.4"/>
            </meta>
            <extension url="https://gematik.de/fhir/erp/StructureDefinition/GEM_ERP_EX_Beneficiary">
               <valueIdentifier>
                  <system value="https://gematik.de/fhir/sid/telematik-id"/>
                  <value value="3-SMC-B-Testkarte--883110000163973"/>
               </valueIdentifier>
            </extension>
            <status value="final"/>
            <type>
               <coding>
                  <system value="https://gematik.de/fhir/erp/CodeSystem/GEM_ERP_CS_DocumentType"/>
                  <code value="3"/>
                  <display value="Receipt"/>
               </coding>
            </type>
            <date value="2025-03-28T08:03:54.510+00:00"/>
            <author>
               <reference value="urn:uuid:163f36de-2635-4cab-8730-1713b6e5a074"/>
            </author>
            <title value="Quittung"/>
            <event>
               <period>
                  <start value="2025-03-28T08:03:53.965+00:00"/>
                  <end value="2025-03-28T08:03:54.510+00:00"/>
               </period>
            </event>
            <section>
               <entry>
                  <reference value="urn:uuid:e54cde9c-ef39-4adc-850a-096895a8028e"/>
               </entry>
            </section>
         </Composition>
      </resource>
   </entry>
   <entry>
      <fullUrl value="urn:uuid:163f36de-2635-4cab-8730-1713b6e5a074"/>
      <resource>
         <Device xmlns="http://hl7.org/fhir">
            <id value="1"/>
            <meta>
               <profile value="https://gematik.de/fhir/erp/StructureDefinition/GEM_ERP_PR_Device|1.4"/>
            </meta>
            <status value="active"/>
            <serialNumber value="1.17.0"/>
            <deviceName>
               <name value="E-Rezept Fachdienst"/>
               <type value="user-friendly-name"/>
            </deviceName>
            <version>
               <value value="1.17.0"/>
            </version>
            <contact>
               <system value="email"/>
               <value value="betrieb@gematik.de"/>
            </contact>
         </Device>
      </resource>
   </entry>
   <entry>
      <fullUrl value="urn:uuid:e54cde9c-ef39-4adc-850a-096895a8028e"/>
      <resource>
         <Binary xmlns="http://hl7.org/fhir">
            <id value="e54cde9c-ef39-4adc-850a-096895a8028e"/>
            <meta>
               <versionId value="1"/>
               <profile value="https://gematik.de/fhir/erp/StructureDefinition/GEM_ERP_PR_Digest|1.4"/>
            </meta>
            <contentType value="application/octet-stream"/>
            <data value="GLpCzZDstzJ8ef/xNNet99Itk7wIjw/0azGXfq8oQAk="/>
         </Binary>
      </resource>
   </entry>
   <signature>
      <type>
         <system value="urn:iso-astm:E1762-95:2013"/>
         <code value="1.2.840.10065.1.12.1.1"/>
      </type>
      <when value="2025-03-28T08:03:54.517+00:00"/>
      <who>
         <reference value="urn:uuid:163f36de-2635-4cab-8730-1713b6e5a074"/>
      </who>
      <sigFormat value="application/pkcs7-mime"/>
      <data value=""/>
   </signature>
</Bundle>