<Bundle xmlns="http://hl7.org/fhir"><id value="cd6064f0-0e45-4114-a12d-8db87b334333"/><meta><lastUpdated value="2023-11-27T08:29:12.827+01:00"/><profile value="https://fhir.kbv.de/StructureDefinition/KBV_PR_ERP_Bundle|1.1.0"/></meta><identifier><system value="https://gematik.de/fhir/erp/NamingSystem/GEM_ERP_NS_PrescriptionId"/><value value="160.000.006.420.722.54"/></identifier><type value="document"/><timestamp value="2023-11-27T08:29:12.827+01:00"/><entry><fullUrl value="https://pvs.gematik.de/fhir/Composition/6b832f7e-1ff8-4692-a85d-230b584daae4"/><resource><Composition xmlns="http://hl7.org/fhir"><id value="6b832f7e-1ff8-4692-a85d-230b584daae4"/><meta><profile value="https://fhir.kbv.de/StructureDefinition/KBV_PR_ERP_Composition|1.1.0"/></meta><extension url="https://fhir.kbv.de/StructureDefinition/KBV_EX_FOR_Legal_basis"><valueCoding><system value="https://fhir.kbv.de/CodeSystem/KBV_CS_SFHIR_KBV_STATUSKENNZEICHEN"/><code value="00"/></valueCoding></extension><status value="final"/><type><coding><system value="https://fhir.kbv.de/CodeSystem/KBV_CS_SFHIR_KBV_FORMULAR_ART"/><code value="e16A"/></coding></type><subject><reference value="Patient/5a42c069-6749-46fb-aee5-8cf38bbda62a"/></subject><date value="2023-11-27T08:29:12+01:00"/><author><reference value="Practitioner/e61597eb-0bc7-459e-975d-092d2e12ff04"/><type value="Practitioner"/></author><author><type value="Device"/><identifier><system value="https://fhir.kbv.de/NamingSystem/KBV_NS_FOR_Pruefnummer"/><value value="GEMATIK/410/2109/36/123"/></identifier></author><title value="elektronische Arzneimittelverordnung"/><custodian><reference value="Organization/2ff8c4b7-1fb1-460e-934b-4f2359355ac1"/></custodian><section><code><coding><system value="https://fhir.kbv.de/CodeSystem/KBV_CS_ERP_Section_Type"/><code value="Coverage"/></coding></code><entry><reference value="Coverage/bb3aef95-fd07-484b-b590-2003cdb2e261"/></entry></section><section><code><coding><system value="https://fhir.kbv.de/CodeSystem/KBV_CS_ERP_Section_Type"/><code value="Prescription"/></coding></code><entry><reference value="MedicationRequest/abf45f50-669c-40b8-96b1-0584c76f5988"/></entry></section></Composition></resource></entry><entry><fullUrl value="https://pvs.gematik.de/fhir/Medication/e18e1bca-f1d4-4e3d-ac52-102899190333"/><resource><Medication xmlns="http://hl7.org/fhir"><id value="e18e1bca-f1d4-4e3d-ac52-102899190333"/><meta><profile value="https://fhir.kbv.de/StructureDefinition/KBV_PR_ERP_Medication_PZN|1.1.0"/></meta><extension url="https://fhir.kbv.de/StructureDefinition/KBV_EX_Base_Medication_Type"><valueCodeableConcept><coding><system value="http://snomed.info/sct"/><version value="http://snomed.info/sct/900000000000207008/version/20220331"/><code value="763158003"/><display value="Medicinal product (product)"/></coding></valueCodeableConcept></extension><extension url="https://fhir.kbv.de/StructureDefinition/KBV_EX_ERP_Medication_Category"><valueCoding><system value="https://fhir.kbv.de/CodeSystem/KBV_CS_ERP_Medication_Category"/><code value="00"/></valueCoding></extension><extension url="https://fhir.kbv.de/StructureDefinition/KBV_EX_ERP_Medication_Vaccine"><valueBoolean value="false"/></extension><extension url="http://fhir.de/StructureDefinition/normgroesse"><valueCode value="NB"/></extension><code><coding><system value="http://fhir.de/CodeSystem/ifa/pzn"/><code value="12345678"/></coding><text value="Schmerzmittel"/></code><form><coding><system value="https://fhir.kbv.de/CodeSystem/KBV_CS_SFHIR_KBV_DARREICHUNGSFORM"/><code value="TAB"/></coding></form><amount><numerator><extension url="https://fhir.kbv.de/StructureDefinition/KBV_EX_ERP_Medication_PackagingSize"><valueString value="1"/></extension><unit value="Stk"/></numerator><denominator><value value="1"/></denominator></amount></Medication></resource></entry><entry><fullUrl value="https://pvs.gematik.de/fhir/Patient/5a42c069-6749-46fb-aee5-8cf38bbda62a"/><resource><Patient xmlns="http://hl7.org/fhir"><id value="5a42c069-6749-46fb-aee5-8cf38bbda62a"/><meta><profile value="https://fhir.kbv.de/StructureDefinition/KBV_PR_FOR_Patient|1.1.0"/></meta><identifier><type><coding><system value="http://fhir.de/CodeSystem/identifier-type-de-basis"/><code value="GKV"/></coding></type><system value="http://fhir.de/sid/gkv/kvid-10"/><value value="X110498565"/></identifier><name><use value="official"/><family value="Hüllmann"><extension url="http://hl7.org/fhir/StructureDefinition/humanname-own-name"><valueString value="Hüllmann"/></extension></family><given value="Sina"/></name><birthDate value="1992-11-01"/><address><type value="both"/><line value="Lerchengasse 40"><extension url="http://hl7.org/fhir/StructureDefinition/iso21090-ADXP-houseNumber"><valueString value="40"/></extension><extension url="http://hl7.org/fhir/StructureDefinition/iso21090-ADXP-streetName"><valueString value="Lerchengasse"/></extension></line><city value="Dannebergscheid"/><postalCode value="28686"/><country value="D"/></address></Patient></resource></entry><entry><fullUrl value="https://pvs.gematik.de/fhir/Organization/2ff8c4b7-1fb1-460e-934b-4f2359355ac1"/><resource><Organization xmlns="http://hl7.org/fhir"><id value="2ff8c4b7-1fb1-460e-934b-4f2359355ac1"/><meta><profile value="https://fhir.kbv.de/StructureDefinition/KBV_PR_FOR_Organization|1.1.0"/></meta><identifier><type><coding><system value="http://terminology.hl7.org/CodeSystem/v2-0203"/><code value="BSNR"/></coding></type><system value="https://fhir.kbv.de/NamingSystem/KBV_NS_Base_BSNR"/><value value="887783241"/></identifier><name value="Arztpraxis Schraßer"/><telecom><system value="phone"/><value value="+49-261-4844303"/></telecom><telecom><system value="email"/><value value="sabrina.frisch@sahner.info"/></telecom><address><type value="both"/><line value="Am Hemmelrather Hof 12a"><extension url="http://hl7.org/fhir/StructureDefinition/iso21090-ADXP-houseNumber"><valueString value="12a"/></extension><extension url="http://hl7.org/fhir/StructureDefinition/iso21090-ADXP-streetName"><valueString value="Am Hemmelrather Hof"/></extension></line><city value="West Zara"/><postalCode value="50845"/><country value="D"/></address></Organization></resource></entry><entry><fullUrl value="https://pvs.gematik.de/fhir/Coverage/bb3aef95-fd07-484b-b590-2003cdb2e261"/><resource><Coverage xmlns="http://hl7.org/fhir"><id value="bb3aef95-fd07-484b-b590-2003cdb2e261"/><meta><profile value="https://fhir.kbv.de/StructureDefinition/KBV_PR_FOR_Coverage|1.1.0"/></meta><extension url="http://fhir.de/StructureDefinition/gkv/besondere-personengruppe"><valueCoding><system value="https://fhir.kbv.de/CodeSystem/KBV_CS_SFHIR_KBV_PERSONENGRUPPE"/><code value="00"/></valueCoding></extension><extension url="http://fhir.de/StructureDefinition/gkv/dmp-kennzeichen"><valueCoding><system value="https://fhir.kbv.de/CodeSystem/KBV_CS_SFHIR_KBV_DMP"/><code value="00"/></valueCoding></extension><extension url="http://fhir.de/StructureDefinition/gkv/wop"><valueCoding><system value="https://fhir.kbv.de/CodeSystem/KBV_CS_SFHIR_ITA_WOP"/><code value="47"/></valueCoding></extension><extension url="http://fhir.de/StructureDefinition/gkv/versichertenart"><valueCoding><system value="https://fhir.kbv.de/CodeSystem/KBV_CS_SFHIR_KBV_VERSICHERTENSTATUS"/><code value="1"/></valueCoding></extension><status value="active"/><type><coding><system value="http://fhir.de/CodeSystem/versicherungsart-de-basis"/><code value="GKV"/></coding></type><beneficiary><reference value="Patient/efdf86e8-dd7b-4445-bb69-8416c475657b"/></beneficiary><payor><identifier><system value="http://fhir.de/sid/arge-ik/iknr"/><value value="109033393"/></identifier><display value="BKK Faber‐Castell und Partner"/></payor></Coverage></resource></entry><entry><fullUrl value="https://pvs.gematik.de/fhir/Practitioner/e61597eb-0bc7-459e-975d-092d2e12ff04"/><resource><Practitioner xmlns="http://hl7.org/fhir"><id value="e61597eb-0bc7-459e-975d-092d2e12ff04"/><meta><profile value="https://fhir.kbv.de/StructureDefinition/KBV_PR_FOR_Practitioner|1.1.0"/></meta><identifier><type><coding><system value="http://terminology.hl7.org/CodeSystem/v2-0203"/><code value="LANR"/></coding></type><system value="https://fhir.kbv.de/NamingSystem/KBV_NS_Base_ANR"/><value value="436715143"/></identifier><name><use value="official"/><family value="Schraßer"><extension url="http://hl7.org/fhir/StructureDefinition/humanname-own-name"><valueString value="Schraßer"/></extension></family><given value="Dr."/><prefix value="Dr."><extension url="http://hl7.org/fhir/StructureDefinition/iso21090-EN-qualifier"><valueCode value="AC"/></extension></prefix></name><qualification><code><coding><system value="https://fhir.kbv.de/CodeSystem/KBV_CS_FOR_Qualification_Type"/><code value="00"/></coding></code></qualification><qualification><code><coding><system value="https://fhir.kbv.de/CodeSystem/KBV_CS_FOR_Berufsbezeichnung"/><code value="Berufsbezeichnung"/></coding><text value="Super-Facharzt für alles Mögliche"/></code></qualification></Practitioner></resource></entry><entry><fullUrl value="https://pvs.gematik.de/fhir/MedicationRequest/abf45f50-669c-40b8-96b1-0584c76f5988"/><resource><MedicationRequest xmlns="http://hl7.org/fhir"><id value="abf45f50-669c-40b8-96b1-0584c76f5988"/><meta><profile value="https://fhir.kbv.de/StructureDefinition/KBV_PR_ERP_Prescription|1.1.0"/></meta><extension url="https://fhir.kbv.de/StructureDefinition/KBV_EX_ERP_BVG"><valueBoolean value="false"/></extension><extension url="https://fhir.kbv.de/StructureDefinition/KBV_EX_ERP_EmergencyServicesFee"><valueBoolean value="false"/></extension><extension url="https://fhir.kbv.de/StructureDefinition/KBV_EX_ERP_Multiple_Prescription"><extension url="Kennzeichen"><valueBoolean value="false"/></extension></extension><extension url="https://fhir.kbv.de/StructureDefinition/KBV_EX_FOR_StatusCoPayment"><valueCoding><system value="https://fhir.kbv.de/CodeSystem/KBV_CS_FOR_StatusCoPayment"/><code value="1"/></valueCoding></extension><status value="active"/><intent value="order"/><medicationReference><reference value="Medication/e18e1bca-f1d4-4e3d-ac52-102899190333"/></medicationReference><subject><reference value="Patient/5a42c069-6749-46fb-aee5-8cf38bbda62a"/></subject><authoredOn value="2023-11-27"/><requester><reference value="Practitioner/e61597eb-0bc7-459e-975d-092d2e12ff04"/></requester><insurance><reference value="Coverage/bb3aef95-fd07-484b-b590-2003cdb2e261"/></insurance><dosageInstruction><extension url="https://fhir.kbv.de/StructureDefinition/KBV_EX_ERP_DosageFlag"><valueBoolean value="true"/></extension><text value="3-2-2-2-1-1-3"/></dosageInstruction><dispenseRequest><quantity><value value="1"/><system value="http://unitsofmeasure.org"/><code value="{Package}"/></quantity></dispenseRequest><substitution><allowedBoolean value="false"/></substitution></MedicationRequest></resource></entry></Bundle>