<Bundle xmlns="http://hl7.org/fhir"><id value="bd705abd-b471-4642-aeb5-b056d13ad4a4"/><meta><lastUpdated value="2023-11-27T08:37:03.771+01:00"/><profile value="http://fhir.abda.de/eRezeptAbgabedaten/StructureDefinition/DAV-PKV-PR-ERP-AbgabedatenBundle|1.2"/></meta><identifier><system value="https://gematik.de/fhir/erp/NamingSystem/GEM_ERP_NS_PrescriptionId"/><value value="200.000.000.042.782.56"/></identifier><type value="document"/><timestamp value="2023-11-27T08:37:03.771+01:00"/><entry><fullUrl value="urn:uuid:ab16e858-d3bf-4f2c-800b-da6d0b17a3ed"/><resource><Composition xmlns="http://hl7.org/fhir"><id value="ab16e858-d3bf-4f2c-800b-da6d0b17a3ed"/><meta><profile value="http://fhir.abda.de/eRezeptAbgabedaten/StructureDefinition/DAV-PKV-PR-ERP-AbgabedatenComposition|1.2"/></meta><status value="final"/><type><coding><system value="http://fhir.abda.de/eRezeptAbgabedaten/CodeSystem/DAV-CS-ERP-CompositionTypes"/><code value="ERezeptAbgabedaten"/></coding></type><date value="2023-11-27T08:37:03+01:00"/><author><reference value="urn:uuid:36b496ec-c112-4546-972a-202f8179fd58"/></author><title value="ERezeptAbgabedaten"/><section><title value="Apotheke"/><entry><reference value="urn:uuid:36b496ec-c112-4546-972a-202f8179fd58"/></entry></section><section><title value="Abgabeinformationen"/><entry><reference value="urn:uuid:b7c32286-762c-4aeb-b9d4-c4d36921314c"/></entry></section></Composition></resource></entry><entry><fullUrl value="urn:uuid:36b496ec-c112-4546-972a-202f8179fd58"/><resource><Organization xmlns="http://hl7.org/fhir"><id value="36b496ec-c112-4546-972a-202f8179fd58"/><meta><profile value="http://fhir.abda.de/eRezeptAbgabedaten/StructureDefinition/DAV-PKV-PR-ERP-Apotheke|1.2"/></meta><identifier><system value="http://fhir.de/sid/arge-ik/iknr"/><value value="108475864"/></identifier><name value="Apotheke Chip Munk"/><address><type value="physical"/><line value="Miselohestr. 57"><extension url="http://hl7.org/fhir/StructureDefinition/iso21090-ADXP-houseNumber"><valueString value="57"/></extension><extension url="http://hl7.org/fhir/StructureDefinition/iso21090-ADXP-streetName"><valueString value="Miselohestr."/></extension></line><city value="Vanscheid"/><postalCode value="32687"/><country value="D"/></address></Organization></resource></entry><entry><fullUrl value="urn:uuid:ba13a7a5-853b-4a47-8b52-01cc69c439e4"/><resource><Invoice xmlns="http://hl7.org/fhir"><id value="ba13a7a5-853b-4a47-8b52-01cc69c439e4"/><meta><profile value="http://fhir.abda.de/eRezeptAbgabedaten/StructureDefinition/DAV-PKV-PR-ERP-Abrechnungszeilen|1.2"/></meta><status value="issued"/><type><coding><system value="http://fhir.abda.de/eRezeptAbgabedaten/CodeSystem/DAV-CS-ERP-InvoiceTyp"/><code value="Abrechnungszeilen"/></coding></type><lineItem><sequence value="1"/><chargeItemCodeableConcept><coding><system value="http://fhir.de/CodeSystem/ifa/pzn"/><code value="84935807"/></coding><text value="Gemvomilnin"/></chargeItemCodeableConcept><priceComponent><extension url="http://fhir.abda.de/eRezeptAbgabedaten/StructureDefinition/DAV-EX-ERP-KostenVersicherter"><extension url="Kategorie"><valueCodeableConcept><coding><system value="http://fhir.abda.de/eRezeptAbgabedaten/CodeSystem/DAV-PKV-CS-ERP-KostenVersicherterKategorie"/><code value="0"/></coding></valueCodeableConcept></extension><extension url="Kostenbetrag"><valueMoney><value value="131.92"/><currency value="EUR"/></valueMoney></extension></extension><extension url="http://fhir.abda.de/eRezeptAbgabedaten/StructureDefinition/DAV-EX-ERP-MwStSatz"><valueDecimal value="15.87"/></extension><type value="informational"/><factor value="1"/><amount><value value="365.90"/><currency value="EUR"/></amount></priceComponent></lineItem><totalGross><extension url="http://fhir.abda.de/eRezeptAbgabedaten/StructureDefinition/DAV-EX-ERP-Gesamtzuzahlung"><valueMoney><value value="131.92"/><currency value="EUR"/></valueMoney></extension><value value="365.90"/><currency value="EUR"/></totalGross></Invoice></resource></entry><entry><fullUrl value="urn:uuid:b7c32286-762c-4aeb-b9d4-c4d36921314c"/><resource><MedicationDispense xmlns="http://hl7.org/fhir"><id value="b7c32286-762c-4aeb-b9d4-c4d36921314c"/><meta><profile value="http://fhir.abda.de/eRezeptAbgabedaten/StructureDefinition/DAV-PKV-PR-ERP-Abgabeinformationen|1.2"/></meta><extension url="http://fhir.abda.de/eRezeptAbgabedaten/StructureDefinition/DAV-PKV-EX-ERP-AbrechnungsTyp"><valueCodeableConcept><coding><system value="http://fhir.abda.de/eRezeptAbgabedaten/CodeSystem/DAV-PKV-CS-ERP-AbrechnungsTyp"/><code value="1"/></coding></valueCodeableConcept></extension><extension url="http://fhir.abda.de/eRezeptAbgabedaten/StructureDefinition/DAV-EX-ERP-Abrechnungszeilen"><valueReference><reference value="urn:uuid:ba13a7a5-853b-4a47-8b52-01cc69c439e4"/></valueReference></extension><status value="completed"/><medicationCodeableConcept><coding><system value="http://terminology.hl7.org/CodeSystem/data-absent-reason"/><code value="not-applicable"/></coding></medicationCodeableConcept><performer><actor><reference value="urn:uuid:36b496ec-c112-4546-972a-202f8179fd58"/></actor></performer><authorizingPrescription><identifier><system value="https://gematik.de/fhir/erp/NamingSystem/GEM_ERP_NS_PrescriptionId"/><value value="200.000.000.042.782.56"/></identifier></authorizingPrescription><type><coding><system value="http://fhir.abda.de/eRezeptAbgabedaten/CodeSystem/DAV-CS-ERP-MedicationDispenseTyp"/><code value="Abgabeinformationen"/></coding></type><whenHandedOver value="2023-11-27"/></MedicationDispense></resource></entry></Bundle>