{
  "resourceType" : "Bundle",
  "id" : "25da7af4-3324-4854-87a0-66515833dbc3",
  "type" : "collection",
  "timestamp" : "2023-11-27T07:37:07.358+00:00",
  "entry" : [ {
    "fullUrl" : "https://erp-test.zentral.erp.splitdns.ti-dienste.de/ChargeItem/200.000.000.042.782.56",
    "resource" : {
      "resourceType" : "ChargeItem",
      "id" : "200.000.000.042.782.56",
      "meta" : {
        "profile" : [ "https://gematik.de/fhir/erpchrg/StructureDefinition/GEM_ERPCHRG_PR_ChargeItem|1.0" ]
      },
      "identifier" : [ {
        "system" : "https://gematik.de/fhir/erp/NamingSystem/GEM_ERP_NS_AccessCode",
        "value" : "2fe9aa84f3dcc3fdc24c28819b6f22680df8a0a45af362576b8a8c969bd10400"
      }, {
        "system" : "https://gematik.de/fhir/erp/NamingSystem/GEM_ERP_NS_PrescriptionId",
        "value" : "200.000.000.042.782.56"
      } ],
      "status" : "billable",
      "code" : {
        "coding" : [ {
          "system" : "http://terminology.hl7.org/CodeSystem/data-absent-reason",
          "code" : "not-applicable"
        } ]
      },
      "subject" : {
        "identifier" : {
          "system" : "http://fhir.de/sid/pkv/kvid-10",
          "value" : "X110465770"
        }
      },
      "enterer" : {
        "identifier" : {
          "system" : "https://gematik.de/fhir/sid/telematik-id",
          "value" : "3-SMC-B-Testkarte-883110000116873"
        }
      },
      "enteredDate" : "2023-11-27T07:37:05.372+00:00",
      "supportingInformation" : [ {
        "reference" : "urn:uuid:c81ea700-0000-0000-0001-000000000000",
        "display" : "https://fhir.kbv.de/StructureDefinition/KBV_PR_ERP_Bundle"
      }, {
        "reference" : "urn:uuid:c81ea700-0000-0000-0004-000000000000",
        "display" : "http://fhir.abda.de/eRezeptAbgabedaten/StructureDefinition/DAV-PKV-PR-ERP-AbgabedatenBundle"
      }, {
        "reference" : "urn:uuid:c81ea700-0000-0000-0003-000000000000",
        "display" : "https://gematik.de/fhir/erp/StructureDefinition/GEM_ERP_PR_Bundle"
      } ]
    }
  }, {
    "fullUrl" : "urn:uuid:c81ea700-0000-0000-0004-000000000000",
    "resource" : {
      "resourceType" : "Bundle",
      "id" : "bd705abd-b471-4642-aeb5-b056d13ad4a4",
      "meta" : {
        "lastUpdated" : "2023-11-27T08:37:03.771+01:00",
        "profile" : [ "http://fhir.abda.de/eRezeptAbgabedaten/StructureDefinition/DAV-PKV-PR-ERP-AbgabedatenBundle|1.2" ]
      },
      "identifier" : {
        "system" : "https://gematik.de/fhir/erp/NamingSystem/GEM_ERP_NS_PrescriptionId",
        "value" : "200.000.000.042.782.56"
      },
      "type" : "document",
      "timestamp" : "2023-11-27T08:37:03.771+01:00",
      "entry" : [ {
        "fullUrl" : "urn:uuid:ab16e858-d3bf-4f2c-800b-da6d0b17a3ed",
        "resource" : {
          "resourceType" : "Composition",
          "meta" : {
            "profile" : [ "http://fhir.abda.de/eRezeptAbgabedaten/StructureDefinition/DAV-PKV-PR-ERP-AbgabedatenComposition|1.2" ]
          },
          "status" : "final",
          "type" : {
            "coding" : [ {
              "system" : "http://fhir.abda.de/eRezeptAbgabedaten/CodeSystem/DAV-CS-ERP-CompositionTypes",
              "code" : "ERezeptAbgabedaten"
            } ]
          },
          "date" : "2023-11-27T08:37:03+01:00",
          "author" : [ {
            "reference" : "urn:uuid:36b496ec-c112-4546-972a-202f8179fd58"
          } ],
          "title" : "ERezeptAbgabedaten",
          "section" : [ {
            "title" : "Apotheke",
            "entry" : [ {
              "reference" : "urn:uuid:36b496ec-c112-4546-972a-202f8179fd58"
            } ]
          }, {
            "title" : "Abgabeinformationen",
            "entry" : [ {
              "reference" : "urn:uuid:b7c32286-762c-4aeb-b9d4-c4d36921314c"
            } ]
          } ]
        }
      }, {
        "fullUrl" : "urn:uuid:36b496ec-c112-4546-972a-202f8179fd58",
        "resource" : {
          "resourceType" : "Organization",
          "meta" : {
            "profile" : [ "http://fhir.abda.de/eRezeptAbgabedaten/StructureDefinition/DAV-PKV-PR-ERP-Apotheke|1.2" ]
          },
          "identifier" : [ {
            "system" : "http://fhir.de/sid/arge-ik/iknr",
            "value" : "108475864"
          } ],
          "name" : "Apotheke Chip Munk",
          "address" : [ {
            "type" : "physical",
            "line" : [ "Miselohestr. 57" ],
            "_line" : [ {
              "extension" : [ {
                "url" : "http://hl7.org/fhir/StructureDefinition/iso21090-ADXP-houseNumber",
                "valueString" : "57"
              }, {
                "url" : "http://hl7.org/fhir/StructureDefinition/iso21090-ADXP-streetName",
                "valueString" : "Miselohestr."
              } ]
            } ],
            "city" : "Vanscheid",
            "postalCode" : "32687",
            "country" : "D"
          } ]
        }
      }, {
        "fullUrl" : "urn:uuid:ba13a7a5-853b-4a47-8b52-01cc69c439e4",
        "resource" : {
          "resourceType" : "Invoice",
          "meta" : {
            "profile" : [ "http://fhir.abda.de/eRezeptAbgabedaten/StructureDefinition/DAV-PKV-PR-ERP-Abrechnungszeilen|1.2" ]
          },
          "status" : "issued",
          "type" : {
            "coding" : [ {
              "system" : "http://fhir.abda.de/eRezeptAbgabedaten/CodeSystem/DAV-CS-ERP-InvoiceTyp",
              "code" : "Abrechnungszeilen"
            } ]
          },
          "lineItem" : [ {
            "sequence" : 1,
            "chargeItemCodeableConcept" : {
              "coding" : [ {
                "system" : "http://fhir.de/CodeSystem/ifa/pzn",
                "code" : "84935807"
              } ],
              "text" : "Gemvomilnin"
            },
            "priceComponent" : [ {
              "extension" : [ {
                "url" : "http://fhir.abda.de/eRezeptAbgabedaten/StructureDefinition/DAV-EX-ERP-KostenVersicherter",
                "extension" : [ {
                  "url" : "Kategorie",
                  "valueCodeableConcept" : {
                    "coding" : [ {
                      "system" : "http://fhir.abda.de/eRezeptAbgabedaten/CodeSystem/DAV-PKV-CS-ERP-KostenVersicherterKategorie",
                      "code" : "0"
                    } ]
                  }
                }, {
                  "url" : "Kostenbetrag",
                  "valueMoney" : {
                    "value" : 131.92,
                    "currency" : "EUR"
                  }
                } ]
              }, {
                "url" : "http://fhir.abda.de/eRezeptAbgabedaten/StructureDefinition/DAV-EX-ERP-MwStSatz",
                "valueDecimal" : 15.87
              } ],
              "type" : "informational",
              "factor" : 1,
              "amount" : {
                "value" : 365.90,
                "currency" : "EUR"
              }
            } ]
          } ],
          "totalGross" : {
            "extension" : [ {
              "url" : "http://fhir.abda.de/eRezeptAbgabedaten/StructureDefinition/DAV-EX-ERP-Gesamtzuzahlung",
              "valueMoney" : {
                "value" : 131.92,
                "currency" : "EUR"
              }
            } ],
            "value" : 365.90,
            "currency" : "EUR"
          }
        }
      }, {
        "fullUrl" : "urn:uuid:b7c32286-762c-4aeb-b9d4-c4d36921314c",
        "resource" : {
          "resourceType" : "MedicationDispense",
          "meta" : {
            "profile" : [ "http://fhir.abda.de/eRezeptAbgabedaten/StructureDefinition/DAV-PKV-PR-ERP-Abgabeinformationen|1.2" ]
          },
          "extension" : [ {
            "url" : "http://fhir.abda.de/eRezeptAbgabedaten/StructureDefinition/DAV-PKV-EX-ERP-AbrechnungsTyp",
            "valueCodeableConcept" : {
              "coding" : [ {
                "system" : "http://fhir.abda.de/eRezeptAbgabedaten/CodeSystem/DAV-PKV-CS-ERP-AbrechnungsTyp",
                "code" : "1"
              } ]
            }
          }, {
            "url" : "http://fhir.abda.de/eRezeptAbgabedaten/StructureDefinition/DAV-EX-ERP-Abrechnungszeilen",
            "valueReference" : {
              "reference" : "urn:uuid:ba13a7a5-853b-4a47-8b52-01cc69c439e4"
            }
          } ],
          "status" : "completed",
          "medicationCodeableConcept" : {
            "coding" : [ {
              "system" : "http://terminology.hl7.org/CodeSystem/data-absent-reason",
              "code" : "not-applicable"
            } ]
          },
          "performer" : [ {
            "actor" : {
              "reference" : "urn:uuid:36b496ec-c112-4546-972a-202f8179fd58"
            }
          } ],
          "authorizingPrescription" : [ {
            "identifier" : {
              "system" : "https://gematik.de/fhir/erp/NamingSystem/GEM_ERP_NS_PrescriptionId",
              "value" : "200.000.000.042.782.56"
            }
          } ],
          "type" : {
            "coding" : [ {
              "system" : "http://fhir.abda.de/eRezeptAbgabedaten/CodeSystem/DAV-CS-ERP-MedicationDispenseTyp",
              "code" : "Abgabeinformationen"
            } ]
          },
          "whenHandedOver" : "2023-11-27"
        }
      } ],
      "signature" : {
        "type" : [ {
          "system" : "urn:iso-astm:E1762-95:2013",
          "code" : "1.2.840.10065.1.12.1.1"
        } ],
        "when" : "2023-11-27T07:37:07.387+00:00",
        "who" : {
          "reference" : "https://erp-test.zentral.erp.splitdns.ti-dienste.de/Device/1"
        },
        "sigFormat" : "application/pkcs7-mime",
        "data" : ""
      }
    }
  }, {
    "fullUrl" : "urn:uuid:c81ea700-0000-0000-0001-000000000000",
    "resource" : {
      "resourceType" : "Bundle",
      "id" : "10004aff-c5a1-45f7-9fb1-d6df498abba3",
      "meta" : {
        "lastUpdated" : "2023-11-27T08:37:00.866+01:00",
        "profile" : [ "https://fhir.kbv.de/StructureDefinition/KBV_PR_ERP_Bundle|1.1.0" ]
      },
      "identifier" : {
        "system" : "https://gematik.de/fhir/erp/NamingSystem/GEM_ERP_NS_PrescriptionId",
        "value" : "200.000.000.042.782.56"
      },
      "type" : "document",
      "timestamp" : "2023-11-27T08:37:00.866+01:00",
      "entry" : [ {
        "fullUrl" : "https://pvs.gematik.de/fhir/Composition/b7722ded-3097-4965-b8ef-13e1a028394f",
        "resource" : {
          "resourceType" : "Composition",
          "id" : "b7722ded-3097-4965-b8ef-13e1a028394f",
          "meta" : {
            "profile" : [ "https://fhir.kbv.de/StructureDefinition/KBV_PR_ERP_Composition|1.1.0" ]
          },
          "extension" : [ {
            "url" : "https://fhir.kbv.de/StructureDefinition/KBV_EX_FOR_Legal_basis",
            "valueCoding" : {
              "system" : "https://fhir.kbv.de/CodeSystem/KBV_CS_SFHIR_KBV_STATUSKENNZEICHEN",
              "code" : "00"
            }
          } ],
          "status" : "final",
          "type" : {
            "coding" : [ {
              "system" : "https://fhir.kbv.de/CodeSystem/KBV_CS_SFHIR_KBV_FORMULAR_ART",
              "code" : "e16A"
            } ]
          },
          "subject" : {
            "reference" : "Patient/f6fb3adc-74c3-4d92-89c0-f4d8be93edf9"
          },
          "date" : "2023-11-27T08:37:00+01:00",
          "author" : [ {
            "reference" : "Practitioner/3ee4c48a-dd58-4e9a-889f-5f6979f31d8b",
            "type" : "Practitioner"
          }, {
            "type" : "Device",
            "identifier" : {
              "system" : "https://fhir.kbv.de/NamingSystem/KBV_NS_FOR_Pruefnummer",
              "value" : "GEMATIK/410/2109/36/123"
            }
          } ],
          "title" : "elektronische Arzneimittelverordnung",
          "custodian" : {
            "reference" : "Organization/f8fc81df-4593-4475-a006-05dc5d9331b2"
          },
          "section" : [ {
            "code" : {
              "coding" : [ {
                "system" : "https://fhir.kbv.de/CodeSystem/KBV_CS_ERP_Section_Type",
                "code" : "Coverage"
              } ]
            },
            "entry" : [ {
              "reference" : "Coverage/6dc29303-e51c-4664-9d1a-423169b98542"
            } ]
          }, {
            "code" : {
              "coding" : [ {
                "system" : "https://fhir.kbv.de/CodeSystem/KBV_CS_ERP_Section_Type",
                "code" : "Prescription"
              } ]
            },
            "entry" : [ {
              "reference" : "MedicationRequest/64f07fc5-40fe-40a1-aab0-f0d7000ebff9"
            } ]
          } ]
        }
      }, {
        "fullUrl" : "https://pvs.gematik.de/fhir/Medication/a7f5f1b4-3264-415f-8ce7-cdd8916e4ade",
        "resource" : {
          "resourceType" : "Medication",
          "id" : "a7f5f1b4-3264-415f-8ce7-cdd8916e4ade",
          "meta" : {
            "profile" : [ "https://fhir.kbv.de/StructureDefinition/KBV_PR_ERP_Medication_PZN|1.1.0" ]
          },
          "extension" : [ {
            "url" : "https://fhir.kbv.de/StructureDefinition/KBV_EX_Base_Medication_Type",
            "valueCodeableConcept" : {
              "coding" : [ {
                "system" : "http://snomed.info/sct",
                "version" : "http://snomed.info/sct/900000000000207008/version/20220331",
                "code" : "763158003",
                "display" : "Medicinal product (product)"
              } ]
            }
          }, {
            "url" : "https://fhir.kbv.de/StructureDefinition/KBV_EX_ERP_Medication_Category",
            "valueCoding" : {
              "system" : "https://fhir.kbv.de/CodeSystem/KBV_CS_ERP_Medication_Category",
              "code" : "00"
            }
          }, {
            "url" : "https://fhir.kbv.de/StructureDefinition/KBV_EX_ERP_Medication_Vaccine",
            "valueBoolean" : false
          }, {
            "url" : "http://fhir.de/StructureDefinition/normgroesse",
            "valueCode" : "NB"
          } ],
          "code" : {
            "coding" : [ {
              "system" : "http://fhir.de/CodeSystem/ifa/pzn",
              "code" : "54644366"
            } ],
            "text" : "Schmerzmittel"
          },
          "form" : {
            "coding" : [ {
              "system" : "https://fhir.kbv.de/CodeSystem/KBV_CS_SFHIR_KBV_DARREICHUNGSFORM",
              "code" : "TAB"
            } ]
          },
          "amount" : {
            "numerator" : {
              "extension" : [ {
                "url" : "https://fhir.kbv.de/StructureDefinition/KBV_EX_ERP_Medication_PackagingSize",
                "valueString" : "1"
              } ],
              "unit" : "Stk"
            },
            "denominator" : {
              "value" : 1
            }
          }
        }
      }, {
        "fullUrl" : "https://pvs.gematik.de/fhir/Patient/f6fb3adc-74c3-4d92-89c0-f4d8be93edf9",
        "resource" : {
          "resourceType" : "Patient",
          "id" : "f6fb3adc-74c3-4d92-89c0-f4d8be93edf9",
          "meta" : {
            "profile" : [ "https://fhir.kbv.de/StructureDefinition/KBV_PR_FOR_Patient|1.1.0" ]
          },
          "identifier" : [ {
            "type" : {
              "coding" : [ {
                "system" : "http://fhir.de/CodeSystem/identifier-type-de-basis",
                "code" : "PKV"
              } ]
            },
            "system" : "http://fhir.de/sid/pkv/kvid-10",
            "value" : "X110465770"
          } ],
          "name" : [ {
            "use" : "official",
            "family" : "Angermänn",
            "_family" : {
              "extension" : [ {
                "url" : "http://hl7.org/fhir/StructureDefinition/humanname-own-name",
                "valueString" : "Angermänn"
              } ]
            },
            "given" : [ "Günther" ]
          } ],
          "birthDate" : "1963-06-25",
          "address" : [ {
            "type" : "both",
            "line" : [ "Schubertplatz 09b" ],
            "_line" : [ {
              "extension" : [ {
                "url" : "http://hl7.org/fhir/StructureDefinition/iso21090-ADXP-houseNumber",
                "valueString" : "09b"
              }, {
                "url" : "http://hl7.org/fhir/StructureDefinition/iso21090-ADXP-streetName",
                "valueString" : "Schubertplatz"
              } ]
            } ],
            "city" : "Hadwichburg",
            "postalCode" : "72453",
            "country" : "D"
          } ]
        }
      }, {
        "fullUrl" : "https://pvs.gematik.de/fhir/Organization/f8fc81df-4593-4475-a006-05dc5d9331b2",
        "resource" : {
          "resourceType" : "Organization",
          "id" : "f8fc81df-4593-4475-a006-05dc5d9331b2",
          "meta" : {
            "profile" : [ "https://fhir.kbv.de/StructureDefinition/KBV_PR_FOR_Organization|1.1.0" ]
          },
          "identifier" : [ {
            "type" : {
              "coding" : [ {
                "system" : "http://terminology.hl7.org/CodeSystem/v2-0203",
                "code" : "BSNR"
              } ]
            },
            "system" : "https://fhir.kbv.de/NamingSystem/KBV_NS_Base_BSNR",
            "value" : "725623253"
          } ],
          "name" : "Arztpraxis Schraßer",
          "telecom" : [ {
            "system" : "phone",
            "value" : "(02634) 6635484"
          }, {
            "system" : "email",
            "value" : "lenn.reuber@xn--gbel-5qa.info"
          } ],
          "address" : [ {
            "type" : "both",
            "line" : [ "Hirzenberg 95a" ],
            "_line" : [ {
              "extension" : [ {
                "url" : "http://hl7.org/fhir/StructureDefinition/iso21090-ADXP-houseNumber",
                "valueString" : "95a"
              }, {
                "url" : "http://hl7.org/fhir/StructureDefinition/iso21090-ADXP-streetName",
                "valueString" : "Hirzenberg"
              } ]
            } ],
            "city" : "Jorisstadt",
            "postalCode" : "15585",
            "country" : "D"
          } ]
        }
      }, {
        "fullUrl" : "https://pvs.gematik.de/fhir/Coverage/6dc29303-e51c-4664-9d1a-423169b98542",
        "resource" : {
          "resourceType" : "Coverage",
          "id" : "6dc29303-e51c-4664-9d1a-423169b98542",
          "meta" : {
            "profile" : [ "https://fhir.kbv.de/StructureDefinition/KBV_PR_FOR_Coverage|1.1.0" ]
          },
          "extension" : [ {
            "url" : "http://fhir.de/StructureDefinition/gkv/besondere-personengruppe",
            "valueCoding" : {
              "system" : "https://fhir.kbv.de/CodeSystem/KBV_CS_SFHIR_KBV_PERSONENGRUPPE",
              "code" : "00"
            }
          }, {
            "url" : "http://fhir.de/StructureDefinition/gkv/dmp-kennzeichen",
            "valueCoding" : {
              "system" : "https://fhir.kbv.de/CodeSystem/KBV_CS_SFHIR_KBV_DMP",
              "code" : "00"
            }
          }, {
            "url" : "http://fhir.de/StructureDefinition/gkv/wop",
            "valueCoding" : {
              "system" : "https://fhir.kbv.de/CodeSystem/KBV_CS_SFHIR_ITA_WOP",
              "code" : "47"
            }
          }, {
            "url" : "http://fhir.de/StructureDefinition/gkv/versichertenart",
            "valueCoding" : {
              "system" : "https://fhir.kbv.de/CodeSystem/KBV_CS_SFHIR_KBV_VERSICHERTENSTATUS",
              "code" : "1"
            }
          } ],
          "status" : "active",
          "type" : {
            "coding" : [ {
              "system" : "http://fhir.de/CodeSystem/versicherungsart-de-basis",
              "code" : "PKV"
            } ]
          },
          "beneficiary" : {
            "reference" : "Patient/6e2f3fdc-4d5b-41af-8adf-5f598bdaee3b"
          },
          "payor" : [ {
            "identifier" : {
              "system" : "http://fhir.de/sid/arge-ik/iknr",
              "value" : "168141416"
            },
            "display" : "Mecklenburgische"
          } ]
        }
      }, {
        "fullUrl" : "https://pvs.gematik.de/fhir/Practitioner/3ee4c48a-dd58-4e9a-889f-5f6979f31d8b",
        "resource" : {
          "resourceType" : "Practitioner",
          "id" : "3ee4c48a-dd58-4e9a-889f-5f6979f31d8b",
          "meta" : {
            "profile" : [ "https://fhir.kbv.de/StructureDefinition/KBV_PR_FOR_Practitioner|1.1.0" ]
          },
          "identifier" : [ {
            "type" : {
              "coding" : [ {
                "system" : "http://terminology.hl7.org/CodeSystem/v2-0203",
                "code" : "LANR"
              } ]
            },
            "system" : "https://fhir.kbv.de/NamingSystem/KBV_NS_Base_ANR",
            "value" : "890354435"
          } ],
          "name" : [ {
            "use" : "official",
            "family" : "Schraßer",
            "_family" : {
              "extension" : [ {
                "url" : "http://hl7.org/fhir/StructureDefinition/humanname-own-name",
                "valueString" : "Schraßer"
              } ]
            },
            "given" : [ "Dr." ],
            "prefix" : [ "Dr." ],
            "_prefix" : [ {
              "extension" : [ {
                "url" : "http://hl7.org/fhir/StructureDefinition/iso21090-EN-qualifier",
                "valueCode" : "AC"
              } ]
            } ]
          } ],
          "qualification" : [ {
            "code" : {
              "coding" : [ {
                "system" : "https://fhir.kbv.de/CodeSystem/KBV_CS_FOR_Qualification_Type",
                "code" : "00"
              } ]
            }
          }, {
            "code" : {
              "coding" : [ {
                "system" : "https://fhir.kbv.de/CodeSystem/KBV_CS_FOR_Berufsbezeichnung",
                "code" : "Berufsbezeichnung"
              } ],
              "text" : "Super-Facharzt für alles Mögliche"
            }
          } ]
        }
      }, {
        "fullUrl" : "https://pvs.gematik.de/fhir/MedicationRequest/64f07fc5-40fe-40a1-aab0-f0d7000ebff9",
        "resource" : {
          "resourceType" : "MedicationRequest",
          "id" : "64f07fc5-40fe-40a1-aab0-f0d7000ebff9",
          "meta" : {
            "profile" : [ "https://fhir.kbv.de/StructureDefinition/KBV_PR_ERP_Prescription|1.1.0" ]
          },
          "extension" : [ {
            "url" : "https://fhir.kbv.de/StructureDefinition/KBV_EX_ERP_BVG",
            "valueBoolean" : false
          }, {
            "url" : "https://fhir.kbv.de/StructureDefinition/KBV_EX_ERP_EmergencyServicesFee",
            "valueBoolean" : false
          }, {
            "url" : "https://fhir.kbv.de/StructureDefinition/KBV_EX_ERP_Multiple_Prescription",
            "extension" : [ {
              "url" : "Kennzeichen",
              "valueBoolean" : false
            } ]
          }, {
            "url" : "https://fhir.kbv.de/StructureDefinition/KBV_EX_FOR_StatusCoPayment",
            "valueCoding" : {
              "system" : "https://fhir.kbv.de/CodeSystem/KBV_CS_FOR_StatusCoPayment",
              "code" : "0"
            }
          } ],
          "status" : "active",
          "intent" : "order",
          "medicationReference" : {
            "reference" : "Medication/a7f5f1b4-3264-415f-8ce7-cdd8916e4ade"
          },
          "subject" : {
            "reference" : "Patient/f6fb3adc-74c3-4d92-89c0-f4d8be93edf9"
          },
          "authoredOn" : "2023-11-27",
          "requester" : {
            "reference" : "Practitioner/3ee4c48a-dd58-4e9a-889f-5f6979f31d8b"
          },
          "insurance" : [ {
            "reference" : "Coverage/6dc29303-e51c-4664-9d1a-423169b98542"
          } ],
          "dosageInstruction" : [ {
            "extension" : [ {
              "url" : "https://fhir.kbv.de/StructureDefinition/KBV_EX_ERP_DosageFlag",
              "valueBoolean" : true
            } ],
            "text" : "2-0-3-2-1-3-2"
          } ],
          "dispenseRequest" : {
            "quantity" : {
              "value" : 1,
              "system" : "http://unitsofmeasure.org",
              "code" : "{Package}"
            }
          },
          "substitution" : {
            "allowedBoolean" : false
          }
        }
      } ],
      "signature" : {
        "type" : [ {
          "system" : "urn:iso-astm:E1762-95:2013",
          "code" : "1.2.840.10065.1.12.1.1"
        } ],
        "when" : "2023-11-27T07:37:07.385+00:00",
        "who" : {
          "reference" : "https://erp-test.zentral.erp.splitdns.ti-dienste.de/Device/1"
        },
        "sigFormat" : "application/pkcs7-mime",
        "data" : ""
      }
    }
  }, {
    "fullUrl" : "urn:uuid:c81ea700-0000-0000-0003-000000000000",
    "resource" : {
      "resourceType" : "Bundle",
      "meta" : {
        "profile" : [ "https://gematik.de/fhir/erp/StructureDefinition/GEM_ERP_PR_Bundle|1.2" ]
      },
      "identifier" : {
        "system" : "https://gematik.de/fhir/erp/NamingSystem/GEM_ERP_NS_PrescriptionId",
        "value" : "200.000.000.042.782.56"
      },
      "type" : "document",
      "timestamp" : "2023-11-27T07:37:03.668+00:00",
      "link" : [ {
        "relation" : "self",
        "url" : "https://erp-test.zentral.erp.splitdns.ti-dienste.de/Task/200.000.000.042.782.56/$close/"
      } ],
      "entry" : [ {
        "fullUrl" : "urn:uuid:4908a0fc-b214-4999-bba3-a11e35a6c56f",
        "resource" : {
          "resourceType" : "Composition",
          "id" : "4908a0fc-b214-4999-bba3-a11e35a6c56f",
          "meta" : {
            "profile" : [ "https://gematik.de/fhir/erp/StructureDefinition/GEM_ERP_PR_Composition|1.2" ]
          },
          "extension" : [ {
            "url" : "https://gematik.de/fhir/erp/StructureDefinition/GEM_ERP_EX_Beneficiary",
            "valueIdentifier" : {
              "system" : "https://gematik.de/fhir/sid/telematik-id",
              "value" : "3-SMC-B-Testkarte-883110000116873"
            }
          } ],
          "status" : "final",
          "type" : {
            "coding" : [ {
              "system" : "https://gematik.de/fhir/erp/CodeSystem/GEM_ERP_CS_DocumentType",
              "code" : "3",
              "display" : "Receipt"
            } ]
          },
          "date" : "2023-11-27T07:37:03.667+00:00",
          "author" : [ {
            "reference" : "https://erp-test.zentral.erp.splitdns.ti-dienste.de/Device/1"
          } ],
          "title" : "Quittung",
          "event" : [ {
            "period" : {
              "start" : "2023-11-27T07:37:02.111+00:00",
              "end" : "2023-11-27T07:37:03.667+00:00"
            }
          } ],
          "section" : [ {
            "entry" : [ {
              "reference" : "Binary/PrescriptionDigest-200.000.000.042.782.56"
            } ]
          } ]
        }
      }, {
        "fullUrl" : "https://erp-test.zentral.erp.splitdns.ti-dienste.de/Device/1",
        "resource" : {
          "resourceType" : "Device",
          "id" : "1",
          "meta" : {
            "profile" : [ "https://gematik.de/fhir/erp/StructureDefinition/GEM_ERP_PR_Device|1.2" ]
          },
          "status" : "active",
          "serialNumber" : "1.12.0",
          "deviceName" : [ {
            "name" : "E-Rezept Fachdienst",
            "type" : "user-friendly-name"
          } ],
          "version" : [ {
            "value" : "1.12.0"
          } ],
          "contact" : [ {
            "system" : "email",
            "value" : "betrieb@gematik.de"
          } ]
        }
      }, {
        "fullUrl" : "https://erp-test.zentral.erp.splitdns.ti-dienste.de/Binary/PrescriptionDigest-200.000.000.042.782.56",
        "resource" : {
          "resourceType" : "Binary",
          "id" : "PrescriptionDigest-200.000.000.042.782.56",
          "meta" : {
            "versionId" : "1",
            "profile" : [ "https://gematik.de/fhir/erp/StructureDefinition/GEM_ERP_PR_Digest|1.2" ]
          },
          "contentType" : "application/octet-stream",
          "data" : "7jzNXVw+swXtxcSKcUeITPwX1EmweJMwDGlw4HYWx+Q="
        }
      } ],
      "signature" : {
        "type" : [ {
          "system" : "urn:iso-astm:E1762-95:2013",
          "code" : "1.2.840.10065.1.12.1.1"
        } ],
        "when" : "2023-11-27T07:37:07.386+00:00",
        "who" : {
          "reference" : "https://erp-test.zentral.erp.splitdns.ti-dienste.de/Device/1"
        },
        "sigFormat" : "application/pkcs7-mime",
        "data" : ""
      }
    }
  } ]
}