{
  "resourceType" : "Bundle",
  "id" : "4f87dd23-7343-4611-a9c1-846e8a3aa80a",
  "type" : "collection",
  "timestamp" : "2023-11-27T07:36:35.792+00:00",
  "entry" : [ {
    "fullUrl" : "https://erp-test.zentral.erp.splitdns.ti-dienste.de/ChargeItem/200.000.000.042.779.65",
    "resource" : {
      "resourceType" : "ChargeItem",
      "id" : "200.000.000.042.779.65",
      "meta" : {
        "profile" : [ "https://gematik.de/fhir/erpchrg/StructureDefinition/GEM_ERPCHRG_PR_ChargeItem|1.0" ]
      },
      "identifier" : [ {
        "system" : "https://gematik.de/fhir/erp/NamingSystem/GEM_ERP_NS_AccessCode",
        "value" : "72b9375a24923dfb342ef756d2e5c5392e75b51e8c850debf8fcc1bedaa60546"
      }, {
        "system" : "https://gematik.de/fhir/erp/NamingSystem/GEM_ERP_NS_PrescriptionId",
        "value" : "200.000.000.042.779.65"
      } ],
      "status" : "billable",
      "code" : {
        "coding" : [ {
          "system" : "http://terminology.hl7.org/CodeSystem/data-absent-reason",
          "code" : "not-applicable"
        } ]
      },
      "subject" : {
        "identifier" : {
          "system" : "http://fhir.de/sid/pkv/kvid-10",
          "value" : "X110465770"
        }
      },
      "enterer" : {
        "identifier" : {
          "system" : "https://gematik.de/fhir/sid/telematik-id",
          "value" : "3-SMC-B-Testkarte-883110000116873"
        }
      },
      "enteredDate" : "2023-11-27T07:36:35.691+00:00",
      "supportingInformation" : [ {
        "reference" : "urn:uuid:c81ba700-0000-0000-0001-000000000000",
        "display" : "https://fhir.kbv.de/StructureDefinition/KBV_PR_ERP_Bundle"
      }, {
        "reference" : "urn:uuid:c81ba700-0000-0000-0004-000000000000",
        "display" : "http://fhir.abda.de/eRezeptAbgabedaten/StructureDefinition/DAV-PKV-PR-ERP-AbgabedatenBundle"
      }, {
        "reference" : "urn:uuid:c81ba700-0000-0000-0003-000000000000",
        "display" : "https://gematik.de/fhir/erp/StructureDefinition/GEM_ERP_PR_Bundle"
      } ]
    }
  }, {
    "fullUrl" : "urn:uuid:c81ba700-0000-0000-0004-000000000000",
    "resource" : {
      "resourceType" : "Bundle",
      "id" : "db5c3cf6-4326-4c71-8de5-e08b653e1cb7",
      "meta" : {
        "lastUpdated" : "2023-11-27T08:36:34.025+01:00",
        "profile" : [ "http://fhir.abda.de/eRezeptAbgabedaten/StructureDefinition/DAV-PKV-PR-ERP-AbgabedatenBundle|1.2" ]
      },
      "identifier" : {
        "system" : "https://gematik.de/fhir/erp/NamingSystem/GEM_ERP_NS_PrescriptionId",
        "value" : "200.000.000.042.779.65"
      },
      "type" : "document",
      "timestamp" : "2023-11-27T08:36:34.025+01:00",
      "entry" : [ {
        "fullUrl" : "urn:uuid:56a9c189-fc76-49b9-9b37-ec05d13c4af1",
        "resource" : {
          "resourceType" : "Composition",
          "meta" : {
            "profile" : [ "http://fhir.abda.de/eRezeptAbgabedaten/StructureDefinition/DAV-PKV-PR-ERP-AbgabedatenComposition|1.2" ]
          },
          "status" : "final",
          "type" : {
            "coding" : [ {
              "system" : "http://fhir.abda.de/eRezeptAbgabedaten/CodeSystem/DAV-CS-ERP-CompositionTypes",
              "code" : "ERezeptAbgabedaten"
            } ]
          },
          "date" : "2023-11-27T08:36:34+01:00",
          "author" : [ {
            "reference" : "urn:uuid:b504e386-535e-4f7c-b229-2ab166eefe66"
          } ],
          "title" : "ERezeptAbgabedaten",
          "section" : [ {
            "title" : "Apotheke",
            "entry" : [ {
              "reference" : "urn:uuid:b504e386-535e-4f7c-b229-2ab166eefe66"
            } ]
          }, {
            "title" : "Abgabeinformationen",
            "entry" : [ {
              "reference" : "urn:uuid:9ab4267c-3580-4433-a4a5-49153e21a54f"
            } ]
          } ]
        }
      }, {
        "fullUrl" : "urn:uuid:b504e386-535e-4f7c-b229-2ab166eefe66",
        "resource" : {
          "resourceType" : "Organization",
          "meta" : {
            "profile" : [ "http://fhir.abda.de/eRezeptAbgabedaten/StructureDefinition/DAV-PKV-PR-ERP-Apotheke|1.2" ]
          },
          "identifier" : [ {
            "system" : "http://fhir.de/sid/arge-ik/iknr",
            "value" : "527787940"
          } ],
          "name" : "Apotheke Robin Money",
          "address" : [ {
            "type" : "physical",
            "line" : [ "Gebhardstr. 49" ],
            "_line" : [ {
              "extension" : [ {
                "url" : "http://hl7.org/fhir/StructureDefinition/iso21090-ADXP-houseNumber",
                "valueString" : "49"
              }, {
                "url" : "http://hl7.org/fhir/StructureDefinition/iso21090-ADXP-streetName",
                "valueString" : "Gebhardstr."
              } ]
            } ],
            "city" : "Frantascheid",
            "postalCode" : "00547",
            "country" : "D"
          } ]
        }
      }, {
        "fullUrl" : "urn:uuid:e9aed30e-5237-4116-962d-4d1a15c5a550",
        "resource" : {
          "resourceType" : "Invoice",
          "meta" : {
            "profile" : [ "http://fhir.abda.de/eRezeptAbgabedaten/StructureDefinition/DAV-PKV-PR-ERP-Abrechnungszeilen|1.2" ]
          },
          "status" : "issued",
          "type" : {
            "coding" : [ {
              "system" : "http://fhir.abda.de/eRezeptAbgabedaten/CodeSystem/DAV-CS-ERP-InvoiceTyp",
              "code" : "Abrechnungszeilen"
            } ]
          },
          "lineItem" : [ {
            "sequence" : 1,
            "chargeItemCodeableConcept" : {
              "coding" : [ {
                "system" : "http://fhir.de/CodeSystem/ifa/pzn",
                "code" : "52169033"
              } ],
              "text" : "Erenamesäure"
            },
            "priceComponent" : [ {
              "extension" : [ {
                "url" : "http://fhir.abda.de/eRezeptAbgabedaten/StructureDefinition/DAV-EX-ERP-KostenVersicherter",
                "extension" : [ {
                  "url" : "Kategorie",
                  "valueCodeableConcept" : {
                    "coding" : [ {
                      "system" : "http://fhir.abda.de/eRezeptAbgabedaten/CodeSystem/DAV-PKV-CS-ERP-KostenVersicherterKategorie",
                      "code" : "0"
                    } ]
                  }
                }, {
                  "url" : "Kostenbetrag",
                  "valueMoney" : {
                    "value" : 0.35,
                    "currency" : "EUR"
                  }
                } ]
              }, {
                "url" : "http://fhir.abda.de/eRezeptAbgabedaten/StructureDefinition/DAV-EX-ERP-MwStSatz",
                "valueDecimal" : 19.68
              } ],
              "type" : "informational",
              "factor" : 1,
              "amount" : {
                "value" : 0.79,
                "currency" : "EUR"
              }
            } ]
          }, {
            "sequence" : 2,
            "chargeItemCodeableConcept" : {
              "coding" : [ {
                "system" : "http://fhir.de/CodeSystem/ifa/pzn",
                "code" : "85185171"
              } ],
              "text" : "Homabraum"
            },
            "priceComponent" : [ {
              "extension" : [ {
                "url" : "http://fhir.abda.de/eRezeptAbgabedaten/StructureDefinition/DAV-EX-ERP-KostenVersicherter",
                "extension" : [ {
                  "url" : "Kategorie",
                  "valueCodeableConcept" : {
                    "coding" : [ {
                      "system" : "http://fhir.abda.de/eRezeptAbgabedaten/CodeSystem/DAV-PKV-CS-ERP-KostenVersicherterKategorie",
                      "code" : "0"
                    } ]
                  }
                }, {
                  "url" : "Kostenbetrag",
                  "valueMoney" : {
                    "value" : 178.25,
                    "currency" : "EUR"
                  }
                } ]
              }, {
                "url" : "http://fhir.abda.de/eRezeptAbgabedaten/StructureDefinition/DAV-EX-ERP-MwStSatz",
                "valueDecimal" : 19.68
              } ],
              "type" : "informational",
              "factor" : 1,
              "amount" : {
                "value" : 541.40,
                "currency" : "EUR"
              }
            } ]
          }, {
            "sequence" : 3,
            "chargeItemCodeableConcept" : {
              "coding" : [ {
                "system" : "http://fhir.de/CodeSystem/ifa/pzn",
                "code" : "15535706"
              } ],
              "text" : "Enoxabraan"
            },
            "priceComponent" : [ {
              "extension" : [ {
                "url" : "http://fhir.abda.de/eRezeptAbgabedaten/StructureDefinition/DAV-EX-ERP-KostenVersicherter",
                "extension" : [ {
                  "url" : "Kategorie",
                  "valueCodeableConcept" : {
                    "coding" : [ {
                      "system" : "http://fhir.abda.de/eRezeptAbgabedaten/CodeSystem/DAV-PKV-CS-ERP-KostenVersicherterKategorie",
                      "code" : "0"
                    } ]
                  }
                }, {
                  "url" : "Kostenbetrag",
                  "valueMoney" : {
                    "value" : 45.16,
                    "currency" : "EUR"
                  }
                } ]
              }, {
                "url" : "http://fhir.abda.de/eRezeptAbgabedaten/StructureDefinition/DAV-EX-ERP-MwStSatz",
                "valueDecimal" : 19.68
              } ],
              "type" : "informational",
              "factor" : 1,
              "amount" : {
                "value" : 102.62,
                "currency" : "EUR"
              }
            } ]
          }, {
            "sequence" : 4,
            "chargeItemCodeableConcept" : {
              "coding" : [ {
                "system" : "http://fhir.de/CodeSystem/ifa/pzn",
                "code" : "47549549"
              } ],
              "text" : "Enoximopam"
            },
            "priceComponent" : [ {
              "extension" : [ {
                "url" : "http://fhir.abda.de/eRezeptAbgabedaten/StructureDefinition/DAV-EX-ERP-KostenVersicherter",
                "extension" : [ {
                  "url" : "Kategorie",
                  "valueCodeableConcept" : {
                    "coding" : [ {
                      "system" : "http://fhir.abda.de/eRezeptAbgabedaten/CodeSystem/DAV-PKV-CS-ERP-KostenVersicherterKategorie",
                      "code" : "0"
                    } ]
                  }
                }, {
                  "url" : "Kostenbetrag",
                  "valueMoney" : {
                    "value" : 26.12,
                    "currency" : "EUR"
                  }
                } ]
              }, {
                "url" : "http://fhir.abda.de/eRezeptAbgabedaten/StructureDefinition/DAV-EX-ERP-MwStSatz",
                "valueDecimal" : 19.68
              } ],
              "type" : "informational",
              "factor" : 1,
              "amount" : {
                "value" : 45.64,
                "currency" : "EUR"
              }
            } ]
          } ],
          "totalGross" : {
            "extension" : [ {
              "url" : "http://fhir.abda.de/eRezeptAbgabedaten/StructureDefinition/DAV-EX-ERP-Gesamtzuzahlung",
              "valueMoney" : {
                "value" : 249.88,
                "currency" : "EUR"
              }
            } ],
            "value" : 690.45,
            "currency" : "EUR"
          }
        }
      }, {
        "fullUrl" : "urn:uuid:9ab4267c-3580-4433-a4a5-49153e21a54f",
        "resource" : {
          "resourceType" : "MedicationDispense",
          "meta" : {
            "profile" : [ "http://fhir.abda.de/eRezeptAbgabedaten/StructureDefinition/DAV-PKV-PR-ERP-Abgabeinformationen|1.2" ]
          },
          "extension" : [ {
            "url" : "http://fhir.abda.de/eRezeptAbgabedaten/StructureDefinition/DAV-PKV-EX-ERP-AbrechnungsTyp",
            "valueCodeableConcept" : {
              "coding" : [ {
                "system" : "http://fhir.abda.de/eRezeptAbgabedaten/CodeSystem/DAV-PKV-CS-ERP-AbrechnungsTyp",
                "code" : "1"
              } ]
            }
          }, {
            "url" : "http://fhir.abda.de/eRezeptAbgabedaten/StructureDefinition/DAV-EX-ERP-Abrechnungszeilen",
            "valueReference" : {
              "reference" : "urn:uuid:e9aed30e-5237-4116-962d-4d1a15c5a550"
            }
          } ],
          "status" : "completed",
          "medicationCodeableConcept" : {
            "coding" : [ {
              "system" : "http://terminology.hl7.org/CodeSystem/data-absent-reason",
              "code" : "not-applicable"
            } ]
          },
          "performer" : [ {
            "actor" : {
              "reference" : "urn:uuid:b504e386-535e-4f7c-b229-2ab166eefe66"
            }
          } ],
          "authorizingPrescription" : [ {
            "identifier" : {
              "system" : "https://gematik.de/fhir/erp/NamingSystem/GEM_ERP_NS_PrescriptionId",
              "value" : "200.000.000.042.779.65"
            }
          } ],
          "type" : {
            "coding" : [ {
              "system" : "http://fhir.abda.de/eRezeptAbgabedaten/CodeSystem/DAV-CS-ERP-MedicationDispenseTyp",
              "code" : "Abgabeinformationen"
            } ]
          },
          "whenHandedOver" : "2023-11-27"
        }
      } ],
      "signature" : {
        "type" : [ {
          "system" : "urn:iso-astm:E1762-95:2013",
          "code" : "1.2.840.10065.1.12.1.1"
        } ],
        "when" : "2023-11-27T07:36:35.859+00:00",
        "who" : {
          "reference" : "https://erp-test.zentral.erp.splitdns.ti-dienste.de/Device/1"
        },
        "sigFormat" : "application/pkcs7-mime",
        "data" : ""
      }
    }
  }, {
    "fullUrl" : "urn:uuid:c81ba700-0000-0000-0001-000000000000",
    "resource" : {
      "resourceType" : "Bundle",
      "id" : "5298e114-6c1a-41bf-bd7c-08af759c491b",
      "meta" : {
        "lastUpdated" : "2023-11-27T08:36:31.106+01:00",
        "profile" : [ "https://fhir.kbv.de/StructureDefinition/KBV_PR_ERP_Bundle|1.1.0" ]
      },
      "identifier" : {
        "system" : "https://gematik.de/fhir/erp/NamingSystem/GEM_ERP_NS_PrescriptionId",
        "value" : "200.000.000.042.779.65"
      },
      "type" : "document",
      "timestamp" : "2023-11-27T08:36:31.106+01:00",
      "entry" : [ {
        "fullUrl" : "https://pvs.gematik.de/fhir/Composition/352849b1-4496-49b3-a44d-5986d96a5cf8",
        "resource" : {
          "resourceType" : "Composition",
          "id" : "352849b1-4496-49b3-a44d-5986d96a5cf8",
          "meta" : {
            "profile" : [ "https://fhir.kbv.de/StructureDefinition/KBV_PR_ERP_Composition|1.1.0" ]
          },
          "extension" : [ {
            "url" : "https://fhir.kbv.de/StructureDefinition/KBV_EX_FOR_Legal_basis",
            "valueCoding" : {
              "system" : "https://fhir.kbv.de/CodeSystem/KBV_CS_SFHIR_KBV_STATUSKENNZEICHEN",
              "code" : "00"
            }
          } ],
          "status" : "final",
          "type" : {
            "coding" : [ {
              "system" : "https://fhir.kbv.de/CodeSystem/KBV_CS_SFHIR_KBV_FORMULAR_ART",
              "code" : "e16A"
            } ]
          },
          "subject" : {
            "reference" : "Patient/ab2355c3-3abb-44e0-9904-7c4783d349ba"
          },
          "date" : "2023-11-27T08:36:31+01:00",
          "author" : [ {
            "reference" : "Practitioner/05b488d3-05a4-4bc3-83c6-dbb4856bac26",
            "type" : "Practitioner"
          }, {
            "type" : "Device",
            "identifier" : {
              "system" : "https://fhir.kbv.de/NamingSystem/KBV_NS_FOR_Pruefnummer",
              "value" : "GEMATIK/410/2109/36/123"
            }
          } ],
          "title" : "elektronische Arzneimittelverordnung",
          "custodian" : {
            "reference" : "Organization/8aeb8109-9711-4825-8c0a-2acb56c49798"
          },
          "section" : [ {
            "code" : {
              "coding" : [ {
                "system" : "https://fhir.kbv.de/CodeSystem/KBV_CS_ERP_Section_Type",
                "code" : "Coverage"
              } ]
            },
            "entry" : [ {
              "reference" : "Coverage/323b045d-32e6-4074-be72-9f719df87e05"
            } ]
          }, {
            "code" : {
              "coding" : [ {
                "system" : "https://fhir.kbv.de/CodeSystem/KBV_CS_ERP_Section_Type",
                "code" : "Prescription"
              } ]
            },
            "entry" : [ {
              "reference" : "MedicationRequest/391afd29-6a5e-45c4-84fc-262eda2d9a94"
            } ]
          } ]
        }
      }, {
        "fullUrl" : "https://pvs.gematik.de/fhir/Medication/6f8e514c-d940-48dd-96be-a44d3e0ed149",
        "resource" : {
          "resourceType" : "Medication",
          "id" : "6f8e514c-d940-48dd-96be-a44d3e0ed149",
          "meta" : {
            "profile" : [ "https://fhir.kbv.de/StructureDefinition/KBV_PR_ERP_Medication_PZN|1.1.0" ]
          },
          "extension" : [ {
            "url" : "https://fhir.kbv.de/StructureDefinition/KBV_EX_Base_Medication_Type",
            "valueCodeableConcept" : {
              "coding" : [ {
                "system" : "http://snomed.info/sct",
                "version" : "http://snomed.info/sct/900000000000207008/version/20220331",
                "code" : "763158003",
                "display" : "Medicinal product (product)"
              } ]
            }
          }, {
            "url" : "https://fhir.kbv.de/StructureDefinition/KBV_EX_ERP_Medication_Category",
            "valueCoding" : {
              "system" : "https://fhir.kbv.de/CodeSystem/KBV_CS_ERP_Medication_Category",
              "code" : "00"
            }
          }, {
            "url" : "https://fhir.kbv.de/StructureDefinition/KBV_EX_ERP_Medication_Vaccine",
            "valueBoolean" : false
          }, {
            "url" : "http://fhir.de/StructureDefinition/normgroesse",
            "valueCode" : "NB"
          } ],
          "code" : {
            "coding" : [ {
              "system" : "http://fhir.de/CodeSystem/ifa/pzn",
              "code" : "22244760"
            } ],
            "text" : "Schmerzmittel"
          },
          "form" : {
            "coding" : [ {
              "system" : "https://fhir.kbv.de/CodeSystem/KBV_CS_SFHIR_KBV_DARREICHUNGSFORM",
              "code" : "TAB"
            } ]
          },
          "amount" : {
            "numerator" : {
              "extension" : [ {
                "url" : "https://fhir.kbv.de/StructureDefinition/KBV_EX_ERP_Medication_PackagingSize",
                "valueString" : "1"
              } ],
              "unit" : "Stk"
            },
            "denominator" : {
              "value" : 1
            }
          }
        }
      }, {
        "fullUrl" : "https://pvs.gematik.de/fhir/Patient/ab2355c3-3abb-44e0-9904-7c4783d349ba",
        "resource" : {
          "resourceType" : "Patient",
          "id" : "ab2355c3-3abb-44e0-9904-7c4783d349ba",
          "meta" : {
            "profile" : [ "https://fhir.kbv.de/StructureDefinition/KBV_PR_FOR_Patient|1.1.0" ]
          },
          "identifier" : [ {
            "type" : {
              "coding" : [ {
                "system" : "http://fhir.de/CodeSystem/identifier-type-de-basis",
                "code" : "PKV"
              } ]
            },
            "system" : "http://fhir.de/sid/pkv/kvid-10",
            "value" : "X110465770"
          } ],
          "name" : [ {
            "use" : "official",
            "family" : "Angermänn",
            "_family" : {
              "extension" : [ {
                "url" : "http://hl7.org/fhir/StructureDefinition/humanname-own-name",
                "valueString" : "Angermänn"
              } ]
            },
            "given" : [ "Günther" ]
          } ],
          "birthDate" : "1997-09-20",
          "address" : [ {
            "type" : "both",
            "line" : [ "Saarlauterner Str. 26a" ],
            "_line" : [ {
              "extension" : [ {
                "url" : "http://hl7.org/fhir/StructureDefinition/iso21090-ADXP-houseNumber",
                "valueString" : "26a"
              }, {
                "url" : "http://hl7.org/fhir/StructureDefinition/iso21090-ADXP-streetName",
                "valueString" : "Saarlauterner Str."
              } ]
            } ],
            "city" : "Mueshagen",
            "postalCode" : "80108",
            "country" : "D"
          } ]
        }
      }, {
        "fullUrl" : "https://pvs.gematik.de/fhir/Organization/8aeb8109-9711-4825-8c0a-2acb56c49798",
        "resource" : {
          "resourceType" : "Organization",
          "id" : "8aeb8109-9711-4825-8c0a-2acb56c49798",
          "meta" : {
            "profile" : [ "https://fhir.kbv.de/StructureDefinition/KBV_PR_FOR_Organization|1.1.0" ]
          },
          "identifier" : [ {
            "type" : {
              "coding" : [ {
                "system" : "http://terminology.hl7.org/CodeSystem/v2-0203",
                "code" : "BSNR"
              } ]
            },
            "system" : "https://fhir.kbv.de/NamingSystem/KBV_NS_Base_BSNR",
            "value" : "384210580"
          } ],
          "name" : "Arztpraxis Schraßer",
          "telecom" : [ {
            "system" : "phone",
            "value" : "+49-893-6214360"
          }, {
            "system" : "email",
            "value" : "joana.walther@xn--schnball-p4a.de"
          } ],
          "address" : [ {
            "type" : "both",
            "line" : [ "Wilhelm-Busch-Str. 23a" ],
            "_line" : [ {
              "extension" : [ {
                "url" : "http://hl7.org/fhir/StructureDefinition/iso21090-ADXP-houseNumber",
                "valueString" : "23a"
              }, {
                "url" : "http://hl7.org/fhir/StructureDefinition/iso21090-ADXP-streetName",
                "valueString" : "Wilhelm-Busch-Str."
              } ]
            } ],
            "city" : "Peterbrunn",
            "postalCode" : "23932",
            "country" : "D"
          } ]
        }
      }, {
        "fullUrl" : "https://pvs.gematik.de/fhir/Coverage/323b045d-32e6-4074-be72-9f719df87e05",
        "resource" : {
          "resourceType" : "Coverage",
          "id" : "323b045d-32e6-4074-be72-9f719df87e05",
          "meta" : {
            "profile" : [ "https://fhir.kbv.de/StructureDefinition/KBV_PR_FOR_Coverage|1.1.0" ]
          },
          "extension" : [ {
            "url" : "http://fhir.de/StructureDefinition/gkv/besondere-personengruppe",
            "valueCoding" : {
              "system" : "https://fhir.kbv.de/CodeSystem/KBV_CS_SFHIR_KBV_PERSONENGRUPPE",
              "code" : "00"
            }
          }, {
            "url" : "http://fhir.de/StructureDefinition/gkv/dmp-kennzeichen",
            "valueCoding" : {
              "system" : "https://fhir.kbv.de/CodeSystem/KBV_CS_SFHIR_KBV_DMP",
              "code" : "00"
            }
          }, {
            "url" : "http://fhir.de/StructureDefinition/gkv/wop",
            "valueCoding" : {
              "system" : "https://fhir.kbv.de/CodeSystem/KBV_CS_SFHIR_ITA_WOP",
              "code" : "01"
            }
          }, {
            "url" : "http://fhir.de/StructureDefinition/gkv/versichertenart",
            "valueCoding" : {
              "system" : "https://fhir.kbv.de/CodeSystem/KBV_CS_SFHIR_KBV_VERSICHERTENSTATUS",
              "code" : "1"
            }
          } ],
          "status" : "active",
          "type" : {
            "coding" : [ {
              "system" : "http://fhir.de/CodeSystem/versicherungsart-de-basis",
              "code" : "PKV"
            } ]
          },
          "beneficiary" : {
            "reference" : "Patient/cba159ca-c753-45a1-a4b7-9424b782b69d"
          },
          "payor" : [ {
            "identifier" : {
              "system" : "http://fhir.de/sid/arge-ik/iknr",
              "value" : "168141438"
            },
            "display" : "Versicherer im Raum der Kirchen Krankenversic"
          } ]
        }
      }, {
        "fullUrl" : "https://pvs.gematik.de/fhir/Practitioner/05b488d3-05a4-4bc3-83c6-dbb4856bac26",
        "resource" : {
          "resourceType" : "Practitioner",
          "id" : "05b488d3-05a4-4bc3-83c6-dbb4856bac26",
          "meta" : {
            "profile" : [ "https://fhir.kbv.de/StructureDefinition/KBV_PR_FOR_Practitioner|1.1.0" ]
          },
          "identifier" : [ {
            "type" : {
              "coding" : [ {
                "system" : "http://terminology.hl7.org/CodeSystem/v2-0203",
                "code" : "LANR"
              } ]
            },
            "system" : "https://fhir.kbv.de/NamingSystem/KBV_NS_Base_ANR",
            "value" : "321979670"
          } ],
          "name" : [ {
            "use" : "official",
            "family" : "Schraßer",
            "_family" : {
              "extension" : [ {
                "url" : "http://hl7.org/fhir/StructureDefinition/humanname-own-name",
                "valueString" : "Schraßer"
              } ]
            },
            "given" : [ "Dr." ],
            "prefix" : [ "Dr." ],
            "_prefix" : [ {
              "extension" : [ {
                "url" : "http://hl7.org/fhir/StructureDefinition/iso21090-EN-qualifier",
                "valueCode" : "AC"
              } ]
            } ]
          } ],
          "qualification" : [ {
            "code" : {
              "coding" : [ {
                "system" : "https://fhir.kbv.de/CodeSystem/KBV_CS_FOR_Qualification_Type",
                "code" : "00"
              } ]
            }
          }, {
            "code" : {
              "coding" : [ {
                "system" : "https://fhir.kbv.de/CodeSystem/KBV_CS_FOR_Berufsbezeichnung",
                "code" : "Berufsbezeichnung"
              } ],
              "text" : "Super-Facharzt für alles Mögliche"
            }
          } ]
        }
      }, {
        "fullUrl" : "https://pvs.gematik.de/fhir/MedicationRequest/391afd29-6a5e-45c4-84fc-262eda2d9a94",
        "resource" : {
          "resourceType" : "MedicationRequest",
          "id" : "391afd29-6a5e-45c4-84fc-262eda2d9a94",
          "meta" : {
            "profile" : [ "https://fhir.kbv.de/StructureDefinition/KBV_PR_ERP_Prescription|1.1.0" ]
          },
          "extension" : [ {
            "url" : "https://fhir.kbv.de/StructureDefinition/KBV_EX_ERP_BVG",
            "valueBoolean" : false
          }, {
            "url" : "https://fhir.kbv.de/StructureDefinition/KBV_EX_ERP_EmergencyServicesFee",
            "valueBoolean" : false
          }, {
            "url" : "https://fhir.kbv.de/StructureDefinition/KBV_EX_ERP_Multiple_Prescription",
            "extension" : [ {
              "url" : "Kennzeichen",
              "valueBoolean" : false
            } ]
          }, {
            "url" : "https://fhir.kbv.de/StructureDefinition/KBV_EX_FOR_StatusCoPayment",
            "valueCoding" : {
              "system" : "https://fhir.kbv.de/CodeSystem/KBV_CS_FOR_StatusCoPayment",
              "code" : "2"
            }
          } ],
          "status" : "active",
          "intent" : "order",
          "medicationReference" : {
            "reference" : "Medication/6f8e514c-d940-48dd-96be-a44d3e0ed149"
          },
          "subject" : {
            "reference" : "Patient/ab2355c3-3abb-44e0-9904-7c4783d349ba"
          },
          "authoredOn" : "2023-11-27",
          "requester" : {
            "reference" : "Practitioner/05b488d3-05a4-4bc3-83c6-dbb4856bac26"
          },
          "insurance" : [ {
            "reference" : "Coverage/323b045d-32e6-4074-be72-9f719df87e05"
          } ],
          "dosageInstruction" : [ {
            "extension" : [ {
              "url" : "https://fhir.kbv.de/StructureDefinition/KBV_EX_ERP_DosageFlag",
              "valueBoolean" : true
            } ],
            "text" : "3-2-1-1-2-2"
          } ],
          "dispenseRequest" : {
            "quantity" : {
              "value" : 1,
              "system" : "http://unitsofmeasure.org",
              "code" : "{Package}"
            }
          },
          "substitution" : {
            "allowedBoolean" : false
          }
        }
      } ],
      "signature" : {
        "type" : [ {
          "system" : "urn:iso-astm:E1762-95:2013",
          "code" : "1.2.840.10065.1.12.1.1"
        } ],
        "when" : "2023-11-27T07:36:35.854+00:00",
        "who" : {
          "reference" : "https://erp-test.zentral.erp.splitdns.ti-dienste.de/Device/1"
        },
        "sigFormat" : "application/pkcs7-mime",
        "data" : ""
      }
    }
  }, {
    "fullUrl" : "urn:uuid:c81ba700-0000-0000-0003-000000000000",
    "resource" : {
      "resourceType" : "Bundle",
      "meta" : {
        "profile" : [ "https://gematik.de/fhir/erp/StructureDefinition/GEM_ERP_PR_Bundle|1.2" ]
      },
      "identifier" : {
        "system" : "https://gematik.de/fhir/erp/NamingSystem/GEM_ERP_NS_PrescriptionId",
        "value" : "200.000.000.042.779.65"
      },
      "type" : "document",
      "timestamp" : "2023-11-27T07:36:33.917+00:00",
      "link" : [ {
        "relation" : "self",
        "url" : "https://erp-test.zentral.erp.splitdns.ti-dienste.de/Task/200.000.000.042.779.65/$close/"
      } ],
      "entry" : [ {
        "fullUrl" : "urn:uuid:7d5efbea-d616-411e-9af0-9ac10e8cd951",
        "resource" : {
          "resourceType" : "Composition",
          "id" : "7d5efbea-d616-411e-9af0-9ac10e8cd951",
          "meta" : {
            "profile" : [ "https://gematik.de/fhir/erp/StructureDefinition/GEM_ERP_PR_Composition|1.2" ]
          },
          "extension" : [ {
            "url" : "https://gematik.de/fhir/erp/StructureDefinition/GEM_ERP_EX_Beneficiary",
            "valueIdentifier" : {
              "system" : "https://gematik.de/fhir/sid/telematik-id",
              "value" : "3-SMC-B-Testkarte-883110000116873"
            }
          } ],
          "status" : "final",
          "type" : {
            "coding" : [ {
              "system" : "https://gematik.de/fhir/erp/CodeSystem/GEM_ERP_CS_DocumentType",
              "code" : "3",
              "display" : "Receipt"
            } ]
          },
          "date" : "2023-11-27T07:36:33.915+00:00",
          "author" : [ {
            "reference" : "https://erp-test.zentral.erp.splitdns.ti-dienste.de/Device/1"
          } ],
          "title" : "Quittung",
          "event" : [ {
            "period" : {
              "start" : "2023-11-27T07:36:32.361+00:00",
              "end" : "2023-11-27T07:36:33.915+00:00"
            }
          } ],
          "section" : [ {
            "entry" : [ {
              "reference" : "Binary/PrescriptionDigest-200.000.000.042.779.65"
            } ]
          } ]
        }
      }, {
        "fullUrl" : "https://erp-test.zentral.erp.splitdns.ti-dienste.de/Device/1",
        "resource" : {
          "resourceType" : "Device",
          "id" : "1",
          "meta" : {
            "profile" : [ "https://gematik.de/fhir/erp/StructureDefinition/GEM_ERP_PR_Device|1.2" ]
          },
          "status" : "active",
          "serialNumber" : "1.12.0",
          "deviceName" : [ {
            "name" : "E-Rezept Fachdienst",
            "type" : "user-friendly-name"
          } ],
          "version" : [ {
            "value" : "1.12.0"
          } ],
          "contact" : [ {
            "system" : "email",
            "value" : "betrieb@gematik.de"
          } ]
        }
      }, {
        "fullUrl" : "https://erp-test.zentral.erp.splitdns.ti-dienste.de/Binary/PrescriptionDigest-200.000.000.042.779.65",
        "resource" : {
          "resourceType" : "Binary",
          "id" : "PrescriptionDigest-200.000.000.042.779.65",
          "meta" : {
            "versionId" : "1",
            "profile" : [ "https://gematik.de/fhir/erp/StructureDefinition/GEM_ERP_PR_Digest|1.2" ]
          },
          "contentType" : "application/octet-stream",
          "data" : "cnjYPuipXvyfcZI8TwwLwsqxw5IbgB/pAmDJ6AL2d7U="
        }
      } ],
      "signature" : {
        "type" : [ {
          "system" : "urn:iso-astm:E1762-95:2013",
          "code" : "1.2.840.10065.1.12.1.1"
        } ],
        "when" : "2023-11-27T07:36:35.856+00:00",
        "who" : {
          "reference" : "https://erp-test.zentral.erp.splitdns.ti-dienste.de/Device/1"
        },
        "sigFormat" : "application/pkcs7-mime",
        "data" : ""
      }
    }
  } ]
}