<Bundle xmlns="http://hl7.org/fhir">
   <id value="4f51deff-9ab0-4535-88ad-ad3558cdb029"/>
   <meta>
      <lastUpdated value="2024-02-08T19:08:46.196+01:00"/>
      <profile value="https://fhir.kbv.de/StructureDefinition/KBV_PR_ERP_Bundle|1.1.0"/>
   </meta>
   <identifier>
      <system value="https://gematik.de/fhir/erp/NamingSystem/GEM_ERP_NS_PrescriptionId"/>
      <value value="200.000.002.096.524.76"/>
   </identifier>
   <type value="document"/>
   <timestamp value="2024-02-08T19:08:46.196+01:00"/>
   <entry>
      <fullUrl value="https://pvs.gematik.de/fhir/Composition/8248823c-4d32-4acb-8093-1a0dca2e4958"/>
      <resource>
         <Composition xmlns="http://hl7.org/fhir">
            <id value="8248823c-4d32-4acb-8093-1a0dca2e4958"/>
            <meta>
               <profile value="https://fhir.kbv.de/StructureDefinition/KBV_PR_ERP_Composition|1.1.0"/>
            </meta>
            <extension url="https://fhir.kbv.de/StructureDefinition/KBV_EX_FOR_Legal_basis">
               <valueCoding>
                  <system value="https://fhir.kbv.de/CodeSystem/KBV_CS_SFHIR_KBV_STATUSKENNZEICHEN"/>
                  <code value="00"/>
               </valueCoding>
            </extension>
            <status value="final"/>
            <type>
               <coding>
                  <system value="https://fhir.kbv.de/CodeSystem/KBV_CS_SFHIR_KBV_FORMULAR_ART"/>
                  <code value="e16A"/>
               </coding>
            </type>
            <subject>
               <reference value="Patient/548a50d9-ccba-49c8-bb93-f01e7e382180"/>
            </subject>
            <date value="2024-02-08T19:08:46+01:00"/>
            <author>
               <reference value="Practitioner/c012b5ce-943d-4ffd-ba46-aad411a3318b"/>
               <type value="Practitioner"/>
            </author>
            <author>
               <type value="Device"/>
               <identifier>
                  <system value="https://fhir.kbv.de/NamingSystem/KBV_NS_FOR_Pruefnummer"/>
                  <value value="GEMATIK/410/2109/36/123"/>
               </identifier>
            </author>
            <title value="elektronische Arzneimittelverordnung"/>
            <custodian>
               <reference value="Organization/be5472bd-bb65-49a5-9d29-0d9bc4668232"/>
            </custodian>
            <section>
               <code>
                  <coding>
                     <system value="https://fhir.kbv.de/CodeSystem/KBV_CS_ERP_Section_Type"/>
                     <code value="Coverage"/>
                  </coding>
               </code>
               <entry>
                  <reference value="Coverage/bf7efc39-ede1-4b41-ada7-1ace947958f6"/>
               </entry>
            </section>
            <section>
               <code>
                  <coding>
                     <system value="https://fhir.kbv.de/CodeSystem/KBV_CS_ERP_Section_Type"/>
                     <code value="Prescription"/>
                  </coding>
               </code>
               <entry>
                  <reference value="MedicationRequest/ddbccc8c-9b70-49eb-a3c7-9f7cb6fda02b"/>
               </entry>
            </section>
         </Composition>
      </resource>
   </entry>
   <entry>
      <fullUrl value="https://pvs.gematik.de/fhir/Medication/ddc36347-ec0e-4c74-9320-af6410313905"/>
      <resource>
         <Medication xmlns="http://hl7.org/fhir">
            <id value="ddc36347-ec0e-4c74-9320-af6410313905"/>
            <meta>
               <profile value="https://fhir.kbv.de/StructureDefinition/KBV_PR_ERP_Medication_PZN|1.1.0"/>
            </meta>
            <extension url="https://fhir.kbv.de/StructureDefinition/KBV_EX_Base_Medication_Type">
               <valueCodeableConcept>
                  <coding>
                     <system value="http://snomed.info/sct"/>
                     <version value="http://snomed.info/sct/900000000000207008/version/20220331"/>
                     <code value="763158003"/>
                     <display value="Medicinal product (product)"/>
                  </coding>
               </valueCodeableConcept>
            </extension>
            <extension url="https://fhir.kbv.de/StructureDefinition/KBV_EX_ERP_Medication_Category">
               <valueCoding>
                  <system value="https://fhir.kbv.de/CodeSystem/KBV_CS_ERP_Medication_Category"/>
                  <code value="00"/>
               </valueCoding>
            </extension>
            <extension url="https://fhir.kbv.de/StructureDefinition/KBV_EX_ERP_Medication_Vaccine">
               <valueBoolean value="false"/>
            </extension>
            <extension url="http://fhir.de/StructureDefinition/normgroesse">
               <valueCode value="NB"/>
            </extension>
            <code>
               <coding>
                  <system value="http://fhir.de/CodeSystem/ifa/pzn"/>
                  <code value="61892969"/>
               </coding>
               <text value="Hepabraproston"/>
            </code>
            <form>
               <coding>
                  <system value="https://fhir.kbv.de/CodeSystem/KBV_CS_SFHIR_KBV_DARREICHUNGSFORM"/>
                  <code value="TAB"/>
               </coding>
            </form>
            <amount>
               <numerator>
                  <extension url="https://fhir.kbv.de/StructureDefinition/KBV_EX_ERP_Medication_PackagingSize">
                     <valueString value="1"/>
                  </extension>
                  <unit value="Stk"/>
               </numerator>
               <denominator>
                  <value value="1"/>
               </denominator>
            </amount>
         </Medication>
      </resource>
   </entry>
   <entry>
      <fullUrl value="https://pvs.gematik.de/fhir/Patient/548a50d9-ccba-49c8-bb93-f01e7e382180"/>
      <resource>
         <Patient xmlns="http://hl7.org/fhir">
            <id value="548a50d9-ccba-49c8-bb93-f01e7e382180"/>
            <meta>
               <profile value="https://fhir.kbv.de/StructureDefinition/KBV_PR_FOR_Patient|1.1.0"/>
            </meta>
            <identifier>
               <type>
                  <coding>
                     <system value="http://fhir.de/CodeSystem/identifier-type-de-basis"/>
                     <code value="PKV"/>
                  </coding>
               </type>
               <system value="http://fhir.de/sid/pkv/kvid-10"/>
               <value value="X110465770"/>
            </identifier>
            <name>
               <use value="official"/>
               <family value="Angermänn">
                  <extension url="http://hl7.org/fhir/StructureDefinition/humanname-own-name">
                     <valueString value="Angermänn"/>
                  </extension>
               </family>
               <given value="Günther"/>
            </name>
            <birthDate value="1993-03-09"/>
            <address>
               <type value="both"/>
               <line value="Peschstr. 9">
                  <extension url="http://hl7.org/fhir/StructureDefinition/iso21090-ADXP-houseNumber">
                     <valueString value="9"/>
                  </extension>
                  <extension url="http://hl7.org/fhir/StructureDefinition/iso21090-ADXP-streetName">
                     <valueString value="Peschstr."/>
                  </extension>
               </line>
               <city value="Klein Josiebrunn"/>
               <postalCode value="35925"/>
               <country value="D"/>
            </address>
         </Patient>
      </resource>
   </entry>
   <entry>
      <fullUrl value="https://pvs.gematik.de/fhir/Organization/be5472bd-bb65-49a5-9d29-0d9bc4668232"/>
      <resource>
         <Organization xmlns="http://hl7.org/fhir">
            <id value="be5472bd-bb65-49a5-9d29-0d9bc4668232"/>
            <meta>
               <profile value="https://fhir.kbv.de/StructureDefinition/KBV_PR_FOR_Organization|1.1.0"/>
            </meta>
            <identifier>
               <type>
                  <coding>
                     <system value="http://terminology.hl7.org/CodeSystem/v2-0203"/>
                     <code value="BSNR"/>
                  </coding>
               </type>
               <system value="https://fhir.kbv.de/NamingSystem/KBV_NS_Base_BSNR"/>
               <value value="558753276"/>
            </identifier>
            <name value="Arztpraxis Schraßer"/>
            <telecom>
               <system value="phone"/>
               <value value="+49-6491-96705367"/>
            </telecom>
            <telecom>
               <system value="email"/>
               <value value="flora.lauckner@orthmann.name"/>
            </telecom>
            <address>
               <type value="both"/>
               <line value="Böcklerstr. 43b">
                  <extension url="http://hl7.org/fhir/StructureDefinition/iso21090-ADXP-houseNumber">
                     <valueString value="43b"/>
                  </extension>
                  <extension url="http://hl7.org/fhir/StructureDefinition/iso21090-ADXP-streetName">
                     <valueString value="Böcklerstr."/>
                  </extension>
               </line>
               <city value="Groß Finnjadorf"/>
               <postalCode value="78873"/>
               <country value="D"/>
            </address>
         </Organization>
      </resource>
   </entry>
   <entry>
      <fullUrl value="https://pvs.gematik.de/fhir/Coverage/bf7efc39-ede1-4b41-ada7-1ace947958f6"/>
      <resource>
         <Coverage xmlns="http://hl7.org/fhir">
            <id value="bf7efc39-ede1-4b41-ada7-1ace947958f6"/>
            <meta>
               <profile value="https://fhir.kbv.de/StructureDefinition/KBV_PR_FOR_Coverage|1.1.0"/>
            </meta>
            <extension url="http://fhir.de/StructureDefinition/gkv/besondere-personengruppe">
               <valueCoding>
                  <system value="https://fhir.kbv.de/CodeSystem/KBV_CS_SFHIR_KBV_PERSONENGRUPPE"/>
                  <code value="00"/>
               </valueCoding>
            </extension>
            <extension url="http://fhir.de/StructureDefinition/gkv/dmp-kennzeichen">
               <valueCoding>
                  <system value="https://fhir.kbv.de/CodeSystem/KBV_CS_SFHIR_KBV_DMP"/>
                  <code value="00"/>
               </valueCoding>
            </extension>
            <extension url="http://fhir.de/StructureDefinition/gkv/wop">
               <valueCoding>
                  <system value="https://fhir.kbv.de/CodeSystem/KBV_CS_SFHIR_ITA_WOP"/>
                  <code value="71"/>
               </valueCoding>
            </extension>
            <extension url="http://fhir.de/StructureDefinition/gkv/versichertenart">
               <valueCoding>
                  <system value="https://fhir.kbv.de/CodeSystem/KBV_CS_SFHIR_KBV_VERSICHERTENSTATUS"/>
                  <code value="1"/>
               </valueCoding>
            </extension>
            <status value="active"/>
            <type>
               <coding>
                  <system value="http://fhir.de/CodeSystem/versicherungsart-de-basis"/>
                  <code value="PKV"/>
               </coding>
            </type>
            <beneficiary>
               <reference value="Patient/e81257c3-6322-4862-a2f2-d05598f0dbdf"/>
            </beneficiary>
            <payor>
               <identifier>
                  <system value="http://fhir.de/sid/arge-ik/iknr"/>
                  <value value="950585030"/>
               </identifier>
               <display value="PBeaKK Postbeamtenkrankenkasse"/>
            </payor>
         </Coverage>
      </resource>
   </entry>
   <entry>
      <fullUrl value="https://pvs.gematik.de/fhir/Practitioner/c012b5ce-943d-4ffd-ba46-aad411a3318b"/>
      <resource>
         <Practitioner xmlns="http://hl7.org/fhir">
            <id value="c012b5ce-943d-4ffd-ba46-aad411a3318b"/>
            <meta>
               <profile value="https://fhir.kbv.de/StructureDefinition/KBV_PR_FOR_Practitioner|1.1.0"/>
            </meta>
            <identifier>
               <type>
                  <coding>
                     <system value="http://terminology.hl7.org/CodeSystem/v2-0203"/>
                     <code value="LANR"/>
                  </coding>
               </type>
               <system value="https://fhir.kbv.de/NamingSystem/KBV_NS_Base_ANR"/>
               <value value="642521068"/>
            </identifier>
            <name>
               <use value="official"/>
               <family value="Schraßer">
                  <extension url="http://hl7.org/fhir/StructureDefinition/humanname-own-name">
                     <valueString value="Schraßer"/>
                  </extension>
               </family>
               <given value="Dr."/>
               <prefix value="Dr.">
                  <extension url="http://hl7.org/fhir/StructureDefinition/iso21090-EN-qualifier">
                     <valueCode value="AC"/>
                  </extension>
               </prefix>
            </name>
            <qualification>
               <code>
                  <coding>
                     <system value="https://fhir.kbv.de/CodeSystem/KBV_CS_FOR_Qualification_Type"/>
                     <code value="00"/>
                  </coding>
               </code>
            </qualification>
            <qualification>
               <code>
                  <coding>
                     <system value="https://fhir.kbv.de/CodeSystem/KBV_CS_FOR_Berufsbezeichnung"/>
                     <code value="Berufsbezeichnung"/>
                  </coding>
                  <text value="Super-Facharzt für alles Mögliche"/>
               </code>
            </qualification>
         </Practitioner>
      </resource>
   </entry>
   <entry>
      <fullUrl value="https://pvs.gematik.de/fhir/MedicationRequest/ddbccc8c-9b70-49eb-a3c7-9f7cb6fda02b"/>
      <resource>
         <MedicationRequest xmlns="http://hl7.org/fhir">
            <id value="ddbccc8c-9b70-49eb-a3c7-9f7cb6fda02b"/>
            <meta>
               <profile value="https://fhir.kbv.de/StructureDefinition/KBV_PR_ERP_Prescription|1.1.0"/>
            </meta>
            <extension url="https://fhir.kbv.de/StructureDefinition/KBV_EX_ERP_BVG">
               <valueBoolean value="false"/>
            </extension>
            <extension url="https://fhir.kbv.de/StructureDefinition/KBV_EX_ERP_EmergencyServicesFee">
               <valueBoolean value="false"/>
            </extension>
            <extension url="https://fhir.kbv.de/StructureDefinition/KBV_EX_ERP_Multiple_Prescription">
               <extension url="Kennzeichen">
                  <valueBoolean value="true"/>
               </extension>
               <extension url="Nummerierung">
                  <valueRatio>
                     <numerator>
                        <value value="4"/>
                     </numerator>
                     <denominator>
                        <value value="4"/>
                     </denominator>
                  </valueRatio>
               </extension>
               <extension url="Zeitraum">
                  <valuePeriod>
                     <start value="2024-11-04"/>
                     <end value="2025-02-02"/>
                  </valuePeriod>
               </extension>
               <extension url="ID">
                  <valueIdentifier>
                     <system value="urn:ietf:rfc:3986"/>
                     <value value="urn:uuid:7bb30620-cb76-4f3a-a459-5ad4c4b63b14"/>
                  </valueIdentifier>
               </extension>
            </extension>
            <extension url="https://fhir.kbv.de/StructureDefinition/KBV_EX_FOR_StatusCoPayment">
               <valueCoding>
                  <system value="https://fhir.kbv.de/CodeSystem/KBV_CS_FOR_StatusCoPayment"/>
                  <code value="1"/>
               </valueCoding>
            </extension>
            <status value="active"/>
            <intent value="order"/>
            <medicationReference>
               <reference value="Medication/ddc36347-ec0e-4c74-9320-af6410313905"/>
            </medicationReference>
            <subject>
               <reference value="Patient/548a50d9-ccba-49c8-bb93-f01e7e382180"/>
            </subject>
            <authoredOn value="2024-02-08"/>
            <requester>
               <reference value="Practitioner/c012b5ce-943d-4ffd-ba46-aad411a3318b"/>
            </requester>
            <insurance>
               <reference value="Coverage/bf7efc39-ede1-4b41-ada7-1ace947958f6"/>
            </insurance>
            <dispenseRequest>
               <quantity>
                  <value value="1"/>
                  <system value="http://unitsofmeasure.org"/>
                  <code value="{Package}"/>
               </quantity>
            </dispenseRequest>
            <substitution>
               <allowedBoolean value="false"/>
            </substitution>
         </MedicationRequest>
      </resource>
   </entry>
</Bundle>