<Bundle xmlns="http://hl7.org/fhir">
    <id value="0f439999-e625-fd7c-1cfd-6aac7f2ee438"/>
    <meta>
        <lastUpdated value="2021-11-12T10:40:52Z"/>
        <profile value="https://fhir.kbv.de/StructureDefinition/KBV_PR_ERP_Bundle|1.0.2"/>
    </meta>
    <identifier>
        <system value="https://gematik.de/fhir/NamingSystem/PrescriptionID"/>
        <value value="160.000.074.295.356.07"/>
    </identifier>
    <type value="document"/>
    <timestamp value="2022-01-06T10:40:52Z"/>
    <entry>
        <fullUrl value="https://localhost:8443/redclient/fhir/Composition/3f36b427-dbfb-5db1-a8bc-affae2cda043"/>
        <resource>
            <Composition>
                <id value="3f36b427-dbfb-5db1-a8bc-affae2cda043"/>
                <meta>
                    <profile value="https://fhir.kbv.de/StructureDefinition/KBV_PR_ERP_Composition|1.0.2"/>
                </meta>
                <extension url="https://fhir.kbv.de/StructureDefinition/KBV_EX_FOR_Legal_basis">
                    <valueCoding>
                        <system value="https://fhir.kbv.de/CodeSystem/KBV_CS_SFHIR_KBV_STATUSKENNZEICHEN"/>
                        <code value="00"/>
                    </valueCoding>
                </extension>
                <status value="final"/>
                <type>
                    <coding>
                        <system value="https://fhir.kbv.de/CodeSystem/KBV_CS_SFHIR_KBV_FORMULAR_ART"/>
                        <code value="e16A"/>
                    </coding>
                </type>
                <subject>
                    <reference value="Patient/U6ewFfwC73bjwURxwq0h5Falsf99ORK5"/>
                </subject>
                <date value="2022-01-06"/>
                <author>
                    <reference value="Practitioner/yaclc7MhniG9ZxqkVHyeuaOhIjrEA9Pk"/>
                    <type value="Practitioner"/>
                </author>
                <author>
                    <type value="Device"/>
                    <identifier>
                        <system value="https://fhir.kbv.de/NamingSystem/KBV_NS_FOR_Pruefnummer"/>
                        <value value="Y/400/1904/36/456"/>
                    </identifier>
                </author>
                <title value="elektronische Arzneimittelverordnung"/>
                <custodian>
                    <reference value="Organization/yYJ1iAwyEocr1h2HJM0HWzGeWJMcjJrM"/>
                </custodian>
                <section>
                    <code>
                        <coding>
                            <system value="https://fhir.kbv.de/CodeSystem/KBV_CS_ERP_Section_Type"/>
                            <code value="Prescription"/>
                        </coding>
                    </code>
                    <entry>
                        <reference value="MedicationRequest/RC1v9h9J7dKE0AIw2QRfwtx7bFYYIbRt"/>
                    </entry>
                </section>
                <section>
                    <code>
                        <coding>
                            <system value="https://fhir.kbv.de/CodeSystem/KBV_CS_ERP_Section_Type"/>
                            <code value="Coverage"/>
                        </coding>
                    </code>
                    <entry>
                        <reference value="Coverage/N7NruxH3Qu0LwkeHr7AOgY9zSaZR4S9u"/>
                    </entry>
                </section>
            </Composition>
        </resource>
    </entry>
    <entry>
        <fullUrl value="https://localhost:8443/redclient/fhir/MedicationRequest/RC1v9h9J7dKE0AIw2QRfwtx7bFYYIbRt"/>
        <resource>
            <MedicationRequest>
                <id value="RC1v9h9J7dKE0AIw2QRfwtx7bFYYIbRt"/>
                <meta>
                    <profile value="https://fhir.kbv.de/StructureDefinition/KBV_PR_ERP_Prescription|1.0.2"/>
                </meta>
                <extension url="https://fhir.kbv.de/StructureDefinition/KBV_EX_ERP_StatusCoPayment">
                    <valueCoding>
                        <system value="https://fhir.kbv.de/CodeSystem/KBV_CS_ERP_StatusCoPayment"/>
                        <code value="1"/>
                    </valueCoding>
                </extension>
                <extension url="https://fhir.kbv.de/StructureDefinition/KBV_EX_ERP_EmergencyServicesFee">
                    <valueBoolean value="false"/>
                </extension>
                <extension url="https://fhir.kbv.de/StructureDefinition/KBV_EX_ERP_BVG">
                    <valueBoolean value="false"/>
                </extension>
                <extension url="https://fhir.kbv.de/StructureDefinition/KBV_EX_ERP_Multiple_Prescription">
                    <extension url="Kennzeichen">
                        <valueBoolean value="false"/>
                    </extension>
                </extension>
                <status value="active"/>
                <intent value="order"/>
                <medicationReference>
                    <reference value="Medication/sByZMl2Xyg6QywOkLtYyiGDzm9wLKYRE"/>
                </medicationReference>
                <subject>
                    <reference value="Patient/U6ewFfwC73bjwURxwq0h5Falsf99ORK5"/>
                </subject>
                <authoredOn value="2022-01-06"/>
                <requester>
                    <reference value="Practitioner/yaclc7MhniG9ZxqkVHyeuaOhIjrEA9Pk"/>
                </requester>
                <insurance>
                    <reference value="Coverage/N7NruxH3Qu0LwkeHr7AOgY9zSaZR4S9u"/>
                </insurance>
                <note>
                    <text value="Wenn nicht lieferbar, bitte Rücksprache"/>
                </note>
                <dosageInstruction>
                    <extension url="https://fhir.kbv.de/StructureDefinition/KBV_EX_ERP_DosageFlag">
                        <valueBoolean value="true"/>
                    </extension>
                    <text value="Eine schöne grüne Spritze"/>
                </dosageInstruction>
                <dispenseRequest>
                    <quantity>
                        <value value="1"/>
                        <system value="http://unitsofmeasure.org"/>
                        <code value="{Package}"/>
                    </quantity>
                </dispenseRequest>
                <substitution>
                    <allowedBoolean value="true"/>
                </substitution>
            </MedicationRequest>
        </resource>
    </entry>
    <entry>
        <fullUrl value="https://localhost:8443/redclient/fhir/Medication/sByZMl2Xyg6QywOkLtYyiGDzm9wLKYRE"/>
        <resource>
            <Medication>
                <id value="sByZMl2Xyg6QywOkLtYyiGDzm9wLKYRE"/>
                <meta>
                    <profile value="https://fhir.kbv.de/StructureDefinition/KBV_PR_ERP_Medication_PZN|1.0.2"/>
                </meta>
                <extension url="https://fhir.kbv.de/StructureDefinition/KBV_EX_ERP_Medication_Category">
                    <valueCoding>
                        <system value="https://fhir.kbv.de/CodeSystem/KBV_CS_ERP_Medication_Category"/>
                        <code value="00"/>
                    </valueCoding>
                </extension>
                <extension url="https://fhir.kbv.de/StructureDefinition/KBV_EX_ERP_Medication_Vaccine">
                    <valueBoolean value="true"/>
                </extension>
                <extension url="http://fhir.de/StructureDefinition/normgroesse">
                    <valueCode value="N1"/>
                </extension>
                <code>
                    <coding>
                        <system value="http://fhir.de/CodeSystem/ifa/pzn"/>
                        <code value="06683827"/>
                    </coding>
                    <text value="TWINRIX ERW IMPFDOSIS CC ISU 1 St N1"/>
                </code>
                <form>
                    <coding>
                        <system value="https://fhir.kbv.de/CodeSystem/KBV_CS_SFHIR_KBV_DARREICHUNGSFORM"/>
                        <code value="ISU"/>
                    </coding>
                </form>
                <amount>
                    <numerator>
                        <value value="1"/>
                        <unit value="St"/>
                    </numerator>
                    <denominator>
                        <value value="1"/>
                    </denominator>
                </amount>
            </Medication>
        </resource>
    </entry>
    <entry>
        <fullUrl value="https://localhost:8443/redclient/fhir/Patient/U6ewFfwC73bjwURxwq0h5Falsf99ORK5"/>
        <resource>
            <Patient>
                <id value="U6ewFfwC73bjwURxwq0h5Falsf99ORK5"/>
                <meta>
                    <profile value="https://fhir.kbv.de/StructureDefinition/KBV_PR_FOR_Patient|1.0.3"/>
                </meta>
                <identifier>
                    <type>
                        <coding>
                            <system value="http://fhir.de/CodeSystem/identifier-type-de-basis"/>
                            <code value="GKV"/>
                        </coding>
                    </type>
                    <system value="http://fhir.de/NamingSystem/gkv/kvid-10"/>
                    <value value="D545058554"/>
                </identifier>
                <name>
                    <use value="official"/>
                    <family value="Glockner">
                        <extension url="http://hl7.org/fhir/StructureDefinition/humanname-own-name">
                            <valueString value="Glockner"/>
                        </extension>
                    </family>
                    <given value="Kevin"/>
                </name>
                <birthDate value="2003-06-25"/>
                <address>
                    <type value="both"/>
                    <line value="Billwerder Neuer Deich 36">
                        <extension url="http://hl7.org/fhir/StructureDefinition/iso21090-ADXP-streetName">
                            <valueString value="Billwerder Neuer Deich"/>
                        </extension>
                        <extension url="http://hl7.org/fhir/StructureDefinition/iso21090-ADXP-houseNumber">
                            <valueString value="36"/>
                        </extension>
                    </line>
                    <city value="Hof"/>
                    <postalCode value="95005"/>
                    <country value="D"/>
                </address>
            </Patient>
        </resource>
    </entry>
    <entry>
        <fullUrl value="https://localhost:8443/redclient/fhir/Practitioner/yaclc7MhniG9ZxqkVHyeuaOhIjrEA9Pk"/>
        <resource>
            <Practitioner>
                <id value="yaclc7MhniG9ZxqkVHyeuaOhIjrEA9Pk"/>
                <meta>
                    <profile value="https://fhir.kbv.de/StructureDefinition/KBV_PR_FOR_Practitioner|1.0.3"/>
                </meta>
                <identifier>
                    <type>
                        <coding>
                            <system value="http://terminology.hl7.org/CodeSystem/v2-0203"/>
                            <code value="LANR"/>
                        </coding>
                    </type>
                    <system value="https://fhir.kbv.de/NamingSystem/KBV_NS_Base_ANR"/>
                    <value value="776299002"/>
                </identifier>
                <name>
                    <use value="official"/>
                    <family value="More">
                        <extension url="http://hl7.org/fhir/StructureDefinition/humanname-own-name">
                            <valueString value="More"/>
                        </extension>
                    </family>
                    <given value="Annie"/>
                    <prefix value="Dr. med.">
                        <extension url="http://hl7.org/fhir/StructureDefinition/iso21090-EN-qualifier">
                            <valueCode value="AC"/>
                        </extension>
                    </prefix>
                </name>
                <qualification>
                    <code>
                        <coding>
                            <system value="https://fhir.kbv.de/CodeSystem/KBV_CS_FOR_Qualification_Type"/>
                            <code value="00"/>
                        </coding>
                    </code>
                </qualification>
                <qualification>
                    <code>
                        <text value="Arzt/Praktischer Arzt"/>
                    </code>
                </qualification>
            </Practitioner>
        </resource>
    </entry>
    <entry>
        <fullUrl value="https://localhost:8443/redclient/fhir/Organization/yYJ1iAwyEocr1h2HJM0HWzGeWJMcjJrM"/>
        <resource>
            <Organization>
                <id value="yYJ1iAwyEocr1h2HJM0HWzGeWJMcjJrM"/>
                <meta>
                    <profile value="https://fhir.kbv.de/StructureDefinition/KBV_PR_FOR_Organization|1.0.3"/>
                </meta>
                <identifier>
                    <type>
                        <coding>
                            <system value="http://terminology.hl7.org/CodeSystem/v2-0203"/>
                            <code value="BSNR"/>
                        </coding>
                    </type>
                    <system value="https://fhir.kbv.de/NamingSystem/KBV_NS_Base_BSNR"/>
                    <value value="241234601"/>
                </identifier>
                <name value="Praxis Annie More"/>
                <telecom>
                    <system value="phone"/>
                    <value value="0211 / 1111111"/>
                </telecom>
                <telecom>
                    <system value="fax"/>
                    <value value="0211 / 2222222"/>
                </telecom>
                <telecom>
                    <system value="email"/>
                    <value value="AM@Testpraxis.de"/>
                </telecom>
                <address>
                    <type value="both"/>
                    <line value="Musterstr. 1">
                        <extension url="http://hl7.org/fhir/StructureDefinition/iso21090-ADXP-streetName">
                            <valueString value="Musterstr."/>
                        </extension>
                        <extension url="http://hl7.org/fhir/StructureDefinition/iso21090-ADXP-houseNumber">
                            <valueString value="1"/>
                        </extension>
                    </line>
                    <city value="Düsseldorf"/>
                    <postalCode value="40474"/>
                    <country value="D"/>
                </address>
            </Organization>
        </resource>
    </entry>
    <entry>
        <fullUrl value="https://localhost:8443/redclient/fhir/Coverage/N7NruxH3Qu0LwkeHr7AOgY9zSaZR4S9u"/>
        <resource>
            <Coverage>
                <id value="N7NruxH3Qu0LwkeHr7AOgY9zSaZR4S9u"/>
                <meta>
                    <profile value="https://fhir.kbv.de/StructureDefinition/KBV_PR_FOR_Coverage|1.0.3"/>
                </meta>
                <extension url="http://fhir.de/StructureDefinition/gkv/besondere-personengruppe">
                    <valueCoding>
                        <system value="https://fhir.kbv.de/CodeSystem/KBV_CS_SFHIR_KBV_PERSONENGRUPPE"/>
                        <code value="00"/>
                    </valueCoding>
                </extension>
                <extension url="http://fhir.de/StructureDefinition/gkv/dmp-kennzeichen">
                    <valueCoding>
                        <system value="https://fhir.kbv.de/CodeSystem/KBV_CS_SFHIR_KBV_DMP"/>
                        <code value="00"/>
                    </valueCoding>
                </extension>
                <extension url="http://fhir.de/StructureDefinition/gkv/wop">
                    <valueCoding>
                        <system value="https://fhir.kbv.de/CodeSystem/KBV_CS_SFHIR_ITA_WOP"/>
                        <code value="38"/>
                    </valueCoding>
                </extension>
                <extension url="http://fhir.de/StructureDefinition/gkv/versichertenart">
                    <valueCoding>
                        <system value="https://fhir.kbv.de/CodeSystem/KBV_CS_SFHIR_KBV_VERSICHERTENSTATUS"/>
                        <code value="1"/>
                    </valueCoding>
                </extension>
                <status value="active"/>
                <type>
                    <coding>
                        <system value="http://fhir.de/CodeSystem/versicherungsart-de-basis"/>
                        <code value="GKV"/>
                    </coding>
                </type>
                <beneficiary>
                    <reference value="Patient/U6ewFfwC73bjwURxwq0h5Falsf99ORK5"/>
                </beneficiary>
                <payor>
                    <identifier>
                        <system value="http://fhir.de/NamingSystem/arge-ik/iknr"/>
                        <value value="108310400"/>
                    </identifier>
                    <display value="AOK Bayern"/>
                </payor>
            </Coverage>
        </resource>
    </entry>
</Bundle>

