<Bundle xmlns="http://hl7.org/fhir">
	<id value="fe61f25d-7e1c-40f8-9c0b-383804891406"/>
	<meta>
		<lastUpdated value="2021-11-12T10:19:06+01:00"/>
		<profile value="https://fhir.kbv.de/StructureDefinition/KBV_PR_ERP_Bundle|1.0.2"/>
	</meta>
	<identifier>
		<system value="https://gematik.de/fhir/NamingSystem/PrescriptionID"/>
		<value value="160.000.074.295.225.12"/>
	</identifier>
	<type value="document"/>
	<timestamp value="2022-01-06T10:19:06+01:00"/>
	<entry>
		<fullUrl value="http://pvs.praxis.local/fhir/Composition/f58c1014-7902-49fb-bea8-7e72dab683e3"/>
		<resource>
			<Composition>
				<id value="f58c1014-7902-49fb-bea8-7e72dab683e3"/>
				<meta>
					<profile value="https://fhir.kbv.de/StructureDefinition/KBV_PR_ERP_Composition|1.0.2"/>
				</meta>
				<extension url="https://fhir.kbv.de/StructureDefinition/KBV_EX_FOR_Legal_basis">
					<valueCoding>
						<system value="https://fhir.kbv.de/CodeSystem/KBV_CS_SFHIR_KBV_STATUSKENNZEICHEN"/>
						<code value="00"/>
					</valueCoding>
				</extension>
				<status value="final"/>
				<type>
					<coding>
						<system value="https://fhir.kbv.de/CodeSystem/KBV_CS_SFHIR_KBV_FORMULAR_ART"/>
						<code value="e16A"/>
					</coding>
				</type>
				<subject>
					<reference value="Patient/3513188b-4d49-481b-9b15-2a43dbbf1637"/>
				</subject>
				<date value="2022-01-06"/>
				<author>
					<reference value="Practitioner/a9d8b7f5-76a7-4fcd-8700-466645335f0b"/>
					<type value="Practitioner"/>
				</author>
				<author>
					<type value="Device"/>
					<identifier>
						<system value="https://fhir.kbv.de/NamingSystem/KBV_NS_FOR_Pruefnummer"/>
						<value value="Y/410/2110/36/136"/>
					</identifier>
				</author>
				<title value="elektronische Arzneimittelverordnung"/>
				<custodian>
					<reference value="Organization/2e50a8f2-06ed-4d70-b6ba-6babd5b95e1f"/>
				</custodian>
				<section>
					<code>
						<coding>
							<system value="https://fhir.kbv.de/CodeSystem/KBV_CS_ERP_Section_Type"/>
							<code value="Coverage"/>
						</coding>
					</code>
					<entry>
						<reference value="Coverage/e27bdc64-06e1-4d89-8257-a07e0c17b228"/>
					</entry>
				</section>
				<section>
					<code>
						<coding>
							<system value="https://fhir.kbv.de/CodeSystem/KBV_CS_ERP_Section_Type"/>
							<code value="Prescription"/>
						</coding>
					</code>
					<entry>
						<reference value="MedicationRequest/1066447e-5917-43c6-80cd-1901ca07c982"/>
					</entry>
				</section>
			</Composition>
		</resource>
	</entry>
	<entry>
		<fullUrl value="http://pvs.praxis.local/fhir/Patient/3513188b-4d49-481b-9b15-2a43dbbf1637"/>
		<resource>
			<Patient>
				<id value="3513188b-4d49-481b-9b15-2a43dbbf1637"/>
				<meta>
					<profile value="https://fhir.kbv.de/StructureDefinition/KBV_PR_FOR_Patient|1.0.3"/>
				</meta>
				<identifier>
					<type>
						<coding>
							<system value="http://fhir.de/CodeSystem/identifier-type-de-basis"/>
							<code value="GKV"/>
						</coding>
					</type>
					<system value="http://fhir.de/NamingSystem/gkv/kvid-10"/>
					<value value="S040464113"/>
				</identifier>
				<name>
					<use value="official"/>
					<family value="Graf Freiherr von Schaumberg">
						<extension url="http://hl7.org/fhir/StructureDefinition/humanname-own-name">
							<valueString value="Schaumberg"/>
						</extension>
						<extension url="http://fhir.de/StructureDefinition/humanname-namenszusatz">
							<valueString value="Graf Freiherr"/>
						</extension>
						<extension url="http://hl7.org/fhir/StructureDefinition/humanname-own-prefix">
							<valueString value="von"/>
						</extension>
					</family>
					<given value="Karl-Friederich"/>
					<prefix value="Prof. Dr.">
						<extension url="http://hl7.org/fhir/StructureDefinition/iso21090-EN-qualifier">
							<valueCode value="AC"/>
						</extension>
					</prefix>
				</name>
				<birthDate value="1964-04-04"/>
				<address>
					<type value="both"/>
					<line value="Siegburger Str. 155">
						<extension url="http://hl7.org/fhir/StructureDefinition/iso21090-ADXP-houseNumber">
							<valueString value="155"/>
						</extension>
						<extension url="http://hl7.org/fhir/StructureDefinition/iso21090-ADXP-streetName">
							<valueString value="Siegburger Str."/>
						</extension>
					</line>
					<city value="Köln"/>
					<postalCode value="51105"/>
					<country value="D"/>
				</address>
			</Patient>
		</resource>
	</entry>
	<entry>
		<fullUrl value="http://pvs.praxis.local/fhir/Coverage/e27bdc64-06e1-4d89-8257-a07e0c17b228"/>
		<resource>
			<Coverage>
				<id value="e27bdc64-06e1-4d89-8257-a07e0c17b228"/>
				<meta>
					<profile value="https://fhir.kbv.de/StructureDefinition/KBV_PR_FOR_Coverage|1.0.3"/>
				</meta>
				<extension url="http://fhir.de/StructureDefinition/gkv/besondere-personengruppe">
					<valueCoding>
						<system value="https://fhir.kbv.de/CodeSystem/KBV_CS_SFHIR_KBV_PERSONENGRUPPE"/>
						<code value="00"/>
					</valueCoding>
				</extension>
				<extension url="http://fhir.de/StructureDefinition/gkv/dmp-kennzeichen">
					<valueCoding>
						<system value="https://fhir.kbv.de/CodeSystem/KBV_CS_SFHIR_KBV_DMP"/>
						<code value="00"/>
					</valueCoding>
				</extension>
				<extension url="http://fhir.de/StructureDefinition/gkv/wop">
					<valueCoding>
						<system value="https://fhir.kbv.de/CodeSystem/KBV_CS_SFHIR_ITA_WOP"/>
						<code value="38"/>
					</valueCoding>
				</extension>
				<extension url="http://fhir.de/StructureDefinition/gkv/versichertenart">
					<valueCoding>
						<system value="https://fhir.kbv.de/CodeSystem/KBV_CS_SFHIR_KBV_VERSICHERTENSTATUS"/>
						<code value="1"/>
					</valueCoding>
				</extension>
				<status value="active"/>
				<type>
					<coding>
						<system value="http://fhir.de/CodeSystem/versicherungsart-de-basis"/>
						<code value="GKV"/>
					</coding>
				</type>
				<beneficiary>
					<reference value="Patient/3513188b-4d49-481b-9b15-2a43dbbf1637"/>
				</beneficiary>
				<payor>
					<identifier>
						<system value="http://fhir.de/NamingSystem/arge-ik/iknr"/>
						<value value="101097008"/>
					</identifier>
					<display value="AOK Sachsen-Anhalt"/>
				</payor>
			</Coverage>
		</resource>
	</entry>
	<entry>
		<fullUrl value="http://pvs.praxis.local/fhir/Practitioner/a9d8b7f5-76a7-4fcd-8700-466645335f0b"/>
		<resource>
			<Practitioner>
				<id value="a9d8b7f5-76a7-4fcd-8700-466645335f0b"/>
				<meta>
					<profile value="https://fhir.kbv.de/StructureDefinition/KBV_PR_FOR_Practitioner|1.0.3"/>
				</meta>
				<identifier>
					<type>
						<coding>
							<system value="http://terminology.hl7.org/CodeSystem/v2-0203"/>
							<code value="LANR"/>
						</coding>
					</type>
					<system value="https://fhir.kbv.de/NamingSystem/KBV_NS_Base_ANR"/>
					<value value="838382201"/>
				</identifier>
				<name>
					<use value="official"/>
					<family value="More">
						<extension url="http://hl7.org/fhir/StructureDefinition/humanname-own-name">
							<valueString value="More"/>
						</extension>
					</family>
					<given value="Annie"/>
					<prefix value="Dr.">
						<extension url="http://hl7.org/fhir/StructureDefinition/iso21090-EN-qualifier">
							<valueCode value="AC"/>
						</extension>
					</prefix>
				</name>
				<qualification>
					<code>
						<coding>
							<system value="https://fhir.kbv.de/CodeSystem/KBV_CS_FOR_Qualification_Type"/>
							<code value="00"/>
						</coding>
					</code>
				</qualification>
				<qualification>
					<code>
						<text value="Fachärztin für Allgemeinmedizin"/>
					</code>
				</qualification>
			</Practitioner>
		</resource>
	</entry>
	<entry>
		<fullUrl value="http://pvs.praxis.local/fhir/Organization/2e50a8f2-06ed-4d70-b6ba-6babd5b95e1f"/>
		<resource>
			<Organization>
				<id value="2e50a8f2-06ed-4d70-b6ba-6babd5b95e1f"/>
				<meta>
					<profile value="https://fhir.kbv.de/StructureDefinition/KBV_PR_FOR_Organization|1.0.3"/>
				</meta>
				<identifier>
					<type>
						<coding>
							<system value="http://terminology.hl7.org/CodeSystem/v2-0203"/>
							<code value="BSNR"/>
						</coding>
					</type>
					<system value="https://fhir.kbv.de/NamingSystem/KBV_NS_Base_BSNR"/>
					<value value="241234601"/>
				</identifier>
				<name value="Praxis Annie More"/>
				<telecom>
					<system value="phone"/>
					<value value="0211 / 1111111"/>
				</telecom>
				<telecom>
					<system value="email"/>
					<value value="AM@Testpraxis.de"/>
				</telecom>
				<telecom>
					<system value="fax"/>
					<value value="0211 / 2222222"/>
				</telecom>
				<address>
					<type value="both"/>
					<line value="Musterstr. 1">
						<extension url="http://hl7.org/fhir/StructureDefinition/iso21090-ADXP-houseNumber">
							<valueString value="1"/>
						</extension>
						<extension url="http://hl7.org/fhir/StructureDefinition/iso21090-ADXP-streetName">
							<valueString value="Musterstr."/>
						</extension>
					</line>
					<city value="Düsseldorf"/>
					<postalCode value="40474"/>
					<country value="D"/>
				</address>
			</Organization>
		</resource>
	</entry>
	<entry>
		<fullUrl value="http://pvs.praxis.local/fhir/Medication/548931ae-bab8-429a-8265-6934e49a29db"/>
		<resource>
			<Medication>
				<id value="548931ae-bab8-429a-8265-6934e49a29db"/>
				<meta>
					<profile value="https://fhir.kbv.de/StructureDefinition/KBV_PR_ERP_Medication_PZN|1.0.2"/>
				</meta>
				<extension url="https://fhir.kbv.de/StructureDefinition/KBV_EX_ERP_Medication_Category">
					<valueCoding>
						<system value="https://fhir.kbv.de/CodeSystem/KBV_CS_ERP_Medication_Category"/>
						<code value="00"/>
					</valueCoding>
				</extension>
				<extension url="https://fhir.kbv.de/StructureDefinition/KBV_EX_ERP_Medication_Vaccine">
					<valueBoolean value="false"/>
				</extension>
				<extension url="http://fhir.de/StructureDefinition/normgroesse">
					<valueCode value="N2"/>
				</extension>
				<code>
					<coding>
						<system value="http://fhir.de/CodeSystem/ifa/pzn"/>
						<code value="11126514"/>
					</coding>
					<text value="ENTRESTO 49 MG/51 MG FILMTABLETTEN"/>
				</code>
				<form>
					<coding>
						<system value="https://fhir.kbv.de/CodeSystem/KBV_CS_SFHIR_KBV_DARREICHUNGSFORM"/>
						<code value="FTA"/>
					</coding>
				</form>
				<amount>
					<numerator>
						<value value="56"/>
						<unit value="ST"/>
					</numerator>
					<denominator>
						<value value="1"/>
					</denominator>
				</amount>
			</Medication>
		</resource>
	</entry>
	<entry>
		<fullUrl value="http://pvs.praxis.local/fhir/MedicationRequest/1066447e-5917-43c6-80cd-1901ca07c982"/>
		<resource>
			<MedicationRequest>
				<id value="1066447e-5917-43c6-80cd-1901ca07c982"/>
				<meta>
					<profile value="https://fhir.kbv.de/StructureDefinition/KBV_PR_ERP_Prescription|1.0.2"/>
				</meta>
				<extension url="https://fhir.kbv.de/StructureDefinition/KBV_EX_ERP_StatusCoPayment">
					<valueCoding>
						<system value="https://fhir.kbv.de/CodeSystem/KBV_CS_ERP_StatusCoPayment"/>
						<code value="0"/>
					</valueCoding>
				</extension>
				<extension url="https://fhir.kbv.de/StructureDefinition/KBV_EX_ERP_EmergencyServicesFee">
					<valueBoolean value="false"/>
				</extension>
				<extension url="https://fhir.kbv.de/StructureDefinition/KBV_EX_ERP_BVG">
					<valueBoolean value="false"/>
				</extension>
				<extension url="https://fhir.kbv.de/StructureDefinition/KBV_EX_ERP_Multiple_Prescription">
					<extension url="Kennzeichen">
						<valueBoolean value="false"/>
					</extension>
				</extension>
				<status value="active"/>
				<intent value="order"/>
				<medicationReference>
					<reference value="Medication/548931ae-bab8-429a-8265-6934e49a29db"/>
				</medicationReference>
				<subject>
					<reference value="Patient/3513188b-4d49-481b-9b15-2a43dbbf1637"/>
				</subject>
				<authoredOn value="2022-01-06"/>
				<requester>
					<reference value="Practitioner/a9d8b7f5-76a7-4fcd-8700-466645335f0b"/>
				</requester>
				<insurance>
					<reference value="Coverage/e27bdc64-06e1-4d89-8257-a07e0c17b228"/>
				</insurance>
				<note>
					<text value="bitte Dosierung deutlich mitgeben"/>
				</note>
				<dosageInstruction>
					<extension url="https://fhir.kbv.de/StructureDefinition/KBV_EX_ERP_DosageFlag">
						<valueBoolean value="true"/>
					</extension>
					<text value="0-0-1-0"/>
				</dosageInstruction>
				<dispenseRequest>
					<quantity>
						<value value="1"/>
						<system value="http://unitsofmeasure.org"/>
						<code value="{Package}"/>
					</quantity>
				</dispenseRequest>
				<substitution>
					<allowedBoolean value="true"/>
				</substitution>
			</MedicationRequest>
		</resource>
	</entry>
</Bundle>
