<Bundle xmlns="http://hl7.org/fhir">
	<id value="6ee35173-0534-405a-8a64-44e7a4bdc302"/>
	<meta>
		<lastUpdated value="2021-11-12T14:12:26.2978199+01:00"/>
		<profile value="https://fhir.kbv.de/StructureDefinition/KBV_PR_ERP_Bundle|1.0.2"/>
	</meta>
	<identifier>
		<system value="https://gematik.de/fhir/NamingSystem/PrescriptionID"/>
		<value value="160.000.074.297.319.35"/>
	</identifier>
	<type value="document"/>
	<timestamp value="2022-01-06T14:12:26.2978199+01:00"/>
	<entry>
		<fullUrl value="http://pvs.praxis.local/fhir/c105858d-2bd9-4a9a-bc00-7d4bad005fb6"/>
		<resource>
			<Composition>
				<id value="c105858d-2bd9-4a9a-bc00-7d4bad005fb6"/>
				<meta>
					<profile value="https://fhir.kbv.de/StructureDefinition/KBV_PR_ERP_Composition|1.0.2"/>
				</meta>
				<extension url="https://fhir.kbv.de/StructureDefinition/KBV_EX_FOR_Legal_basis">
					<valueCoding>
						<system value="https://fhir.kbv.de/CodeSystem/KBV_CS_SFHIR_KBV_STATUSKENNZEICHEN"/>
						<code value="10"/>
					</valueCoding>
				</extension>
				<status value="final"/>
				<type>
					<coding>
						<system value="https://fhir.kbv.de/CodeSystem/KBV_CS_SFHIR_KBV_FORMULAR_ART"/>
						<code value="e16A"/>
					</coding>
				</type>
				<subject>
					<reference value="Patient/11bcd278-cd58-40d3-8d51-fcae5f4c5a57"/>
				</subject>
				<date value="2022-01-06T14:12:24.8838025+01:00"/>
				<author>
					<reference value="Practitioner/6c44cbba-e5ca-46b2-a52b-15fd7501a87f"/>
					<type value="Practitioner"/>
				</author>
				<author>
					<type value="Device"/>
					<identifier>
						<system value="https://fhir.kbv.de/NamingSystem/KBV_NS_FOR_Pruefnummer"/>
						<value value="Y/400/1910/36/462"/>
					</identifier>
				</author>
				<title value="elektronische Arzneimittelverordnung"/>
				<custodian>
					<reference value="Organization/6bf9407b-4cdc-43e3-a75b-8175709b02dd"/>
				</custodian>
				<section>
					<code>
						<coding>
							<system value="https://fhir.kbv.de/CodeSystem/KBV_CS_ERP_Section_Type"/>
							<code value="Prescription"/>
						</coding>
					</code>
					<entry>
						<reference value="MedicationRequest/fe516a2e-f272-48f0-909b-0f121435cb0a"/>
					</entry>
				</section>
				<section>
					<code>
						<coding>
							<system value="https://fhir.kbv.de/CodeSystem/KBV_CS_ERP_Section_Type"/>
							<code value="Coverage"/>
						</coding>
					</code>
					<entry>
						<reference value="Coverage/35468344-9565-44f1-887b-9af4277854ad"/>
					</entry>
				</section>
			</Composition>
		</resource>
	</entry>
	<entry>
		<fullUrl value="http://pvs.praxis.local/fhir/11bcd278-cd58-40d3-8d51-fcae5f4c5a57"/>
		<resource>
			<Patient>
				<id value="11bcd278-cd58-40d3-8d51-fcae5f4c5a57"/>
				<meta>
					<profile value="https://fhir.kbv.de/StructureDefinition/KBV_PR_FOR_Patient|1.0.3"/>
				</meta>
				<identifier>
					<use value="official"/>
					<type>
						<coding>
							<system value="http://fhir.de/CodeSystem/identifier-type-de-basis"/>
							<code value="GKV"/>
						</coding>
					</type>
					<system value="http://fhir.de/NamingSystem/gkv/kvid-10"/>
					<value value="X110431602"/>
				</identifier>
				<name>
					<use value="official"/>
					<family value="Freiherr Ørsted">
						<extension url="http://fhir.de/StructureDefinition/humanname-namenszusatz">
							<valueString value="Freiherr"/>
						</extension>
						<extension url="http://hl7.org/fhir/StructureDefinition/humanname-own-name">
							<valueString value="Ørsted"/>
						</extension>
					</family>
					<given value="Xaver Fedilio"/>
				</name>
				<birthDate value="2013-07-02"/>
				<address>
					<type value="both"/>
					<line value="Langensalzaer Str. 25">
						<extension url="http://hl7.org/fhir/StructureDefinition/iso21090-ADXP-streetName">
							<valueString value="Langensalzaer Str."/>
						</extension>
						<extension url="http://hl7.org/fhir/StructureDefinition/iso21090-ADXP-houseNumber">
							<valueString value="25"/>
						</extension>
					</line>
					<city value="Mühlhausen"/>
					<postalCode value="99974"/>
					<country value="D"/>
				</address>
			</Patient>
		</resource>
	</entry>
	<entry>
		<fullUrl value="http://pvs.praxis.local/fhir/6c44cbba-e5ca-46b2-a52b-15fd7501a87f"/>
		<resource>
			<Practitioner>
				<id value="6c44cbba-e5ca-46b2-a52b-15fd7501a87f"/>
				<meta>
					<profile value="https://fhir.kbv.de/StructureDefinition/KBV_PR_FOR_Practitioner|1.0.3"/>
				</meta>
				<identifier>
					<use value="official"/>
					<type>
						<coding>
							<system value="http://terminology.hl7.org/CodeSystem/v2-0203"/>
							<code value="LANR"/>
						</coding>
					</type>
					<system value="https://fhir.kbv.de/NamingSystem/KBV_NS_Base_ANR"/>
					<value value="770235434"/>
				</identifier>
				<name>
					<use value="official"/>
					<family value="Thiele">
						<extension url="http://hl7.org/fhir/StructureDefinition/humanname-own-name">
							<valueString value="Thiele"/>
						</extension>
					</family>
					<given value="Wilhelm"/>
					<prefix value="Dr. med.">
						<extension url="http://hl7.org/fhir/StructureDefinition/iso21090-EN-qualifier">
							<valueCode value="AC"/>
						</extension>
					</prefix>
				</name>
				<qualification>
					<code>
						<coding>
							<system value="https://fhir.kbv.de/CodeSystem/KBV_CS_FOR_Qualification_Type"/>
							<code value="00"/>
						</coding>
					</code>
				</qualification>
				<qualification>
					<code>
						<text value="Allgemeinmedizin"/>
					</code>
				</qualification>
			</Practitioner>
		</resource>
	</entry>
	<entry>
		<fullUrl value="http://pvs.praxis.local/fhir/6bf9407b-4cdc-43e3-a75b-8175709b02dd"/>
		<resource>
			<Organization>
				<id value="6bf9407b-4cdc-43e3-a75b-8175709b02dd"/>
				<meta>
					<profile value="https://fhir.kbv.de/StructureDefinition/KBV_PR_FOR_Organization|1.0.3"/>
				</meta>
				<identifier>
					<use value="official"/>
					<type>
						<coding>
							<system value="http://terminology.hl7.org/CodeSystem/v2-0203"/>
							<code value="BSNR"/>
						</coding>
					</type>
					<system value="https://fhir.kbv.de/NamingSystem/KBV_NS_Base_BSNR"/>
					<value value="666666666"/>
				</identifier>
				<name value="KIM-x2-HBS"/>
				<telecom>
					<system value="phone"/>
					<value value="0123456789-11111"/>
				</telecom>
				<address>
					<type value="both"/>
					<line value="Im Kappelhof 1">
						<extension url="http://hl7.org/fhir/StructureDefinition/iso21090-ADXP-streetName">
							<valueString value="Im Kappelhof"/>
						</extension>
						<extension url="http://hl7.org/fhir/StructureDefinition/iso21090-ADXP-houseNumber">
							<valueString value="1"/>
						</extension>
					</line>
					<city value="Eltville"/>
					<postalCode value="65331"/>
					<country value="D"/>
				</address>
			</Organization>
		</resource>
	</entry>
	<entry>
		<fullUrl value="http://pvs.praxis.local/fhir/cf31a4c2-2054-48a7-aad4-afbc4c0dc905"/>
		<resource>
			<Medication>
				<id value="cf31a4c2-2054-48a7-aad4-afbc4c0dc905"/>
				<meta>
					<profile value="https://fhir.kbv.de/StructureDefinition/KBV_PR_ERP_Medication_PZN|1.0.2"/>
				</meta>
				<extension url="https://fhir.kbv.de/StructureDefinition/KBV_EX_ERP_Medication_Category">
					<valueCoding>
						<system value="https://fhir.kbv.de/CodeSystem/KBV_CS_ERP_Medication_Category"/>
						<code value="00"/>
					</valueCoding>
				</extension>
				<extension url="https://fhir.kbv.de/StructureDefinition/KBV_EX_ERP_Medication_Vaccine">
					<valueBoolean value="false"/>
				</extension>
				<extension url="http://fhir.de/StructureDefinition/normgroesse">
					<valueCode value="N3"/>
				</extension>
				<code>
					<coding>
						<system value="http://fhir.de/CodeSystem/ifa/pzn"/>
						<code value="01256262"/>
					</coding>
					<text value="LOSARTAN STADA 100MG FILMT"/>
				</code>
				<form>
					<coding>
						<system value="https://fhir.kbv.de/CodeSystem/KBV_CS_SFHIR_KBV_DARREICHUNGSFORM"/>
						<code value="FTA"/>
					</coding>
				</form>
				<amount>
					<numerator>
						<value value="98"/>
						<unit value="St"/>
					</numerator>
					<denominator>
						<value value="1"/>
					</denominator>
				</amount>
			</Medication>
		</resource>
	</entry>
	<entry>
		<fullUrl value="http://pvs.praxis.local/fhir/35468344-9565-44f1-887b-9af4277854ad"/>
		<resource>
			<Coverage>
				<id value="35468344-9565-44f1-887b-9af4277854ad"/>
				<meta>
					<profile value="https://fhir.kbv.de/StructureDefinition/KBV_PR_FOR_Coverage|1.0.3"/>
				</meta>
				<extension url="http://fhir.de/StructureDefinition/gkv/besondere-personengruppe">
					<valueCoding>
						<system value="https://fhir.kbv.de/CodeSystem/KBV_CS_SFHIR_KBV_PERSONENGRUPPE"/>
						<code value="00"/>
					</valueCoding>
				</extension>
				<extension url="http://fhir.de/StructureDefinition/gkv/dmp-kennzeichen">
					<valueCoding>
						<system value="https://fhir.kbv.de/CodeSystem/KBV_CS_SFHIR_KBV_DMP"/>
						<code value="00"/>
					</valueCoding>
				</extension>
				<extension url="http://fhir.de/StructureDefinition/gkv/versichertenart">
					<valueCoding>
						<system value="https://fhir.kbv.de/CodeSystem/KBV_CS_SFHIR_KBV_VERSICHERTENSTATUS"/>
						<code value="1"/>
					</valueCoding>
				</extension>
				<extension url="http://fhir.de/StructureDefinition/gkv/wop">
					<valueCoding>
						<system value="https://fhir.kbv.de/CodeSystem/KBV_CS_SFHIR_ITA_WOP"/>
						<code value="93"/>
					</valueCoding>
				</extension>
				<status value="active"/>
				<type>
					<coding>
						<system value="http://fhir.de/CodeSystem/versicherungsart-de-basis"/>
						<code value="GKV"/>
					</coding>
				</type>
				<beneficiary>
					<reference value="Patient/11bcd278-cd58-40d3-8d51-fcae5f4c5a57"/>
				</beneficiary>
				<payor>
					<identifier>
						<system value="http://fhir.de/NamingSystem/arge-ik/iknr"/>
						<value value="104940005"/>
					</identifier>
					<display value="Barmer"/>
				</payor>
			</Coverage>
		</resource>
	</entry>
	<entry>
		<fullUrl value="http://pvs.praxis.local/fhir/fe516a2e-f272-48f0-909b-0f121435cb0a"/>
		<resource>
			<MedicationRequest>
				<id value="fe516a2e-f272-48f0-909b-0f121435cb0a"/>
				<meta>
					<profile value="https://fhir.kbv.de/StructureDefinition/KBV_PR_ERP_Prescription|1.0.2"/>
				</meta>
				<extension url="https://fhir.kbv.de/StructureDefinition/KBV_EX_ERP_StatusCoPayment">
					<valueCoding>
						<system value="https://fhir.kbv.de/CodeSystem/KBV_CS_ERP_StatusCoPayment"/>
						<code value="1"/>
					</valueCoding>
				</extension>
				<extension url="https://fhir.kbv.de/StructureDefinition/KBV_EX_ERP_EmergencyServicesFee">
					<valueBoolean value="false"/>
				</extension>
				<extension url="https://fhir.kbv.de/StructureDefinition/KBV_EX_ERP_BVG">
					<valueBoolean value="false"/>
				</extension>
				<extension url="https://fhir.kbv.de/StructureDefinition/KBV_EX_ERP_Multiple_Prescription">
					<extension url="Kennzeichen">
						<valueBoolean value="false"/>
					</extension>
				</extension>
				<status value="active"/>
				<intent value="order"/>
				<medicationReference>
					<reference value="Medication/cf31a4c2-2054-48a7-aad4-afbc4c0dc905"/>
				</medicationReference>
				<subject>
					<reference value="Patient/11bcd278-cd58-40d3-8d51-fcae5f4c5a57"/>
				</subject>
				<authoredOn value="2022-01-06"/>
				<requester>
					<reference value="Practitioner/6c44cbba-e5ca-46b2-a52b-15fd7501a87f"/>
				</requester>
				<insurance>
					<reference value="Coverage/35468344-9565-44f1-887b-9af4277854ad"/>
				</insurance>
				<dosageInstruction>
					<extension url="https://fhir.kbv.de/StructureDefinition/KBV_EX_ERP_DosageFlag">
						<valueBoolean value="false"/>
					</extension>
				</dosageInstruction>
				<dispenseRequest>
					<quantity>
						<value value="1"/>
						<system value="http://unitsofmeasure.org"/>
						<code value="{Package}"/>
					</quantity>
				</dispenseRequest>
				<substitution>
					<allowedBoolean value="true"/>
				</substitution>
			</MedicationRequest>
		</resource>
	</entry>
</Bundle>
