<Bundle xmlns="http://hl7.org/fhir">
	<id value="628b4e85-b7ad-4ad2-8288-25e017b30b6c"/>
	<meta>
		<lastUpdated value="2021-11-12T11:26:50.7334899+01:00"/>
		<profile value="https://fhir.kbv.de/StructureDefinition/KBV_PR_ERP_Bundle|1.0.2"/>
	</meta>
	<identifier>
		<system value="https://gematik.de/fhir/NamingSystem/PrescriptionID"/>
		<value value="160.000.074.296.846.96"/>
	</identifier>
	<type value="document"/>
	<timestamp value="2022-01-06T11:26:50.7334899+01:00"/>
	<entry>
		<fullUrl value="http://pvs.praxis.local/fhir/77269b34-934a-4629-8432-46e617a861a7"/>
		<resource>
			<Composition>
				<id value="77269b34-934a-4629-8432-46e617a861a7"/>
				<meta>
					<profile value="https://fhir.kbv.de/StructureDefinition/KBV_PR_ERP_Composition|1.0.2"/>
				</meta>
				<extension url="https://fhir.kbv.de/StructureDefinition/KBV_EX_FOR_Legal_basis">
					<valueCoding>
						<system value="https://fhir.kbv.de/CodeSystem/KBV_CS_SFHIR_KBV_STATUSKENNZEICHEN"/>
						<code value="10"/>
					</valueCoding>
				</extension>
				<status value="final"/>
				<type>
					<coding>
						<system value="https://fhir.kbv.de/CodeSystem/KBV_CS_SFHIR_KBV_FORMULAR_ART"/>
						<code value="e16A"/>
					</coding>
				</type>
				<subject>
					<reference value="Patient/22869c11-dc69-4fed-9b3e-3a141c129494"/>
				</subject>
				<date value="2022-01-06T11:26:49.351505+01:00"/>
				<author>
					<reference value="Practitioner/4649ab53-25b2-4600-82a6-6bf8d690b15f"/>
					<type value="Practitioner"/>
				</author>
				<author>
					<type value="Device"/>
					<identifier>
						<system value="https://fhir.kbv.de/NamingSystem/KBV_NS_FOR_Pruefnummer"/>
						<value value="Y/400/1910/36/462"/>
					</identifier>
				</author>
				<title value="elektronische Arzneimittelverordnung"/>
				<custodian>
					<reference value="Organization/ec62b5bf-41c4-4a0b-9b8f-0bd21979d113"/>
				</custodian>
				<section>
					<code>
						<coding>
							<system value="https://fhir.kbv.de/CodeSystem/KBV_CS_ERP_Section_Type"/>
							<code value="Prescription"/>
						</coding>
					</code>
					<entry>
						<reference value="MedicationRequest/b9bedf60-b9a3-4e70-ad41-cf99293136f6"/>
					</entry>
				</section>
				<section>
					<code>
						<coding>
							<system value="https://fhir.kbv.de/CodeSystem/KBV_CS_ERP_Section_Type"/>
							<code value="Coverage"/>
						</coding>
					</code>
					<entry>
						<reference value="Coverage/1208e635-8628-4a11-a553-4dfbf85e213d"/>
					</entry>
				</section>
			</Composition>
		</resource>
	</entry>
	<entry>
		<fullUrl value="http://pvs.praxis.local/fhir/22869c11-dc69-4fed-9b3e-3a141c129494"/>
		<resource>
			<Patient>
				<id value="22869c11-dc69-4fed-9b3e-3a141c129494"/>
				<meta>
					<profile value="https://fhir.kbv.de/StructureDefinition/KBV_PR_FOR_Patient|1.0.3"/>
				</meta>
				<identifier>
					<use value="official"/>
					<type>
						<coding>
							<system value="http://fhir.de/CodeSystem/identifier-type-de-basis"/>
							<code value="GKV"/>
						</coding>
					</type>
					<system value="http://fhir.de/NamingSystem/gkv/kvid-10"/>
					<value value="X110407261"/>
				</identifier>
				<name>
					<use value="official"/>
					<family value="Graf Adamiç">
						<extension url="http://fhir.de/StructureDefinition/humanname-namenszusatz">
							<valueString value="Graf"/>
						</extension>
						<extension url="http://hl7.org/fhir/StructureDefinition/humanname-own-name">
							<valueString value="Adamiç"/>
						</extension>
					</family>
					<given value="Fabian Xaver"/>
				</name>
				<birthDate value="1992-10-23"/>
				<address>
					<type value="both"/>
					<line value="Lerchenbreite 5 a">
						<extension url="http://hl7.org/fhir/StructureDefinition/iso21090-ADXP-streetName">
							<valueString value="Lerchenbreite"/>
						</extension>
						<extension url="http://hl7.org/fhir/StructureDefinition/iso21090-ADXP-houseNumber">
							<valueString value="5 a"/>
						</extension>
					</line>
					<city value="Blankenburg"/>
					<postalCode value="38889"/>
					<country value="D"/>
				</address>
			</Patient>
		</resource>
	</entry>
	<entry>
		<fullUrl value="http://pvs.praxis.local/fhir/4649ab53-25b2-4600-82a6-6bf8d690b15f"/>
		<resource>
			<Practitioner>
				<id value="4649ab53-25b2-4600-82a6-6bf8d690b15f"/>
				<meta>
					<profile value="https://fhir.kbv.de/StructureDefinition/KBV_PR_FOR_Practitioner|1.0.3"/>
				</meta>
				<identifier>
					<use value="official"/>
					<type>
						<coding>
							<system value="http://terminology.hl7.org/CodeSystem/v2-0203"/>
							<code value="LANR"/>
						</coding>
					</type>
					<system value="https://fhir.kbv.de/NamingSystem/KBV_NS_Base_ANR"/>
					<value value="770235434"/>
				</identifier>
				<name>
					<use value="official"/>
					<family value="Thiele">
						<extension url="http://hl7.org/fhir/StructureDefinition/humanname-own-name">
							<valueString value="Thiele"/>
						</extension>
					</family>
					<given value="Wilhelm"/>
					<prefix value="Dr. med.">
						<extension url="http://hl7.org/fhir/StructureDefinition/iso21090-EN-qualifier">
							<valueCode value="AC"/>
						</extension>
					</prefix>
				</name>
				<qualification>
					<code>
						<coding>
							<system value="https://fhir.kbv.de/CodeSystem/KBV_CS_FOR_Qualification_Type"/>
							<code value="00"/>
						</coding>
					</code>
				</qualification>
				<qualification>
					<code>
						<text value="Allgemeinmedizin"/>
					</code>
				</qualification>
			</Practitioner>
		</resource>
	</entry>
	<entry>
		<fullUrl value="http://pvs.praxis.local/fhir/ec62b5bf-41c4-4a0b-9b8f-0bd21979d113"/>
		<resource>
			<Organization>
				<id value="ec62b5bf-41c4-4a0b-9b8f-0bd21979d113"/>
				<meta>
					<profile value="https://fhir.kbv.de/StructureDefinition/KBV_PR_FOR_Organization|1.0.3"/>
				</meta>
				<identifier>
					<use value="official"/>
					<type>
						<coding>
							<system value="http://terminology.hl7.org/CodeSystem/v2-0203"/>
							<code value="BSNR"/>
						</coding>
					</type>
					<system value="https://fhir.kbv.de/NamingSystem/KBV_NS_Base_BSNR"/>
					<value value="666666666"/>
				</identifier>
				<name value="KIM-x2-HBS"/>
				<telecom>
					<system value="phone"/>
					<value value="0123456789-11111"/>
				</telecom>
				<address>
					<type value="both"/>
					<line value="Im Kappelhof 1">
						<extension url="http://hl7.org/fhir/StructureDefinition/iso21090-ADXP-streetName">
							<valueString value="Im Kappelhof"/>
						</extension>
						<extension url="http://hl7.org/fhir/StructureDefinition/iso21090-ADXP-houseNumber">
							<valueString value="1"/>
						</extension>
					</line>
					<city value="Eltville"/>
					<postalCode value="65331"/>
					<country value="D"/>
				</address>
			</Organization>
		</resource>
	</entry>
	<entry>
		<fullUrl value="http://pvs.praxis.local/fhir/3dc67057-ce02-46aa-b1f6-7a0e6fc5fedf"/>
		<resource>
			<Medication>
				<id value="3dc67057-ce02-46aa-b1f6-7a0e6fc5fedf"/>
				<meta>
					<profile value="https://fhir.kbv.de/StructureDefinition/KBV_PR_ERP_Medication_PZN|1.0.2"/>
				</meta>
				<extension url="https://fhir.kbv.de/StructureDefinition/KBV_EX_ERP_Medication_Category">
					<valueCoding>
						<system value="https://fhir.kbv.de/CodeSystem/KBV_CS_ERP_Medication_Category"/>
						<code value="00"/>
					</valueCoding>
				</extension>
				<extension url="https://fhir.kbv.de/StructureDefinition/KBV_EX_ERP_Medication_Vaccine">
					<valueBoolean value="false"/>
				</extension>
				<extension url="http://fhir.de/StructureDefinition/normgroesse">
					<valueCode value="N1"/>
				</extension>
				<code>
					<coding>
						<system value="http://fhir.de/CodeSystem/ifa/pzn"/>
						<code value="01970002"/>
					</coding>
					<text value="SIMVASTATIN 1A PHARMA 10MG"/>
				</code>
				<form>
					<coding>
						<system value="https://fhir.kbv.de/CodeSystem/KBV_CS_SFHIR_KBV_DARREICHUNGSFORM"/>
						<code value="FTA"/>
					</coding>
				</form>
				<amount>
					<numerator>
						<value value="30"/>
						<unit value="St"/>
					</numerator>
					<denominator>
						<value value="1"/>
					</denominator>
				</amount>
			</Medication>
		</resource>
	</entry>
	<entry>
		<fullUrl value="http://pvs.praxis.local/fhir/1208e635-8628-4a11-a553-4dfbf85e213d"/>
		<resource>
			<Coverage>
				<id value="1208e635-8628-4a11-a553-4dfbf85e213d"/>
				<meta>
					<profile value="https://fhir.kbv.de/StructureDefinition/KBV_PR_FOR_Coverage|1.0.3"/>
				</meta>
				<extension url="http://fhir.de/StructureDefinition/gkv/besondere-personengruppe">
					<valueCoding>
						<system value="https://fhir.kbv.de/CodeSystem/KBV_CS_SFHIR_KBV_PERSONENGRUPPE"/>
						<code value="00"/>
					</valueCoding>
				</extension>
				<extension url="http://fhir.de/StructureDefinition/gkv/dmp-kennzeichen">
					<valueCoding>
						<system value="https://fhir.kbv.de/CodeSystem/KBV_CS_SFHIR_KBV_DMP"/>
						<code value="00"/>
					</valueCoding>
				</extension>
				<extension url="http://fhir.de/StructureDefinition/gkv/versichertenart">
					<valueCoding>
						<system value="https://fhir.kbv.de/CodeSystem/KBV_CS_SFHIR_KBV_VERSICHERTENSTATUS"/>
						<code value="3"/>
					</valueCoding>
				</extension>
				<status value="active"/>
				<type>
					<coding>
						<system value="http://fhir.de/CodeSystem/versicherungsart-de-basis"/>
						<code value="GKV"/>
					</coding>
				</type>
				<beneficiary>
					<reference value="Patient/22869c11-dc69-4fed-9b3e-3a141c129494"/>
				</beneficiary>
				<payor>
					<identifier>
						<system value="http://fhir.de/NamingSystem/arge-ik/iknr"/>
						<value value="101520078"/>
					</identifier>
					<display value="Mobile Krankenkasse"/>
				</payor>
			</Coverage>
		</resource>
	</entry>
	<entry>
		<fullUrl value="http://pvs.praxis.local/fhir/b9bedf60-b9a3-4e70-ad41-cf99293136f6"/>
		<resource>
			<MedicationRequest>
				<id value="b9bedf60-b9a3-4e70-ad41-cf99293136f6"/>
				<meta>
					<profile value="https://fhir.kbv.de/StructureDefinition/KBV_PR_ERP_Prescription|1.0.2"/>
				</meta>
				<extension url="https://fhir.kbv.de/StructureDefinition/KBV_EX_ERP_StatusCoPayment">
					<valueCoding>
						<system value="https://fhir.kbv.de/CodeSystem/KBV_CS_ERP_StatusCoPayment"/>
						<code value="1"/>
					</valueCoding>
				</extension>
				<extension url="https://fhir.kbv.de/StructureDefinition/KBV_EX_ERP_EmergencyServicesFee">
					<valueBoolean value="false"/>
				</extension>
				<extension url="https://fhir.kbv.de/StructureDefinition/KBV_EX_ERP_BVG">
					<valueBoolean value="false"/>
				</extension>
				<extension url="https://fhir.kbv.de/StructureDefinition/KBV_EX_ERP_Multiple_Prescription">
					<extension url="Kennzeichen">
						<valueBoolean value="false"/>
					</extension>
				</extension>
				<status value="active"/>
				<intent value="order"/>
				<medicationReference>
					<reference value="Medication/3dc67057-ce02-46aa-b1f6-7a0e6fc5fedf"/>
				</medicationReference>
				<subject>
					<reference value="Patient/22869c11-dc69-4fed-9b3e-3a141c129494"/>
				</subject>
				<authoredOn value="2022-01-06"/>
				<requester>
					<reference value="Practitioner/4649ab53-25b2-4600-82a6-6bf8d690b15f"/>
				</requester>
				<insurance>
					<reference value="Coverage/1208e635-8628-4a11-a553-4dfbf85e213d"/>
				</insurance>
				<note>
					<text value="Ersatzverordnung"/>
				</note>
				<dosageInstruction>
					<extension url="https://fhir.kbv.de/StructureDefinition/KBV_EX_ERP_DosageFlag">
						<valueBoolean value="false"/>
					</extension>
				</dosageInstruction>
				<dispenseRequest>
					<quantity>
						<value value="1"/>
						<system value="http://unitsofmeasure.org"/>
						<code value="{Package}"/>
					</quantity>
				</dispenseRequest>
				<substitution>
					<allowedBoolean value="true"/>
				</substitution>
			</MedicationRequest>
		</resource>
	</entry>
</Bundle>
