{
  "resourceType": "Bundle",
  "id": "919a2b5c-4eec-4be9-9e97-9be58019da4b",
  "type": "collection",
  "timestamp": "2025-03-28T08:05:18.978+00:00",
  "link": [ {
    "relation": "self",
    "url": "https://erp-ref.zentral.erp.splitdns.ti-dienste.de/Task/160.000.239.761.407.33"
  } ],
  "entry": [ {
    "fullUrl": "https://erp-ref.zentral.erp.splitdns.ti-dienste.de/Task/160.000.239.761.407.33",
    "resource": {
      "resourceType": "Task",
      "id": "160.000.239.761.407.33",
      "meta": {
        "profile": [ "https://gematik.de/fhir/erp/StructureDefinition/GEM_ERP_PR_Task|1.4" ]
      },
      "extension": [ {
        "url": "https://gematik.de/fhir/erp/StructureDefinition/GEM_ERP_EX_PrescriptionType",
        "valueCoding": {
          "system": "https://gematik.de/fhir/erp/CodeSystem/GEM_ERP_CS_FlowType",
          "code": "160",
          "display": "Muster 16 (Apothekenpflichtige Arzneimittel)"
        }
      }, {
        "url": "https://gematik.de/fhir/erp/StructureDefinition/GEM_ERP_EX_ExpiryDate",
        "valueDate": "2026-03-28"
      }, {
        "url": "https://gematik.de/fhir/erp/StructureDefinition/GEM_ERP_EX_AcceptDate",
        "valueDate": "2026-03-28"
      } ],
      "identifier": [ {
        "use": "official",
        "system": "https://gematik.de/fhir/erp/NamingSystem/GEM_ERP_NS_PrescriptionId",
        "value": "160.000.239.761.407.33"
      }, {
        "use": "official",
        "system": "https://gematik.de/fhir/erp/NamingSystem/GEM_ERP_NS_AccessCode",
        "value": "3a3dba586dc3f18421502d9c15fa10ac2543a87a40b04e9d65bee88bbec76178"
      } ],
      "status": "ready",
      "intent": "order",
      "for": {
        "identifier": {
          "system": "http://fhir.de/sid/gkv/kvid-10",
          "value": "X110614233"
        }
      },
      "authoredOn": "2025-03-28T08:05:18.377+00:00",
      "lastModified": "2025-03-28T08:05:18.593+00:00",
      "performerType": [ {
        "coding": [ {
          "system": "https://gematik.de/fhir/erp/CodeSystem/GEM_ERP_CS_OrganizationType",
          "code": "urn:oid:1.2.276.0.76.4.54",
          "display": "Öffentliche Apotheke"
        } ],
        "text": "Öffentliche Apotheke"
      } ],
      "input": [ {
        "type": {
          "coding": [ {
            "system": "https://gematik.de/fhir/erp/CodeSystem/GEM_ERP_CS_DocumentType",
            "code": "2"
          } ]
        },
        "valueReference": {
          "reference": "a0ff774a-0e00-0000-0002-000000000000"
        }
      } ]
    }
  }, {
    "fullUrl": "urn:uuid:a0ff774a-0e00-0000-0002-000000000000",
    "resource": {
      "resourceType": "Bundle",
      "id": "a0ff774a-0e00-0000-0002-000000000000",
      "meta": {
        "profile": [ "https://fhir.kbv.de/StructureDefinition/KBV_PR_ERP_Bundle|1.1.0" ]
      },
      "identifier": {
        "system": "https://gematik.de/fhir/erp/NamingSystem/GEM_ERP_NS_PrescriptionId",
        "value": "160.000.239.761.407.33"
      },
      "type": "document",
      "timestamp": "2025-03-28T09:05:18.457+01:00",
      "entry": [ {
        "fullUrl": "https://pvs.gematik.de/fhir/Composition/ad8454c2-2077-4e8c-828e-5a1eda9e9396",
        "resource": {
          "resourceType": "Composition",
          "id": "ad8454c2-2077-4e8c-828e-5a1eda9e9396",
          "meta": {
            "profile": [ "https://fhir.kbv.de/StructureDefinition/KBV_PR_ERP_Composition|1.1.0" ]
          },
          "extension": [ {
            "url": "https://fhir.kbv.de/StructureDefinition/KBV_EX_FOR_Legal_basis",
            "valueCoding": {
              "system": "https://fhir.kbv.de/CodeSystem/KBV_CS_SFHIR_KBV_STATUSKENNZEICHEN",
              "code": "00"
            }
          } ],
          "status": "final",
          "type": {
            "coding": [ {
              "system": "https://fhir.kbv.de/CodeSystem/KBV_CS_SFHIR_KBV_FORMULAR_ART",
              "code": "e16A"
            } ]
          },
          "subject": {
            "reference": "Patient/6139b0a7-f262-4b65-a463-864af93e9599"
          },
          "date": "2025-03-28T09:05:18+01:00",
          "author": [ {
            "type": "Device",
            "identifier": {
              "system": "https://fhir.kbv.de/NamingSystem/KBV_NS_FOR_Pruefnummer",
              "value": "GEMATIK/410/2109/36/123"
            }
          }, {
            "reference": "Practitioner/45cf884e-1bca-43ac-9920-708bf6a63604",
            "type": "Practitioner"
          } ],
          "title": "elektronische Arzneimittelverordnung",
          "custodian": {
            "reference": "Organization/f31eb535-8723-4876-9867-2ad6a29cd8ae"
          },
          "section": [ {
            "code": {
              "coding": [ {
                "system": "https://fhir.kbv.de/CodeSystem/KBV_CS_ERP_Section_Type",
                "code": "Coverage"
              } ]
            },
            "entry": [ {
              "reference": "Coverage/22ba501f-8faa-40f0-ac91-cfb875cae3d0"
            } ]
          }, {
            "code": {
              "coding": [ {
                "system": "https://fhir.kbv.de/CodeSystem/KBV_CS_ERP_Section_Type",
                "code": "Prescription"
              } ]
            },
            "entry": [ {
              "reference": "MedicationRequest/bc7115b5-af39-4b87-a2ff-c96c5ccb5443"
            } ]
          } ]
        }
      }, {
        "fullUrl": "https://pvs.gematik.de/fhir/Coverage/22ba501f-8faa-40f0-ac91-cfb875cae3d0",
        "resource": {
          "resourceType": "Coverage",
          "id": "22ba501f-8faa-40f0-ac91-cfb875cae3d0",
          "meta": {
            "profile": [ "https://fhir.kbv.de/StructureDefinition/KBV_PR_FOR_Coverage|1.1.0" ]
          },
          "extension": [ {
            "url": "http://fhir.de/StructureDefinition/gkv/besondere-personengruppe",
            "valueCoding": {
              "system": "https://fhir.kbv.de/CodeSystem/KBV_CS_SFHIR_KBV_PERSONENGRUPPE",
              "code": "00"
            }
          }, {
            "url": "http://fhir.de/StructureDefinition/gkv/dmp-kennzeichen",
            "valueCoding": {
              "system": "https://fhir.kbv.de/CodeSystem/KBV_CS_SFHIR_KBV_DMP",
              "code": "00"
            }
          }, {
            "url": "http://fhir.de/StructureDefinition/gkv/wop",
            "valueCoding": {
              "system": "https://fhir.kbv.de/CodeSystem/KBV_CS_SFHIR_ITA_WOP",
              "code": "62"
            }
          }, {
            "url": "http://fhir.de/StructureDefinition/gkv/versichertenart",
            "valueCoding": {
              "system": "https://fhir.kbv.de/CodeSystem/KBV_CS_SFHIR_KBV_VERSICHERTENSTATUS",
              "code": "1"
            }
          } ],
          "status": "active",
          "type": {
            "coding": [ {
              "system": "http://fhir.de/CodeSystem/versicherungsart-de-basis",
              "code": "GKV"
            } ]
          },
          "beneficiary": {
            "reference": "Patient/855749eb-c3e5-4e84-8856-92d8006518be"
          },
          "payor": [ {
            "identifier": {
              "system": "http://fhir.de/sid/arge-ik/iknr",
              "value": "103724238"
            },
            "display": "Heimat Krankenkasse"
          } ]
        }
      }, {
        "fullUrl": "https://pvs.gematik.de/fhir/Patient/6139b0a7-f262-4b65-a463-864af93e9599",
        "resource": {
          "resourceType": "Patient",
          "id": "6139b0a7-f262-4b65-a463-864af93e9599",
          "meta": {
            "profile": [ "https://fhir.kbv.de/StructureDefinition/KBV_PR_FOR_Patient|1.1.0" ]
          },
          "identifier": [ {
            "type": {
              "coding": [ {
                "system": "http://fhir.de/CodeSystem/identifier-type-de-basis",
                "code": "GKV"
              } ]
            },
            "system": "http://fhir.de/sid/gkv/kvid-10",
            "value": "X110614233"
          } ],
          "name": [ {
            "use": "official",
            "family": "Hüllmann",
            "_family": {
              "extension": [ {
                "url": "http://hl7.org/fhir/StructureDefinition/humanname-own-name",
                "valueString": "Hüllmann"
              } ]
            },
            "given": [ "Sina" ]
          } ],
          "birthDate": "1969-03-26",
          "address": [ {
            "type": "both",
            "line": [ "Dornierstr. 3" ],
            "_line": [ {
              "extension": [ {
                "url": "http://hl7.org/fhir/StructureDefinition/iso21090-ADXP-houseNumber",
                "valueString": "3"
              }, {
                "url": "http://hl7.org/fhir/StructureDefinition/iso21090-ADXP-streetName",
                "valueString": "Dornierstr."
              } ]
            } ],
            "city": "Süd Jeremieberg",
            "postalCode": "97942",
            "country": "D"
          } ]
        }
      }, {
        "fullUrl": "https://pvs.gematik.de/fhir/Practitioner/45cf884e-1bca-43ac-9920-708bf6a63604",
        "resource": {
          "resourceType": "Practitioner",
          "id": "45cf884e-1bca-43ac-9920-708bf6a63604",
          "meta": {
            "profile": [ "https://fhir.kbv.de/StructureDefinition/KBV_PR_FOR_Practitioner|1.1.0" ]
          },
          "identifier": [ {
            "type": {
              "coding": [ {
                "system": "http://terminology.hl7.org/CodeSystem/v2-0203",
                "code": "LANR"
              } ]
            },
            "system": "https://fhir.kbv.de/NamingSystem/KBV_NS_Base_ANR",
            "value": "565751410"
          } ],
          "name": [ {
            "use": "official",
            "family": "Schraßer",
            "_family": {
              "extension": [ {
                "url": "http://hl7.org/fhir/StructureDefinition/humanname-own-name",
                "valueString": "Schraßer"
              } ]
            },
            "given": [ "Dr." ],
            "prefix": [ "Dr." ],
            "_prefix": [ {
              "extension": [ {
                "url": "http://hl7.org/fhir/StructureDefinition/iso21090-EN-qualifier",
                "valueCode": "AC"
              } ]
            } ]
          } ],
          "qualification": [ {
            "code": {
              "coding": [ {
                "system": "https://fhir.kbv.de/CodeSystem/KBV_CS_FOR_Qualification_Type",
                "code": "00"
              } ]
            }
          }, {
            "code": {
              "coding": [ {
                "system": "https://fhir.kbv.de/CodeSystem/KBV_CS_FOR_Berufsbezeichnung",
                "code": "Berufsbezeichnung"
              } ],
              "text": "Super-Facharzt für alles Mögliche"
            }
          } ]
        }
      }, {
        "fullUrl": "https://pvs.gematik.de/fhir/Organization/f31eb535-8723-4876-9867-2ad6a29cd8ae",
        "resource": {
          "resourceType": "Organization",
          "id": "f31eb535-8723-4876-9867-2ad6a29cd8ae",
          "meta": {
            "profile": [ "https://fhir.kbv.de/StructureDefinition/KBV_PR_FOR_Organization|1.1.0" ]
          },
          "identifier": [ {
            "type": {
              "coding": [ {
                "system": "http://terminology.hl7.org/CodeSystem/v2-0203",
                "code": "BSNR"
              } ]
            },
            "system": "https://fhir.kbv.de/NamingSystem/KBV_NS_Base_BSNR",
            "value": "520281988"
          } ],
          "name": "Arztpraxis Schraßer",
          "telecom": [ {
            "system": "phone",
            "value": "(05107) 3838252"
          }, {
            "system": "email",
            "value": "hasan.lehner@kinadeter.com"
          } ],
          "address": [ {
            "type": "both",
            "line": [ "Carl-Rumpff-Str. 5" ],
            "_line": [ {
              "extension": [ {
                "url": "http://hl7.org/fhir/StructureDefinition/iso21090-ADXP-houseNumber",
                "valueString": "5"
              }, {
                "url": "http://hl7.org/fhir/StructureDefinition/iso21090-ADXP-streetName",
                "valueString": "Carl-Rumpff-Str."
              } ]
            } ],
            "city": "Reuberburg",
            "postalCode": "65071",
            "country": "D"
          } ]
        }
      }, {
        "fullUrl": "https://pvs.gematik.de/fhir/Medication/3448cd6b-00c2-4059-83bf-71caefc547f7",
        "resource": {
          "resourceType": "Medication",
          "id": "3448cd6b-00c2-4059-83bf-71caefc547f7",
          "meta": {
            "profile": [ "https://fhir.kbv.de/StructureDefinition/KBV_PR_ERP_Medication_PZN|1.1.0" ]
          },
          "extension": [ {
            "url": "https://fhir.kbv.de/StructureDefinition/KBV_EX_Base_Medication_Type",
            "valueCodeableConcept": {
              "coding": [ {
                "system": "http://snomed.info/sct",
                "version": "http://snomed.info/sct/900000000000207008/version/20220331",
                "code": "763158003",
                "display": "Medicinal product (product)"
              } ]
            }
          }, {
            "url": "https://fhir.kbv.de/StructureDefinition/KBV_EX_ERP_Medication_Category",
            "valueCoding": {
              "system": "https://fhir.kbv.de/CodeSystem/KBV_CS_ERP_Medication_Category",
              "code": "00"
            }
          }, {
            "url": "https://fhir.kbv.de/StructureDefinition/KBV_EX_ERP_Medication_Vaccine",
            "valueBoolean": false
          }, {
            "url": "http://fhir.de/StructureDefinition/normgroesse",
            "valueCode": "NB"
          } ],
          "code": {
            "coding": [ {
              "system": "http://fhir.de/CodeSystem/ifa/pzn",
              "code": "28404319"
            } ],
            "text": "Curcumin Extrakt 45 20 mg"
          },
          "form": {
            "coding": [ {
              "system": "https://fhir.kbv.de/CodeSystem/KBV_CS_SFHIR_KBV_DARREICHUNGSFORM",
              "code": "TAB"
            } ]
          },
          "amount": {
            "numerator": {
              "extension": [ {
                "url": "https://fhir.kbv.de/StructureDefinition/KBV_EX_ERP_Medication_PackagingSize",
                "valueString": "1"
              } ],
              "unit": "Stk"
            },
            "denominator": {
              "value": 1
            }
          }
        }
      }, {
        "fullUrl": "https://pvs.gematik.de/fhir/MedicationRequest/bc7115b5-af39-4b87-a2ff-c96c5ccb5443",
        "resource": {
          "resourceType": "MedicationRequest",
          "id": "bc7115b5-af39-4b87-a2ff-c96c5ccb5443",
          "meta": {
            "profile": [ "https://fhir.kbv.de/StructureDefinition/KBV_PR_ERP_Prescription|1.1.0" ]
          },
          "extension": [ {
            "url": "https://fhir.kbv.de/StructureDefinition/KBV_EX_ERP_BVG",
            "valueBoolean": false
          }, {
            "url": "https://fhir.kbv.de/StructureDefinition/KBV_EX_ERP_EmergencyServicesFee",
            "valueBoolean": false
          }, {
            "url": "https://fhir.kbv.de/StructureDefinition/KBV_EX_ERP_Multiple_Prescription",
            "extension": [ {
              "url": "Kennzeichen",
              "valueBoolean": true
            }, {
              "url": "Nummerierung",
              "valueRatio": {
                "numerator": {
                  "value": 4
                },
                "denominator": {
                  "value": 4
                }
              }
            }, {
              "url": "Zeitraum",
              "valuePeriod": {
                "start": "2025-12-23"
              }
            }, {
              "url": "ID",
              "valueIdentifier": {
                "system": "urn:ietf:rfc:3986",
                "value": "urn:uuid:af18a307-3dc9-415c-839f-50c12e13a5ba"
              }
            } ]
          }, {
            "url": "https://fhir.kbv.de/StructureDefinition/KBV_EX_FOR_StatusCoPayment",
            "valueCoding": {
              "system": "https://fhir.kbv.de/CodeSystem/KBV_CS_FOR_StatusCoPayment",
              "code": "1"
            }
          } ],
          "status": "active",
          "intent": "order",
          "medicationReference": {
            "reference": "Medication/3448cd6b-00c2-4059-83bf-71caefc547f7"
          },
          "subject": {
            "reference": "Patient/6139b0a7-f262-4b65-a463-864af93e9599"
          },
          "authoredOn": "2025-03-28",
          "requester": {
            "reference": "Practitioner/45cf884e-1bca-43ac-9920-708bf6a63604"
          },
          "insurance": [ {
            "reference": "Coverage/22ba501f-8faa-40f0-ac91-cfb875cae3d0"
          } ],
          "dosageInstruction": [ {
            "extension": [ {
              "url": "https://fhir.kbv.de/StructureDefinition/KBV_EX_ERP_DosageFlag",
              "valueBoolean": true
            } ],
            "text": "3-1-1-1-2-3"
          } ],
          "dispenseRequest": {
            "quantity": {
              "value": 1,
              "system": "http://unitsofmeasure.org",
              "code": "{Package}"
            }
          },
          "substitution": {
            "allowedBoolean": false
          }
        }
      } ],
      "signature": {
        "type": [ {
          "system": "urn:iso-astm:E1762-95:2013",
          "code": "1.2.840.10065.1.12.1.5"
        } ],
        "when": "2025-03-28T08:05:18.978+00:00",
        "who": {
          "reference": "https://erp-ref.zentral.erp.splitdns.ti-dienste.de/Device/1"
        },
        "targetFormat": "application/fhir+json",
        "sigFormat": "application/jose",
        "data": ""
      }
    }
  } ]
}