<Bundle xmlns="http://hl7.org/fhir">
   <id value="05168195-7a18-423f-97b7-4281a99396ae"/>
   <meta>
      <lastUpdated value="2024-02-08T19:21:00.107+01:00"/>
      <profile value="https://fhir.kbv.de/StructureDefinition/KBV_PR_ERP_Bundle|1.1.0"/>
   </meta>
   <identifier>
      <system value="https://gematik.de/fhir/erp/NamingSystem/GEM_ERP_NS_PrescriptionId"/>
      <value value="209.000.000.032.994.37"/>
   </identifier>
   <type value="document"/>
   <timestamp value="2024-02-08T19:21:00.107+01:00"/>
   <entry>
      <fullUrl value="https://pvs.gematik.de/fhir/Composition/a5a79e57-e05e-425d-a72b-7f6b857e1dca"/>
      <resource>
         <Composition xmlns="http://hl7.org/fhir">
            <id value="a5a79e57-e05e-425d-a72b-7f6b857e1dca"/>
            <meta>
               <profile value="https://fhir.kbv.de/StructureDefinition/KBV_PR_ERP_Composition|1.1.0"/>
            </meta>
            <extension url="https://fhir.kbv.de/StructureDefinition/KBV_EX_FOR_Legal_basis">
               <valueCoding>
                  <system value="https://fhir.kbv.de/CodeSystem/KBV_CS_SFHIR_KBV_STATUSKENNZEICHEN"/>
                  <code value="00"/>
               </valueCoding>
            </extension>
            <status value="final"/>
            <type>
               <coding>
                  <system value="https://fhir.kbv.de/CodeSystem/KBV_CS_SFHIR_KBV_FORMULAR_ART"/>
                  <code value="e16A"/>
               </coding>
            </type>
            <subject>
               <reference value="Patient/ab199aec-bfd6-4b35-9e8a-77806c142b9b"/>
            </subject>
            <date value="2024-02-08T19:21:00+01:00"/>
            <author>
               <reference value="Practitioner/e256a490-76dd-4fe9-b624-d0bb9101449e"/>
               <type value="Practitioner"/>
            </author>
            <author>
               <type value="Device"/>
               <identifier>
                  <system value="https://fhir.kbv.de/NamingSystem/KBV_NS_FOR_Pruefnummer"/>
                  <value value="GEMATIK/410/2109/36/123"/>
               </identifier>
            </author>
            <title value="elektronische Arzneimittelverordnung"/>
            <custodian>
               <reference value="Organization/8e688089-d4b2-4dcb-a245-511942ff25be"/>
            </custodian>
            <section>
               <code>
                  <coding>
                     <system value="https://fhir.kbv.de/CodeSystem/KBV_CS_ERP_Section_Type"/>
                     <code value="Coverage"/>
                  </coding>
               </code>
               <entry>
                  <reference value="Coverage/bddaebe6-bd60-4180-a7a5-5a7396edd0d6"/>
               </entry>
            </section>
            <section>
               <code>
                  <coding>
                     <system value="https://fhir.kbv.de/CodeSystem/KBV_CS_ERP_Section_Type"/>
                     <code value="Prescription"/>
                  </coding>
               </code>
               <entry>
                  <reference value="MedicationRequest/715981a5-7222-4b26-b5a9-dfde9a05c8a5"/>
               </entry>
            </section>
         </Composition>
      </resource>
   </entry>
   <entry>
      <fullUrl value="https://pvs.gematik.de/fhir/Medication/86ea5ae2-bb11-4e5d-827e-f2ca5dcb291b"/>
      <resource>
         <Medication xmlns="http://hl7.org/fhir">
            <id value="86ea5ae2-bb11-4e5d-827e-f2ca5dcb291b"/>
            <meta>
               <profile value="https://fhir.kbv.de/StructureDefinition/KBV_PR_ERP_Medication_PZN|1.1.0"/>
            </meta>
            <extension url="https://fhir.kbv.de/StructureDefinition/KBV_EX_Base_Medication_Type">
               <valueCodeableConcept>
                  <coding>
                     <system value="http://snomed.info/sct"/>
                     <version value="http://snomed.info/sct/900000000000207008/version/20220331"/>
                     <code value="763158003"/>
                     <display value="Medicinal product (product)"/>
                  </coding>
               </valueCodeableConcept>
            </extension>
            <extension url="https://fhir.kbv.de/StructureDefinition/KBV_EX_ERP_Medication_Category">
               <valueCoding>
                  <system value="https://fhir.kbv.de/CodeSystem/KBV_CS_ERP_Medication_Category"/>
                  <code value="00"/>
               </valueCoding>
            </extension>
            <extension url="https://fhir.kbv.de/StructureDefinition/KBV_EX_ERP_Medication_Vaccine">
               <valueBoolean value="false"/>
            </extension>
            <extension url="http://fhir.de/StructureDefinition/normgroesse">
               <valueCode value="NB"/>
            </extension>
            <code>
               <coding>
                  <system value="http://fhir.de/CodeSystem/ifa/pzn"/>
                  <code value="93081505"/>
               </coding>
               <text value="Zytostatika_WF209"/>
            </code>
            <form>
               <coding>
                  <system value="https://fhir.kbv.de/CodeSystem/KBV_CS_SFHIR_KBV_DARREICHUNGSFORM"/>
                  <code value="TAB"/>
               </coding>
            </form>
            <amount>
               <numerator>
                  <extension url="https://fhir.kbv.de/StructureDefinition/KBV_EX_ERP_Medication_PackagingSize">
                     <valueString value="1"/>
                  </extension>
                  <unit value="Stk"/>
               </numerator>
               <denominator>
                  <value value="1"/>
               </denominator>
            </amount>
         </Medication>
      </resource>
   </entry>
   <entry>
      <fullUrl value="https://pvs.gematik.de/fhir/Patient/ab199aec-bfd6-4b35-9e8a-77806c142b9b"/>
      <resource>
         <Patient xmlns="http://hl7.org/fhir">
            <id value="ab199aec-bfd6-4b35-9e8a-77806c142b9b"/>
            <meta>
               <profile value="https://fhir.kbv.de/StructureDefinition/KBV_PR_FOR_Patient|1.1.0"/>
            </meta>
            <identifier>
               <type>
                  <coding>
                     <system value="http://fhir.de/CodeSystem/identifier-type-de-basis"/>
                     <code value="PKV"/>
                  </coding>
               </type>
               <system value="http://fhir.de/sid/pkv/kvid-10"/>
               <value value="X110465770"/>
            </identifier>
            <name>
               <use value="official"/>
               <family value="Angermänn">
                  <extension url="http://hl7.org/fhir/StructureDefinition/humanname-own-name">
                     <valueString value="Angermänn"/>
                  </extension>
               </family>
               <given value="Günther"/>
            </name>
            <birthDate value="2001-01-27"/>
            <address>
               <type value="both"/>
               <line value="Günther-Weisenborn-Str. 92b">
                  <extension url="http://hl7.org/fhir/StructureDefinition/iso21090-ADXP-houseNumber">
                     <valueString value="92b"/>
                  </extension>
                  <extension url="http://hl7.org/fhir/StructureDefinition/iso21090-ADXP-streetName">
                     <valueString value="Günther-Weisenborn-Str."/>
                  </extension>
               </line>
               <city value="Cedricland"/>
               <postalCode value="27129"/>
               <country value="D"/>
            </address>
         </Patient>
      </resource>
   </entry>
   <entry>
      <fullUrl value="https://pvs.gematik.de/fhir/Organization/8e688089-d4b2-4dcb-a245-511942ff25be"/>
      <resource>
         <Organization xmlns="http://hl7.org/fhir">
            <id value="8e688089-d4b2-4dcb-a245-511942ff25be"/>
            <meta>
               <profile value="https://fhir.kbv.de/StructureDefinition/KBV_PR_FOR_Organization|1.1.0"/>
            </meta>
            <identifier>
               <type>
                  <coding>
                     <system value="http://terminology.hl7.org/CodeSystem/v2-0203"/>
                     <code value="BSNR"/>
                  </coding>
               </type>
               <system value="https://fhir.kbv.de/NamingSystem/KBV_NS_Base_BSNR"/>
               <value value="024545375"/>
            </identifier>
            <name value="Arztpraxis Schraßer"/>
            <telecom>
               <system value="phone"/>
               <value value="(09883) 7244642"/>
            </telecom>
            <telecom>
               <system value="email"/>
               <value value="arne.griese@vogt.de"/>
            </telecom>
            <address>
               <type value="both"/>
               <line value="An der Evangelischen Kirche 399">
                  <extension url="http://hl7.org/fhir/StructureDefinition/iso21090-ADXP-houseNumber">
                     <valueString value="399"/>
                  </extension>
                  <extension url="http://hl7.org/fhir/StructureDefinition/iso21090-ADXP-streetName">
                     <valueString value="An der Evangelischen Kirche"/>
                  </extension>
               </line>
               <city value="West Evastadt"/>
               <postalCode value="45627"/>
               <country value="D"/>
            </address>
         </Organization>
      </resource>
   </entry>
   <entry>
      <fullUrl value="https://pvs.gematik.de/fhir/Coverage/bddaebe6-bd60-4180-a7a5-5a7396edd0d6"/>
      <resource>
         <Coverage xmlns="http://hl7.org/fhir">
            <id value="bddaebe6-bd60-4180-a7a5-5a7396edd0d6"/>
            <meta>
               <profile value="https://fhir.kbv.de/StructureDefinition/KBV_PR_FOR_Coverage|1.1.0"/>
            </meta>
            <extension url="http://fhir.de/StructureDefinition/gkv/besondere-personengruppe">
               <valueCoding>
                  <system value="https://fhir.kbv.de/CodeSystem/KBV_CS_SFHIR_KBV_PERSONENGRUPPE"/>
                  <code value="00"/>
               </valueCoding>
            </extension>
            <extension url="http://fhir.de/StructureDefinition/gkv/dmp-kennzeichen">
               <valueCoding>
                  <system value="https://fhir.kbv.de/CodeSystem/KBV_CS_SFHIR_KBV_DMP"/>
                  <code value="00"/>
               </valueCoding>
            </extension>
            <extension url="http://fhir.de/StructureDefinition/gkv/wop">
               <valueCoding>
                  <system value="https://fhir.kbv.de/CodeSystem/KBV_CS_SFHIR_ITA_WOP"/>
                  <code value="02"/>
               </valueCoding>
            </extension>
            <extension url="http://fhir.de/StructureDefinition/gkv/versichertenart">
               <valueCoding>
                  <system value="https://fhir.kbv.de/CodeSystem/KBV_CS_SFHIR_KBV_VERSICHERTENSTATUS"/>
                  <code value="1"/>
               </valueCoding>
            </extension>
            <status value="active"/>
            <type>
               <coding>
                  <system value="http://fhir.de/CodeSystem/versicherungsart-de-basis"/>
                  <code value="PKV"/>
               </coding>
            </type>
            <beneficiary>
               <reference value="Patient/76f4e134-aa0b-406c-9730-63244eead690"/>
            </beneficiary>
            <payor>
               <identifier>
                  <system value="http://fhir.de/sid/arge-ik/iknr"/>
                  <value value="168141358"/>
               </identifier>
               <display value="Provinzial"/>
            </payor>
         </Coverage>
      </resource>
   </entry>
   <entry>
      <fullUrl value="https://pvs.gematik.de/fhir/Practitioner/e256a490-76dd-4fe9-b624-d0bb9101449e"/>
      <resource>
         <Practitioner xmlns="http://hl7.org/fhir">
            <id value="e256a490-76dd-4fe9-b624-d0bb9101449e"/>
            <meta>
               <profile value="https://fhir.kbv.de/StructureDefinition/KBV_PR_FOR_Practitioner|1.1.0"/>
            </meta>
            <identifier>
               <type>
                  <coding>
                     <system value="http://terminology.hl7.org/CodeSystem/v2-0203"/>
                     <code value="LANR"/>
                  </coding>
               </type>
               <system value="https://fhir.kbv.de/NamingSystem/KBV_NS_Base_ANR"/>
               <value value="097388053"/>
            </identifier>
            <name>
               <use value="official"/>
               <family value="Schraßer">
                  <extension url="http://hl7.org/fhir/StructureDefinition/humanname-own-name">
                     <valueString value="Schraßer"/>
                  </extension>
               </family>
               <given value="Dr."/>
               <prefix value="Dr.">
                  <extension url="http://hl7.org/fhir/StructureDefinition/iso21090-EN-qualifier">
                     <valueCode value="AC"/>
                  </extension>
               </prefix>
            </name>
            <qualification>
               <code>
                  <coding>
                     <system value="https://fhir.kbv.de/CodeSystem/KBV_CS_FOR_Qualification_Type"/>
                     <code value="00"/>
                  </coding>
               </code>
            </qualification>
            <qualification>
               <code>
                  <coding>
                     <system value="https://fhir.kbv.de/CodeSystem/KBV_CS_FOR_Berufsbezeichnung"/>
                     <code value="Berufsbezeichnung"/>
                  </coding>
                  <text value="Super-Facharzt für alles Mögliche"/>
               </code>
            </qualification>
         </Practitioner>
      </resource>
   </entry>
   <entry>
      <fullUrl value="https://pvs.gematik.de/fhir/MedicationRequest/715981a5-7222-4b26-b5a9-dfde9a05c8a5"/>
      <resource>
         <MedicationRequest xmlns="http://hl7.org/fhir">
            <id value="715981a5-7222-4b26-b5a9-dfde9a05c8a5"/>
            <meta>
               <profile value="https://fhir.kbv.de/StructureDefinition/KBV_PR_ERP_Prescription|1.1.0"/>
            </meta>
            <extension url="https://fhir.kbv.de/StructureDefinition/KBV_EX_ERP_BVG">
               <valueBoolean value="false"/>
            </extension>
            <extension url="https://fhir.kbv.de/StructureDefinition/KBV_EX_ERP_EmergencyServicesFee">
               <valueBoolean value="false"/>
            </extension>
            <extension url="https://fhir.kbv.de/StructureDefinition/KBV_EX_ERP_Multiple_Prescription">
               <extension url="Kennzeichen">
                  <valueBoolean value="false"/>
               </extension>
            </extension>
            <extension url="https://fhir.kbv.de/StructureDefinition/KBV_EX_FOR_StatusCoPayment">
               <valueCoding>
                  <system value="https://fhir.kbv.de/CodeSystem/KBV_CS_FOR_StatusCoPayment"/>
                  <code value="2"/>
               </valueCoding>
            </extension>
            <status value="active"/>
            <intent value="order"/>
            <medicationReference>
               <reference value="Medication/86ea5ae2-bb11-4e5d-827e-f2ca5dcb291b"/>
            </medicationReference>
            <subject>
               <reference value="Patient/ab199aec-bfd6-4b35-9e8a-77806c142b9b"/>
            </subject>
            <authoredOn value="2024-02-08"/>
            <requester>
               <reference value="Practitioner/e256a490-76dd-4fe9-b624-d0bb9101449e"/>
            </requester>
            <insurance>
               <reference value="Coverage/bddaebe6-bd60-4180-a7a5-5a7396edd0d6"/>
            </insurance>
            <dispenseRequest>
               <quantity>
                  <value value="1"/>
                  <system value="http://unitsofmeasure.org"/>
                  <code value="{Package}"/>
               </quantity>
            </dispenseRequest>
            <substitution>
               <allowedBoolean value="false"/>
            </substitution>
         </MedicationRequest>
      </resource>
   </entry>
</Bundle>