{
  "resourceType": "Parameters",
  "id": "b914a021-068e-4159-bcd4-c771078f1359",
  "meta": {
    "profile": [ "https://gematik.de/fhir/epa-medication/StructureDefinition/epa-op-provide-dispensation-input-parameters" ]
  },
  "parameter": [ {
    "name": "dispensation",
    "part": [ {
      "name": "medicationDispense",
      "resource": {
        "resourceType": "MedicationDispense",
        "id": "8c44edd0-54f0-4f81-9a78-550bc0cafbdb",
        "meta": {
          "profile": [ "https://gematik.de/fhir/epa-medication/StructureDefinition/epa-medication-dispense" ]
        },
        "identifier": [ {
          "system": "https://gematik.de/fhir/erp/NamingSystem/GEM_ERP_NS_PrescriptionId",
          "value": "160.000.226.436.549.34"
        } ],
        "status": "completed",
        "category": {
          "coding": [ {
            "system": "https://gematik.de/fhir/epa-medication/CodeSystem/EPAMedicationDispenseCategoryCS",
            "code": "prescription",
            "display": "prescription dispense"
          } ]
        },
        "medicationReference": {
          "reference": "Medication/72597342-3176-4f50-ab01-caa0fc03952e"
        },
        "subject": {
          "identifier": {
            "system": "http://fhir.de/sid/gkv/kvid-10",
            "value": "Z828875733"
          }
        },
        "performer": [ {
          "actor": {
            "reference": "Organization/55d2eb4c-edba-4faf-9ac7-eb4457eceaa0"
          }
        } ],
        "whenHandedOver": "2024-07-02T11:01:36+02:00",
        "dosageInstruction": [ {
          "text": "1–3mal/Tag auf die erkrankten Hautstellen auftragen"
        } ]
      }
    }, {
      "name": "medication",
      "resource": {
        "resourceType": "Medication",
        "id": "72597342-3176-4f50-ab01-caa0fc03952e",
        "meta": {
          "profile": [ "https://gematik.de/fhir/epa-medication/StructureDefinition/epa-medication" ]
        },
        "extension": [ {
          "url": "https://gematik.de/fhir/epa-medication/StructureDefinition/drug-category-extension",
          "valueCoding": {
            "system": "https://gematik.de/fhir/epa-medication/CodeSystem/epa-drug-category-cs",
            "code": "00"
          }
        }, {
          "url": "https://gematik.de/fhir/epa-medication/StructureDefinition/medication-id-vaccine-extension",
          "valueBoolean": false
        } ],
        "form": {
          "text": "Lösung"
        },
        "amount": {
          "numerator": {
            "extension": [ {
              "url": "https://gematik.de/fhir/epa-medication/StructureDefinition/medication-packaging-size-extension",
              "valueString": "100"
            } ],
            "unit": "ml"
          },
          "denominator": {
            "value": 1
          }
        },
        "ingredient": [ {
          "itemCodeableConcept": {
            "text": "Salicylsäure"
          },
          "strength": {
            "extension": [ {
              "url": "https://gematik.de/fhir/epa-medication/StructureDefinition/medication-ingredient-amount-extension",
              "valueString": "5g"
            } ],
            "numerator": {
              "_value": {
                "extension": [ {
                  "url": "http://hl7.org/fhir/StructureDefinition/data-absent-reason",
                  "valueCode": "unknown"
                } ]
              },
              "_system": {
                "extension": [ {
                  "url": "http://hl7.org/fhir/StructureDefinition/data-absent-reason",
                  "valueCode": "unknown"
                } ]
              },
              "_code": {
                "extension": [ {
                  "url": "http://hl7.org/fhir/StructureDefinition/data-absent-reason",
                  "valueCode": "unknown"
                } ]
              }
            },
            "denominator": {
              "_value": {
                "extension": [ {
                  "url": "http://hl7.org/fhir/StructureDefinition/data-absent-reason",
                  "valueCode": "unknown"
                } ]
              },
              "_system": {
                "extension": [ {
                  "url": "http://hl7.org/fhir/StructureDefinition/data-absent-reason",
                  "valueCode": "unknown"
                } ]
              },
              "_code": {
                "extension": [ {
                  "url": "http://hl7.org/fhir/StructureDefinition/data-absent-reason",
                  "valueCode": "unknown"
                } ]
              }
            }
          }
        }, {
          "itemCodeableConcept": {
            "text": "2-propanol 70 %"
          },
          "strength": {
            "extension": [ {
              "url": "https://gematik.de/fhir/epa-medication/StructureDefinition/medication-ingredient-amount-extension",
              "valueString": "Ad 100 g"
            } ],
            "numerator": {
              "_value": {
                "extension": [ {
                  "url": "http://hl7.org/fhir/StructureDefinition/data-absent-reason",
                  "valueCode": "unknown"
                } ]
              },
              "_system": {
                "extension": [ {
                  "url": "http://hl7.org/fhir/StructureDefinition/data-absent-reason",
                  "valueCode": "unknown"
                } ]
              },
              "_code": {
                "extension": [ {
                  "url": "http://hl7.org/fhir/StructureDefinition/data-absent-reason",
                  "valueCode": "unknown"
                } ]
              }
            },
            "denominator": {
              "_value": {
                "extension": [ {
                  "url": "http://hl7.org/fhir/StructureDefinition/data-absent-reason",
                  "valueCode": "unknown"
                } ]
              },
              "_system": {
                "extension": [ {
                  "url": "http://hl7.org/fhir/StructureDefinition/data-absent-reason",
                  "valueCode": "unknown"
                } ]
              },
              "_code": {
                "extension": [ {
                  "url": "http://hl7.org/fhir/StructureDefinition/data-absent-reason",
                  "valueCode": "unknown"
                } ]
              }
            }
          }
        } ]
      }
    } ]
  }, {
    "name": "performerInstitution",
    "resource": {
      "resourceType": "Organization",
      "id": "55d2eb4c-edba-4faf-9ac7-eb4457eceaa0",
      "meta": {
        "profile": [ "https://gematik.de/fhir/directory/StructureDefinition/OrganizationDirectory" ],
        "tag": [ {
          "system": "https://gematik.de/fhir/directory/CodeSystem/Origin",
          "code": "ldap"
        } ]
      },
      "identifier": [ {
        "system": "https://gematik.de/fhir/sid/telematik-id",
        "value": "3-abc-1234567890"
      } ],
      "type": [ {
        "coding": [ {
          "system": "https://gematik.de/fhir/directory/CodeSystem/OrganizationProfessionOID",
          "code": "1.2.276.0.76.4.58"
        } ]
      } ],
      "name": "Eli Ondefloor"
    }
  } ]
}