<Parameters xmlns="http://hl7.org/fhir">
   <id value="b914a021-068e-4159-bcd4-c771078f1359"/>
   <meta>
      <profile value="https://gematik.de/fhir/epa-medication/StructureDefinition/epa-op-provide-dispensation-input-parameters"/>
   </meta>
   <parameter>
      <name value="dispensation"/>
      <part>
         <name value="medicationDispense"/>
         <resource>
            <MedicationDispense xmlns="http://hl7.org/fhir">
               <id value="8c44edd0-54f0-4f81-9a78-550bc0cafbdb"/>
               <meta>
                  <profile value="https://gematik.de/fhir/epa-medication/StructureDefinition/epa-medication-dispense"/>
               </meta>
               <identifier>
                  <system value="https://gematik.de/fhir/erp/NamingSystem/GEM_ERP_NS_PrescriptionId"/>
                  <value value="160.000.226.436.549.34"/>
               </identifier>
               <status value="completed"/>
               <category>
                  <coding>
                     <system value="https://gematik.de/fhir/epa-medication/CodeSystem/EPAMedicationDispenseCategoryCS"/>
                     <code value="prescription"/>
                     <display value="prescription dispense"/>
                  </coding>
               </category>
               <medicationReference>
                  <reference value="Medication/72597342-3176-4f50-ab01-caa0fc03952e"/>
               </medicationReference>
               <subject>
                  <identifier>
                     <system value="http://fhir.de/sid/gkv/kvid-10"/>
                     <value value="Z828875733"/>
                  </identifier>
               </subject>
               <performer>
                  <actor>
                     <reference value="Organization/55d2eb4c-edba-4faf-9ac7-eb4457eceaa0"/>
                  </actor>
               </performer>
               <whenHandedOver value="2024-07-02T11:01:36+02:00"/>
               <dosageInstruction>
                  <text value="1–3mal/Tag auf die erkrankten Hautstellen auftragen"/>
               </dosageInstruction>
            </MedicationDispense>
         </resource>
      </part>
      <part>
         <name value="medication"/>
         <resource>
            <Medication xmlns="http://hl7.org/fhir">
               <id value="72597342-3176-4f50-ab01-caa0fc03952e"/>
               <meta>
                  <profile value="https://gematik.de/fhir/epa-medication/StructureDefinition/epa-medication"/>
               </meta>
               <extension url="https://gematik.de/fhir/epa-medication/StructureDefinition/drug-category-extension">
                  <valueCoding>
                     <system value="https://gematik.de/fhir/epa-medication/CodeSystem/epa-drug-category-cs"/>
                     <code value="00"/>
                  </valueCoding>
               </extension>
               <extension url="https://gematik.de/fhir/epa-medication/StructureDefinition/medication-id-vaccine-extension">
                  <valueBoolean value="false"/>
               </extension>
               <form>
                  <text value="Lösung"/>
               </form>
               <amount>
                  <numerator>
                     <extension url="https://gematik.de/fhir/epa-medication/StructureDefinition/medication-packaging-size-extension">
                        <valueString value="100"/>
                     </extension>
                     <unit value="ml"/>
                  </numerator>
                  <denominator>
                     <value value="1"/>
                  </denominator>
               </amount>
               <ingredient>
                  <itemCodeableConcept>
                     <text value="Salicylsäure"/>
                  </itemCodeableConcept>
                  <strength>
                     <extension url="https://gematik.de/fhir/epa-medication/StructureDefinition/medication-ingredient-amount-extension">
                        <valueString value="5g"/>
                     </extension>
                     <numerator>
                        <value>
                           <extension url="http://hl7.org/fhir/StructureDefinition/data-absent-reason">
                              <valueCode value="unknown"/>
                           </extension>
                        </value>
                        <system>
                           <extension url="http://hl7.org/fhir/StructureDefinition/data-absent-reason">
                              <valueCode value="unknown"/>
                           </extension>
                        </system>
                        <code>
                           <extension url="http://hl7.org/fhir/StructureDefinition/data-absent-reason">
                              <valueCode value="unknown"/>
                           </extension>
                        </code>
                     </numerator>
                     <denominator>
                        <value>
                           <extension url="http://hl7.org/fhir/StructureDefinition/data-absent-reason">
                              <valueCode value="unknown"/>
                           </extension>
                        </value>
                        <system>
                           <extension url="http://hl7.org/fhir/StructureDefinition/data-absent-reason">
                              <valueCode value="unknown"/>
                           </extension>
                        </system>
                        <code>
                           <extension url="http://hl7.org/fhir/StructureDefinition/data-absent-reason">
                              <valueCode value="unknown"/>
                           </extension>
                        </code>
                     </denominator>
                  </strength>
               </ingredient>
               <ingredient>
                  <itemCodeableConcept>
                     <text value="2-propanol 70 %"/>
                  </itemCodeableConcept>
                  <strength>
                     <extension url="https://gematik.de/fhir/epa-medication/StructureDefinition/medication-ingredient-amount-extension">
                        <valueString value="Ad 100 g"/>
                     </extension>
                     <numerator>
                        <value>
                           <extension url="http://hl7.org/fhir/StructureDefinition/data-absent-reason">
                              <valueCode value="unknown"/>
                           </extension>
                        </value>
                        <system>
                           <extension url="http://hl7.org/fhir/StructureDefinition/data-absent-reason">
                              <valueCode value="unknown"/>
                           </extension>
                        </system>
                        <code>
                           <extension url="http://hl7.org/fhir/StructureDefinition/data-absent-reason">
                              <valueCode value="unknown"/>
                           </extension>
                        </code>
                     </numerator>
                     <denominator>
                        <value>
                           <extension url="http://hl7.org/fhir/StructureDefinition/data-absent-reason">
                              <valueCode value="unknown"/>
                           </extension>
                        </value>
                        <system>
                           <extension url="http://hl7.org/fhir/StructureDefinition/data-absent-reason">
                              <valueCode value="unknown"/>
                           </extension>
                        </system>
                        <code>
                           <extension url="http://hl7.org/fhir/StructureDefinition/data-absent-reason">
                              <valueCode value="unknown"/>
                           </extension>
                        </code>
                     </denominator>
                  </strength>
               </ingredient>
            </Medication>
         </resource>
      </part>
   </parameter>
   <parameter>
      <name value="performerInstitution"/>
      <resource>
         <Organization xmlns="http://hl7.org/fhir">
            <id value="55d2eb4c-edba-4faf-9ac7-eb4457eceaa0"/>
            <meta>
               <profile value="https://gematik.de/fhir/directory/StructureDefinition/OrganizationDirectory"/>
               <tag>
                  <system value="https://gematik.de/fhir/directory/CodeSystem/Origin"/>
                  <code value="ldap"/>
               </tag>
            </meta>
            <identifier>
               <system value="https://gematik.de/fhir/sid/telematik-id"/>
               <value value="3-abc-1234567890"/>
            </identifier>
            <type>
               <coding>
                  <system value="https://gematik.de/fhir/directory/CodeSystem/OrganizationProfessionOID"/>
                  <code value="1.2.276.0.76.4.58"/>
               </coding>
            </type>
            <name value="Eli Ondefloor"/>
         </Organization>
      </resource>
   </parameter>
</Parameters>