<Bundle xmlns="http://hl7.org/fhir"><id value="ff3fc928-86af-49c1-8b62-137670f85600"/><meta><lastUpdated value="2025-03-28T09:09:23.373+01:00"/><profile value="http://fhir.abda.de/eRezeptAbgabedaten/StructureDefinition/DAV-PKV-PR-ERP-AbgabedatenBundle|1.3"/></meta><identifier><system value="https://gematik.de/fhir/erp/NamingSystem/GEM_ERP_NS_PrescriptionId"/><value value="200.000.002.425.337.30"/></identifier><type value="document"/><timestamp value="2025-03-28T09:09:23.373+01:00"/><entry><fullUrl value="urn:uuid:8616d63e-18c8-435f-b781-e31efa1b1bbf"/><resource><Composition xmlns="http://hl7.org/fhir"><id value="8616d63e-18c8-435f-b781-e31efa1b1bbf"/><meta><profile value="http://fhir.abda.de/eRezeptAbgabedaten/StructureDefinition/DAV-PKV-PR-ERP-AbgabedatenComposition|1.3"/></meta><status value="final"/><type><coding><system value="http://fhir.abda.de/eRezeptAbgabedaten/CodeSystem/DAV-CS-ERP-CompositionTypes"/><code value="ERezeptAbgabedaten"/></coding></type><date value="2025-03-28T09:09:23+01:00"/><author><reference value="urn:uuid:b972c90d-8a02-4ed0-8757-ee86ae703c99"/></author><title value="ERezeptAbgabedaten"/><section><title value="Apotheke"/><entry><reference value="urn:uuid:b972c90d-8a02-4ed0-8757-ee86ae703c99"/></entry></section><section><title value="Abgabeinformationen"/><entry><reference value="urn:uuid:37a14315-3e30-4a46-9e2a-a869bfdeb4cd"/></entry></section></Composition></resource></entry><entry><fullUrl value="urn:uuid:b972c90d-8a02-4ed0-8757-ee86ae703c99"/><resource><Organization xmlns="http://hl7.org/fhir"><id value="b972c90d-8a02-4ed0-8757-ee86ae703c99"/><meta><profile value="http://fhir.abda.de/eRezeptAbgabedaten/StructureDefinition/DAV-PKV-PR-ERP-Apotheke|1.3"/></meta><identifier><system value="http://fhir.de/sid/arge-ik/iknr"/><value value="817151064"/></identifier><name value="Apotheke Phil A. Mignon"/><address><type value="physical"/><line value="Theodor-Haubach-Str. 713"><extension url="http://hl7.org/fhir/StructureDefinition/iso21090-ADXP-houseNumber"><valueString value="713"/></extension><extension url="http://hl7.org/fhir/StructureDefinition/iso21090-ADXP-streetName"><valueString value="Theodor-Haubach-Str."/></extension></line><city value="Taminoburg"/><postalCode value="27572"/><country value="WD"/></address></Organization></resource></entry><entry><fullUrl value="urn:uuid:bae0b4b2-625c-4749-94ce-c3f8a478d19c"/><resource><Invoice xmlns="http://hl7.org/fhir"><id value="bae0b4b2-625c-4749-94ce-c3f8a478d19c"/><meta><profile value="http://fhir.abda.de/eRezeptAbgabedaten/StructureDefinition/DAV-PKV-PR-ERP-Abrechnungszeilen|1.3"/></meta><status value="issued"/><type><coding><system value="http://fhir.abda.de/eRezeptAbgabedaten/CodeSystem/DAV-CS-ERP-InvoiceTyp"/><code value="Abrechnungszeilen"/></coding></type><lineItem><sequence value="1"/><chargeItemCodeableConcept><coding><system value="http://fhir.de/CodeSystem/ifa/pzn"/><code value="37199172"/></coding><text value="Ciclopoli® Spray 250 mg"/></chargeItemCodeableConcept><priceComponent><extension url="http://fhir.abda.de/eRezeptAbgabedaten/StructureDefinition/DAV-EX-ERP-KostenVersicherter"><extension url="Kategorie"><valueCodeableConcept><coding><system value="http://fhir.abda.de/eRezeptAbgabedaten/CodeSystem/DAV-PKV-CS-ERP-KostenVersicherterKategorie"/><code value="0"/></coding></valueCodeableConcept></extension><extension url="Kostenbetrag"><valueMoney><value value="114.92"/><currency value="EUR"/></valueMoney></extension></extension><extension url="http://fhir.abda.de/eRezeptAbgabedaten/StructureDefinition/DAV-EX-ERP-MwStSatz"><valueDecimal value="16.98"/></extension><type value="informational"/><factor value="1"/><amount><value value="122.34"/><currency value="EUR"/></amount></priceComponent></lineItem><lineItem><sequence value="2"/><chargeItemCodeableConcept><coding><system value="http://fhir.de/CodeSystem/ifa/pzn"/><code value="85112315"/></coding><text value="ASS Dexcel® Protect Pulver"/></chargeItemCodeableConcept><priceComponent><extension url="http://fhir.abda.de/eRezeptAbgabedaten/StructureDefinition/DAV-EX-ERP-KostenVersicherter"><extension url="Kategorie"><valueCodeableConcept><coding><system value="http://fhir.abda.de/eRezeptAbgabedaten/CodeSystem/DAV-PKV-CS-ERP-KostenVersicherterKategorie"/><code value="0"/></coding></valueCodeableConcept></extension><extension url="Kostenbetrag"><valueMoney><value value="91.27"/><currency value="EUR"/></valueMoney></extension></extension><extension url="http://fhir.abda.de/eRezeptAbgabedaten/StructureDefinition/DAV-EX-ERP-MwStSatz"><valueDecimal value="16.98"/></extension><type value="informational"/><factor value="1"/><amount><value value="268.94"/><currency value="EUR"/></amount></priceComponent></lineItem><totalGross><extension url="http://fhir.abda.de/eRezeptAbgabedaten/StructureDefinition/DAV-EX-ERP-Gesamtzuzahlung"><valueMoney><value value="206.19"/><currency value="EUR"/></valueMoney></extension><value value="391.28"/><currency value="EUR"/></totalGross></Invoice></resource></entry><entry><fullUrl value="urn:uuid:37a14315-3e30-4a46-9e2a-a869bfdeb4cd"/><resource><MedicationDispense xmlns="http://hl7.org/fhir"><id value="37a14315-3e30-4a46-9e2a-a869bfdeb4cd"/><meta><profile value="http://fhir.abda.de/eRezeptAbgabedaten/StructureDefinition/DAV-PKV-PR-ERP-Abgabeinformationen|1.3"/></meta><extension url="http://fhir.abda.de/eRezeptAbgabedaten/StructureDefinition/DAV-PKV-EX-ERP-AbrechnungsTyp"><valueCodeableConcept><coding><system value="http://fhir.abda.de/eRezeptAbgabedaten/CodeSystem/DAV-PKV-CS-ERP-AbrechnungsTyp"/><code value="1"/></coding></valueCodeableConcept></extension><extension url="http://fhir.abda.de/eRezeptAbgabedaten/StructureDefinition/DAV-EX-ERP-Abrechnungszeilen"><valueReference><reference value="urn:uuid:bae0b4b2-625c-4749-94ce-c3f8a478d19c"/></valueReference></extension><status value="completed"/><medicationCodeableConcept><coding><system value="http://terminology.hl7.org/CodeSystem/data-absent-reason"/><code value="not-applicable"/></coding></medicationCodeableConcept><performer><actor><reference value="urn:uuid:b972c90d-8a02-4ed0-8757-ee86ae703c99"/></actor></performer><authorizingPrescription><identifier><system value="https://gematik.de/fhir/erp/NamingSystem/GEM_ERP_NS_PrescriptionId"/><value value="200.000.002.425.337.30"/></identifier></authorizingPrescription><type><coding><system value="http://fhir.abda.de/eRezeptAbgabedaten/CodeSystem/DAV-CS-ERP-MedicationDispenseTyp"/><code value="Abgabeinformationen"/></coding></type><whenHandedOver value="2025-03-28"/></MedicationDispense></resource></entry></Bundle>