{
  "resourceType": "Bundle",
  "id": "31703e89-0eab-41bb-bd87-3eb186a7c650",
  "type": "collection",
  "timestamp": "2025-03-28T08:09:23.633+00:00",
  "entry": [ {
    "fullUrl": "https://erp-ref.zentral.erp.splitdns.ti-dienste.de/ChargeItem/200.000.002.425.337.30",
    "resource": {
      "resourceType": "ChargeItem",
      "id": "200.000.002.425.337.30",
      "meta": {
        "profile": [ "https://gematik.de/fhir/erpchrg/StructureDefinition/GEM_ERPCHRG_PR_ChargeItem|1.0" ]
      },
      "identifier": [ {
        "system": "https://gematik.de/fhir/erp/NamingSystem/GEM_ERP_NS_AccessCode",
        "value": "a2afd8993104a92b117b1e6467929b07519df792d0ed5fc630cc8c6059b00146"
      }, {
        "system": "https://gematik.de/fhir/erp/NamingSystem/GEM_ERP_NS_PrescriptionId",
        "value": "200.000.002.425.337.30"
      } ],
      "status": "billable",
      "code": {
        "coding": [ {
          "system": "http://terminology.hl7.org/CodeSystem/data-absent-reason",
          "code": "not-applicable"
        } ]
      },
      "subject": {
        "identifier": {
          "system": "http://fhir.de/sid/pkv/kvid-10",
          "value": "X110645443"
        }
      },
      "enterer": {
        "identifier": {
          "system": "https://gematik.de/fhir/sid/telematik-id",
          "value": "3-SMC-B-Testkarte--883110000163973"
        }
      },
      "enteredDate": "2025-03-28T08:09:23.527+00:00",
      "supportingInformation": [ {
        "reference": "urn:uuid:c8f90125-0000-0000-0001-000000000000",
        "display": "https://fhir.kbv.de/StructureDefinition/KBV_PR_ERP_Bundle"
      }, {
        "reference": "urn:uuid:c8f90125-0000-0000-0004-000000000000",
        "display": "http://fhir.abda.de/eRezeptAbgabedaten/StructureDefinition/DAV-PKV-PR-ERP-AbgabedatenBundle"
      }, {
        "reference": "urn:uuid:c8f90125-0000-0000-0003-000000000000",
        "display": "https://gematik.de/fhir/erp/StructureDefinition/GEM_ERP_PR_Bundle"
      } ]
    }
  }, {
    "fullUrl": "urn:uuid:c8f90125-0000-0000-0004-000000000000",
    "resource": {
      "resourceType": "Bundle",
      "id": "ff3fc928-86af-49c1-8b62-137670f85600",
      "meta": {
        "lastUpdated": "2025-03-28T09:09:23.373+01:00",
        "profile": [ "http://fhir.abda.de/eRezeptAbgabedaten/StructureDefinition/DAV-PKV-PR-ERP-AbgabedatenBundle|1.3" ]
      },
      "identifier": {
        "system": "https://gematik.de/fhir/erp/NamingSystem/GEM_ERP_NS_PrescriptionId",
        "value": "200.000.002.425.337.30"
      },
      "type": "document",
      "timestamp": "2025-03-28T09:09:23.373+01:00",
      "entry": [ {
        "fullUrl": "urn:uuid:8616d63e-18c8-435f-b781-e31efa1b1bbf",
        "resource": {
          "resourceType": "Composition",
          "meta": {
            "profile": [ "http://fhir.abda.de/eRezeptAbgabedaten/StructureDefinition/DAV-PKV-PR-ERP-AbgabedatenComposition|1.3" ]
          },
          "status": "final",
          "type": {
            "coding": [ {
              "system": "http://fhir.abda.de/eRezeptAbgabedaten/CodeSystem/DAV-CS-ERP-CompositionTypes",
              "code": "ERezeptAbgabedaten"
            } ]
          },
          "date": "2025-03-28T09:09:23+01:00",
          "author": [ {
            "reference": "urn:uuid:b972c90d-8a02-4ed0-8757-ee86ae703c99"
          } ],
          "title": "ERezeptAbgabedaten",
          "section": [ {
            "title": "Apotheke",
            "entry": [ {
              "reference": "urn:uuid:b972c90d-8a02-4ed0-8757-ee86ae703c99"
            } ]
          }, {
            "title": "Abgabeinformationen",
            "entry": [ {
              "reference": "urn:uuid:37a14315-3e30-4a46-9e2a-a869bfdeb4cd"
            } ]
          } ]
        }
      }, {
        "fullUrl": "urn:uuid:b972c90d-8a02-4ed0-8757-ee86ae703c99",
        "resource": {
          "resourceType": "Organization",
          "meta": {
            "profile": [ "http://fhir.abda.de/eRezeptAbgabedaten/StructureDefinition/DAV-PKV-PR-ERP-Apotheke|1.3" ]
          },
          "identifier": [ {
            "system": "http://fhir.de/sid/arge-ik/iknr",
            "value": "817151064"
          } ],
          "name": "Apotheke Phil A. Mignon",
          "address": [ {
            "type": "physical",
            "line": [ "Theodor-Haubach-Str. 713" ],
            "_line": [ {
              "extension": [ {
                "url": "http://hl7.org/fhir/StructureDefinition/iso21090-ADXP-houseNumber",
                "valueString": "713"
              }, {
                "url": "http://hl7.org/fhir/StructureDefinition/iso21090-ADXP-streetName",
                "valueString": "Theodor-Haubach-Str."
              } ]
            } ],
            "city": "Taminoburg",
            "postalCode": "27572",
            "country": "WD"
          } ]
        }
      }, {
        "fullUrl": "urn:uuid:bae0b4b2-625c-4749-94ce-c3f8a478d19c",
        "resource": {
          "resourceType": "Invoice",
          "meta": {
            "profile": [ "http://fhir.abda.de/eRezeptAbgabedaten/StructureDefinition/DAV-PKV-PR-ERP-Abrechnungszeilen|1.3" ]
          },
          "status": "issued",
          "type": {
            "coding": [ {
              "system": "http://fhir.abda.de/eRezeptAbgabedaten/CodeSystem/DAV-CS-ERP-InvoiceTyp",
              "code": "Abrechnungszeilen"
            } ]
          },
          "lineItem": [ {
            "sequence": 1,
            "chargeItemCodeableConcept": {
              "coding": [ {
                "system": "http://fhir.de/CodeSystem/ifa/pzn",
                "code": "37199172"
              } ],
              "text": "Ciclopoli® Spray 250 mg"
            },
            "priceComponent": [ {
              "extension": [ {
                "url": "http://fhir.abda.de/eRezeptAbgabedaten/StructureDefinition/DAV-EX-ERP-KostenVersicherter",
                "extension": [ {
                  "url": "Kategorie",
                  "valueCodeableConcept": {
                    "coding": [ {
                      "system": "http://fhir.abda.de/eRezeptAbgabedaten/CodeSystem/DAV-PKV-CS-ERP-KostenVersicherterKategorie",
                      "code": "0"
                    } ]
                  }
                }, {
                  "url": "Kostenbetrag",
                  "valueMoney": {
                    "value": 114.92,
                    "currency": "EUR"
                  }
                } ]
              }, {
                "url": "http://fhir.abda.de/eRezeptAbgabedaten/StructureDefinition/DAV-EX-ERP-MwStSatz",
                "valueDecimal": 16.98
              } ],
              "type": "informational",
              "factor": 1,
              "amount": {
                "value": 122.34,
                "currency": "EUR"
              }
            } ]
          }, {
            "sequence": 2,
            "chargeItemCodeableConcept": {
              "coding": [ {
                "system": "http://fhir.de/CodeSystem/ifa/pzn",
                "code": "85112315"
              } ],
              "text": "ASS Dexcel® Protect Pulver"
            },
            "priceComponent": [ {
              "extension": [ {
                "url": "http://fhir.abda.de/eRezeptAbgabedaten/StructureDefinition/DAV-EX-ERP-KostenVersicherter",
                "extension": [ {
                  "url": "Kategorie",
                  "valueCodeableConcept": {
                    "coding": [ {
                      "system": "http://fhir.abda.de/eRezeptAbgabedaten/CodeSystem/DAV-PKV-CS-ERP-KostenVersicherterKategorie",
                      "code": "0"
                    } ]
                  }
                }, {
                  "url": "Kostenbetrag",
                  "valueMoney": {
                    "value": 91.27,
                    "currency": "EUR"
                  }
                } ]
              }, {
                "url": "http://fhir.abda.de/eRezeptAbgabedaten/StructureDefinition/DAV-EX-ERP-MwStSatz",
                "valueDecimal": 16.98
              } ],
              "type": "informational",
              "factor": 1,
              "amount": {
                "value": 268.94,
                "currency": "EUR"
              }
            } ]
          } ],
          "totalGross": {
            "extension": [ {
              "url": "http://fhir.abda.de/eRezeptAbgabedaten/StructureDefinition/DAV-EX-ERP-Gesamtzuzahlung",
              "valueMoney": {
                "value": 206.19,
                "currency": "EUR"
              }
            } ],
            "value": 391.28,
            "currency": "EUR"
          }
        }
      }, {
        "fullUrl": "urn:uuid:37a14315-3e30-4a46-9e2a-a869bfdeb4cd",
        "resource": {
          "resourceType": "MedicationDispense",
          "meta": {
            "profile": [ "http://fhir.abda.de/eRezeptAbgabedaten/StructureDefinition/DAV-PKV-PR-ERP-Abgabeinformationen|1.3" ]
          },
          "extension": [ {
            "url": "http://fhir.abda.de/eRezeptAbgabedaten/StructureDefinition/DAV-PKV-EX-ERP-AbrechnungsTyp",
            "valueCodeableConcept": {
              "coding": [ {
                "system": "http://fhir.abda.de/eRezeptAbgabedaten/CodeSystem/DAV-PKV-CS-ERP-AbrechnungsTyp",
                "code": "1"
              } ]
            }
          }, {
            "url": "http://fhir.abda.de/eRezeptAbgabedaten/StructureDefinition/DAV-EX-ERP-Abrechnungszeilen",
            "valueReference": {
              "reference": "urn:uuid:bae0b4b2-625c-4749-94ce-c3f8a478d19c"
            }
          } ],
          "status": "completed",
          "medicationCodeableConcept": {
            "coding": [ {
              "system": "http://terminology.hl7.org/CodeSystem/data-absent-reason",
              "code": "not-applicable"
            } ]
          },
          "performer": [ {
            "actor": {
              "reference": "urn:uuid:b972c90d-8a02-4ed0-8757-ee86ae703c99"
            }
          } ],
          "authorizingPrescription": [ {
            "identifier": {
              "system": "https://gematik.de/fhir/erp/NamingSystem/GEM_ERP_NS_PrescriptionId",
              "value": "200.000.002.425.337.30"
            }
          } ],
          "type": {
            "coding": [ {
              "system": "http://fhir.abda.de/eRezeptAbgabedaten/CodeSystem/DAV-CS-ERP-MedicationDispenseTyp",
              "code": "Abgabeinformationen"
            } ]
          },
          "whenHandedOver": "2025-03-28"
        }
      } ],
      "signature": {
        "type": [ {
          "system": "urn:iso-astm:E1762-95:2013",
          "code": "1.2.840.10065.1.12.1.1"
        } ],
        "when": "2025-03-28T08:09:23.675+00:00",
        "who": {
          "reference": "https://erp-ref.zentral.erp.splitdns.ti-dienste.de/Device/1"
        },
        "sigFormat": "application/pkcs7-mime",
        "data": ""
      }
    }
  }, {
    "fullUrl": "urn:uuid:c8f90125-0000-0000-0001-000000000000",
    "resource": {
      "resourceType": "Bundle",
      "id": "df9c613f-21b0-426e-9127-1aa808c79925",
      "meta": {
        "profile": [ "https://fhir.kbv.de/StructureDefinition/KBV_PR_ERP_Bundle|1.1.0" ]
      },
      "identifier": {
        "system": "https://gematik.de/fhir/erp/NamingSystem/GEM_ERP_NS_PrescriptionId",
        "value": "200.000.002.425.337.30"
      },
      "type": "document",
      "timestamp": "2025-03-28T09:09:22.267+01:00",
      "entry": [ {
        "fullUrl": "https://pvs.gematik.de/fhir/Composition/796ea519-8a66-4a1f-b164-ae816c3b756f",
        "resource": {
          "resourceType": "Composition",
          "id": "796ea519-8a66-4a1f-b164-ae816c3b756f",
          "meta": {
            "profile": [ "https://fhir.kbv.de/StructureDefinition/KBV_PR_ERP_Composition|1.1.0" ]
          },
          "extension": [ {
            "url": "https://fhir.kbv.de/StructureDefinition/KBV_EX_FOR_Legal_basis",
            "valueCoding": {
              "system": "https://fhir.kbv.de/CodeSystem/KBV_CS_SFHIR_KBV_STATUSKENNZEICHEN",
              "code": "00"
            }
          } ],
          "status": "final",
          "type": {
            "coding": [ {
              "system": "https://fhir.kbv.de/CodeSystem/KBV_CS_SFHIR_KBV_FORMULAR_ART",
              "code": "e16A"
            } ]
          },
          "subject": {
            "reference": "Patient/0e32e645-5b7c-4aa7-963c-29a8e2e0383b"
          },
          "date": "2025-03-28T09:09:22+01:00",
          "author": [ {
            "type": "Device",
            "identifier": {
              "system": "https://fhir.kbv.de/NamingSystem/KBV_NS_FOR_Pruefnummer",
              "value": "GEMATIK/410/2109/36/123"
            }
          }, {
            "reference": "Practitioner/cec43ebb-b92d-4412-98de-2219e90d4fee",
            "type": "Practitioner"
          } ],
          "title": "elektronische Arzneimittelverordnung",
          "custodian": {
            "reference": "Organization/ae4caf2a-506c-4d76-8ef0-4ccb86eafda9"
          },
          "section": [ {
            "code": {
              "coding": [ {
                "system": "https://fhir.kbv.de/CodeSystem/KBV_CS_ERP_Section_Type",
                "code": "Coverage"
              } ]
            },
            "entry": [ {
              "reference": "Coverage/6e39ad74-90b7-4baa-b7d7-cf4218a44793"
            } ]
          }, {
            "code": {
              "coding": [ {
                "system": "https://fhir.kbv.de/CodeSystem/KBV_CS_ERP_Section_Type",
                "code": "Prescription"
              } ]
            },
            "entry": [ {
              "reference": "MedicationRequest/484b0ea8-b5bc-4001-9702-290728183823"
            } ]
          } ]
        }
      }, {
        "fullUrl": "https://pvs.gematik.de/fhir/Coverage/6e39ad74-90b7-4baa-b7d7-cf4218a44793",
        "resource": {
          "resourceType": "Coverage",
          "id": "6e39ad74-90b7-4baa-b7d7-cf4218a44793",
          "meta": {
            "profile": [ "https://fhir.kbv.de/StructureDefinition/KBV_PR_FOR_Coverage|1.1.0" ]
          },
          "extension": [ {
            "url": "http://fhir.de/StructureDefinition/gkv/besondere-personengruppe",
            "valueCoding": {
              "system": "https://fhir.kbv.de/CodeSystem/KBV_CS_SFHIR_KBV_PERSONENGRUPPE",
              "code": "00"
            }
          }, {
            "url": "http://fhir.de/StructureDefinition/gkv/dmp-kennzeichen",
            "valueCoding": {
              "system": "https://fhir.kbv.de/CodeSystem/KBV_CS_SFHIR_KBV_DMP",
              "code": "00"
            }
          }, {
            "url": "http://fhir.de/StructureDefinition/gkv/wop",
            "valueCoding": {
              "system": "https://fhir.kbv.de/CodeSystem/KBV_CS_SFHIR_ITA_WOP",
              "code": "55"
            }
          }, {
            "url": "http://fhir.de/StructureDefinition/gkv/versichertenart",
            "valueCoding": {
              "system": "https://fhir.kbv.de/CodeSystem/KBV_CS_SFHIR_KBV_VERSICHERTENSTATUS",
              "code": "1"
            }
          } ],
          "status": "active",
          "type": {
            "coding": [ {
              "system": "http://fhir.de/CodeSystem/versicherungsart-de-basis",
              "code": "PKV"
            } ]
          },
          "beneficiary": {
            "reference": "Patient/8f973346-f591-4d28-a9dc-ae1fc04c221c"
          },
          "payor": [ {
            "identifier": {
              "system": "http://fhir.de/sid/arge-ik/iknr",
              "value": "168140017"
            },
            "display": "Continentale"
          } ]
        }
      }, {
        "fullUrl": "https://pvs.gematik.de/fhir/Patient/0e32e645-5b7c-4aa7-963c-29a8e2e0383b",
        "resource": {
          "resourceType": "Patient",
          "id": "0e32e645-5b7c-4aa7-963c-29a8e2e0383b",
          "meta": {
            "profile": [ "https://fhir.kbv.de/StructureDefinition/KBV_PR_FOR_Patient|1.1.0" ]
          },
          "identifier": [ {
            "type": {
              "coding": [ {
                "system": "http://fhir.de/CodeSystem/identifier-type-de-basis",
                "code": "PKV"
              } ]
            },
            "system": "http://fhir.de/sid/pkv/kvid-10",
            "value": "X110645443"
          } ],
          "name": [ {
            "use": "official",
            "family": "Angermänn",
            "_family": {
              "extension": [ {
                "url": "http://hl7.org/fhir/StructureDefinition/humanname-own-name",
                "valueString": "Angermänn"
              } ]
            },
            "given": [ "Günther" ]
          } ],
          "birthDate": "1992-06-05",
          "address": [ {
            "type": "both",
            "line": [ "Miselohestr. 58b" ],
            "_line": [ {
              "extension": [ {
                "url": "http://hl7.org/fhir/StructureDefinition/iso21090-ADXP-houseNumber",
                "valueString": "58b"
              }, {
                "url": "http://hl7.org/fhir/StructureDefinition/iso21090-ADXP-streetName",
                "valueString": "Miselohestr."
              } ]
            } ],
            "city": "Bad Peer",
            "postalCode": "50348",
            "country": "D"
          } ]
        }
      }, {
        "fullUrl": "https://pvs.gematik.de/fhir/Practitioner/cec43ebb-b92d-4412-98de-2219e90d4fee",
        "resource": {
          "resourceType": "Practitioner",
          "id": "cec43ebb-b92d-4412-98de-2219e90d4fee",
          "meta": {
            "profile": [ "https://fhir.kbv.de/StructureDefinition/KBV_PR_FOR_Practitioner|1.1.0" ]
          },
          "identifier": [ {
            "type": {
              "coding": [ {
                "system": "http://terminology.hl7.org/CodeSystem/v2-0203",
                "code": "LANR"
              } ]
            },
            "system": "https://fhir.kbv.de/NamingSystem/KBV_NS_Base_ANR",
            "value": "452907779"
          } ],
          "name": [ {
            "use": "official",
            "family": "Schraßer",
            "_family": {
              "extension": [ {
                "url": "http://hl7.org/fhir/StructureDefinition/humanname-own-name",
                "valueString": "Schraßer"
              } ]
            },
            "given": [ "Dr." ],
            "prefix": [ "Dr." ],
            "_prefix": [ {
              "extension": [ {
                "url": "http://hl7.org/fhir/StructureDefinition/iso21090-EN-qualifier",
                "valueCode": "AC"
              } ]
            } ]
          } ],
          "qualification": [ {
            "code": {
              "coding": [ {
                "system": "https://fhir.kbv.de/CodeSystem/KBV_CS_FOR_Qualification_Type",
                "code": "00"
              } ]
            }
          }, {
            "code": {
              "coding": [ {
                "system": "https://fhir.kbv.de/CodeSystem/KBV_CS_FOR_Berufsbezeichnung",
                "code": "Berufsbezeichnung"
              } ],
              "text": "Super-Facharzt für alles Mögliche"
            }
          } ]
        }
      }, {
        "fullUrl": "https://pvs.gematik.de/fhir/Organization/ae4caf2a-506c-4d76-8ef0-4ccb86eafda9",
        "resource": {
          "resourceType": "Organization",
          "id": "ae4caf2a-506c-4d76-8ef0-4ccb86eafda9",
          "meta": {
            "profile": [ "https://fhir.kbv.de/StructureDefinition/KBV_PR_FOR_Organization|1.1.0" ]
          },
          "identifier": [ {
            "type": {
              "coding": [ {
                "system": "http://terminology.hl7.org/CodeSystem/v2-0203",
                "code": "BSNR"
              } ]
            },
            "system": "https://fhir.kbv.de/NamingSystem/KBV_NS_Base_BSNR",
            "value": "713258569"
          } ],
          "name": "Arztpraxis Schraßer",
          "telecom": [ {
            "system": "phone",
            "value": "(05850) 4502919"
          }, {
            "system": "email",
            "value": "lucia.wiebe@keil.de"
          } ],
          "address": [ {
            "type": "both",
            "line": [ "Karl-Marx-Str. 3" ],
            "_line": [ {
              "extension": [ {
                "url": "http://hl7.org/fhir/StructureDefinition/iso21090-ADXP-houseNumber",
                "valueString": "3"
              }, {
                "url": "http://hl7.org/fhir/StructureDefinition/iso21090-ADXP-streetName",
                "valueString": "Karl-Marx-Str."
              } ]
            } ],
            "city": "Diezelstadt",
            "postalCode": "39594",
            "country": "D"
          } ]
        }
      }, {
        "fullUrl": "https://pvs.gematik.de/fhir/Medication/a1f63f9a-3681-44e9-9a31-652f7b65548c",
        "resource": {
          "resourceType": "Medication",
          "id": "a1f63f9a-3681-44e9-9a31-652f7b65548c",
          "meta": {
            "profile": [ "https://fhir.kbv.de/StructureDefinition/KBV_PR_ERP_Medication_PZN|1.1.0" ]
          },
          "extension": [ {
            "url": "https://fhir.kbv.de/StructureDefinition/KBV_EX_Base_Medication_Type",
            "valueCodeableConcept": {
              "coding": [ {
                "system": "http://snomed.info/sct",
                "version": "http://snomed.info/sct/900000000000207008/version/20220331",
                "code": "763158003",
                "display": "Medicinal product (product)"
              } ]
            }
          }, {
            "url": "https://fhir.kbv.de/StructureDefinition/KBV_EX_ERP_Medication_Category",
            "valueCoding": {
              "system": "https://fhir.kbv.de/CodeSystem/KBV_CS_ERP_Medication_Category",
              "code": "00"
            }
          }, {
            "url": "https://fhir.kbv.de/StructureDefinition/KBV_EX_ERP_Medication_Vaccine",
            "valueBoolean": false
          }, {
            "url": "http://fhir.de/StructureDefinition/normgroesse",
            "valueCode": "NB"
          } ],
          "code": {
            "coding": [ {
              "system": "http://fhir.de/CodeSystem/ifa/pzn",
              "code": "13935347"
            } ],
            "text": "Schmerzmittel"
          },
          "form": {
            "coding": [ {
              "system": "https://fhir.kbv.de/CodeSystem/KBV_CS_SFHIR_KBV_DARREICHUNGSFORM",
              "code": "TAB"
            } ]
          },
          "amount": {
            "numerator": {
              "extension": [ {
                "url": "https://fhir.kbv.de/StructureDefinition/KBV_EX_ERP_Medication_PackagingSize",
                "valueString": "1"
              } ],
              "unit": "Stk"
            },
            "denominator": {
              "value": 1
            }
          }
        }
      }, {
        "fullUrl": "https://pvs.gematik.de/fhir/MedicationRequest/484b0ea8-b5bc-4001-9702-290728183823",
        "resource": {
          "resourceType": "MedicationRequest",
          "id": "484b0ea8-b5bc-4001-9702-290728183823",
          "meta": {
            "profile": [ "https://fhir.kbv.de/StructureDefinition/KBV_PR_ERP_Prescription|1.1.0" ]
          },
          "extension": [ {
            "url": "https://fhir.kbv.de/StructureDefinition/KBV_EX_ERP_BVG",
            "valueBoolean": false
          }, {
            "url": "https://fhir.kbv.de/StructureDefinition/KBV_EX_ERP_EmergencyServicesFee",
            "valueBoolean": false
          }, {
            "url": "https://fhir.kbv.de/StructureDefinition/KBV_EX_ERP_Multiple_Prescription",
            "extension": [ {
              "url": "Kennzeichen",
              "valueBoolean": false
            } ]
          }, {
            "url": "https://fhir.kbv.de/StructureDefinition/KBV_EX_FOR_StatusCoPayment",
            "valueCoding": {
              "system": "https://fhir.kbv.de/CodeSystem/KBV_CS_FOR_StatusCoPayment",
              "code": "1"
            }
          } ],
          "status": "active",
          "intent": "order",
          "medicationReference": {
            "reference": "Medication/a1f63f9a-3681-44e9-9a31-652f7b65548c"
          },
          "subject": {
            "reference": "Patient/0e32e645-5b7c-4aa7-963c-29a8e2e0383b"
          },
          "authoredOn": "2025-03-28",
          "requester": {
            "reference": "Practitioner/cec43ebb-b92d-4412-98de-2219e90d4fee"
          },
          "insurance": [ {
            "reference": "Coverage/6e39ad74-90b7-4baa-b7d7-cf4218a44793"
          } ],
          "dosageInstruction": [ {
            "extension": [ {
              "url": "https://fhir.kbv.de/StructureDefinition/KBV_EX_ERP_DosageFlag",
              "valueBoolean": true
            } ],
            "text": "2-3-1-1-0-0-2"
          } ],
          "dispenseRequest": {
            "quantity": {
              "value": 1,
              "system": "http://unitsofmeasure.org",
              "code": "{Package}"
            }
          },
          "substitution": {
            "allowedBoolean": false
          }
        }
      } ],
      "signature": {
        "type": [ {
          "system": "urn:iso-astm:E1762-95:2013",
          "code": "1.2.840.10065.1.12.1.1"
        } ],
        "when": "2025-03-28T08:09:23.669+00:00",
        "who": {
          "reference": "https://erp-ref.zentral.erp.splitdns.ti-dienste.de/Device/1"
        },
        "sigFormat": "application/pkcs7-mime",
        "data": ""
      }
    }
  }, {
    "fullUrl": "urn:uuid:c8f90125-0000-0000-0003-000000000000",
    "resource": {
      "resourceType": "Bundle",
      "id": "c8f90125-0000-0000-0003-000000000000",
      "meta": {
        "profile": [ "https://gematik.de/fhir/erp/StructureDefinition/GEM_ERP_PR_Bundle|1.4" ]
      },
      "identifier": {
        "system": "https://gematik.de/fhir/erp/NamingSystem/GEM_ERP_NS_PrescriptionId",
        "value": "200.000.002.425.337.30"
      },
      "type": "document",
      "timestamp": "2025-03-28T08:09:23.168+00:00",
      "link": [ {
        "relation": "self",
        "url": "https://erp-ref.zentral.erp.splitdns.ti-dienste.de/Task/200.000.002.425.337.30/$close/"
      } ],
      "entry": [ {
        "fullUrl": "urn:uuid:04291871-4874-48ab-a7ed-75d492cdb0d4",
        "resource": {
          "resourceType": "Composition",
          "id": "04291871-4874-48ab-a7ed-75d492cdb0d4",
          "meta": {
            "profile": [ "https://gematik.de/fhir/erp/StructureDefinition/GEM_ERP_PR_Composition|1.4" ]
          },
          "extension": [ {
            "url": "https://gematik.de/fhir/erp/StructureDefinition/GEM_ERP_EX_Beneficiary",
            "valueIdentifier": {
              "system": "https://gematik.de/fhir/sid/telematik-id",
              "value": "3-SMC-B-Testkarte--883110000163973"
            }
          } ],
          "status": "final",
          "type": {
            "coding": [ {
              "system": "https://gematik.de/fhir/erp/CodeSystem/GEM_ERP_CS_DocumentType",
              "code": "3",
              "display": "Receipt"
            } ]
          },
          "date": "2025-03-28T08:09:23.163+00:00",
          "author": [ {
            "reference": "urn:uuid:8fc2c3a6-8dcb-472c-bbd9-f1945887ff23"
          } ],
          "title": "Quittung",
          "event": [ {
            "period": {
              "start": "2025-03-28T08:09:22.825+00:00",
              "end": "2025-03-28T08:09:23.163+00:00"
            }
          } ],
          "section": [ {
            "entry": [ {
              "reference": "urn:uuid:8f98f688-23c2-4bbf-b48b-ac11d24da553"
            } ]
          } ]
        }
      }, {
        "fullUrl": "urn:uuid:8fc2c3a6-8dcb-472c-bbd9-f1945887ff23",
        "resource": {
          "resourceType": "Device",
          "id": "1",
          "meta": {
            "profile": [ "https://gematik.de/fhir/erp/StructureDefinition/GEM_ERP_PR_Device|1.4" ]
          },
          "status": "active",
          "serialNumber": "1.17.0",
          "deviceName": [ {
            "name": "E-Rezept Fachdienst",
            "type": "user-friendly-name"
          } ],
          "version": [ {
            "value": "1.17.0"
          } ],
          "contact": [ {
            "system": "email",
            "value": "betrieb@gematik.de"
          } ]
        }
      }, {
        "fullUrl": "urn:uuid:8f98f688-23c2-4bbf-b48b-ac11d24da553",
        "resource": {
          "resourceType": "Binary",
          "id": "8f98f688-23c2-4bbf-b48b-ac11d24da553",
          "meta": {
            "versionId": "1",
            "profile": [ "https://gematik.de/fhir/erp/StructureDefinition/GEM_ERP_PR_Digest|1.4" ]
          },
          "contentType": "application/octet-stream",
          "data": "XaXZ4FPzCns+hM4w9loyGPIjRddSufpflKJSqHUXGRI="
        }
      } ],
      "signature": {
        "type": [ {
          "system": "urn:iso-astm:E1762-95:2013",
          "code": "1.2.840.10065.1.12.1.1"
        } ],
        "when": "2025-03-28T08:09:23.672+00:00",
        "who": {
          "reference": "https://erp-ref.zentral.erp.splitdns.ti-dienste.de/Device/1"
        },
        "sigFormat": "application/pkcs7-mime",
        "data": ""
      }
    }
  } ]
}