<Bundle xmlns="http://hl7.org/fhir">
   <id value="8b8f64ea-d5b4-4548-87df-c52ba53f75f7"/>
   <type value="collection"/>
   <timestamp value="2025-03-28T08:09:24.468+00:00"/>
   <entry>
      <fullUrl value="https://erp-ref.zentral.erp.splitdns.ti-dienste.de/ChargeItem/200.000.002.425.337.30"/>
      <resource>
         <ChargeItem xmlns="http://hl7.org/fhir">
            <id value="200.000.002.425.337.30"/>
            <meta>
               <profile value="https://gematik.de/fhir/erpchrg/StructureDefinition/GEM_ERPCHRG_PR_ChargeItem|1.0"/>
            </meta>
            <identifier>
               <system value="https://gematik.de/fhir/erp/NamingSystem/GEM_ERP_NS_PrescriptionId"/>
               <value value="200.000.002.425.337.30"/>
            </identifier>
            <status value="billable"/>
            <code>
               <coding>
                  <system value="http://terminology.hl7.org/CodeSystem/data-absent-reason"/>
                  <code value="not-applicable"/>
               </coding>
            </code>
            <subject>
               <identifier>
                  <system value="http://fhir.de/sid/pkv/kvid-10"/>
                  <value value="X110645443"/>
               </identifier>
            </subject>
            <enterer>
               <identifier>
                  <system value="https://gematik.de/fhir/sid/telematik-id"/>
                  <value value="3-SMC-B-Testkarte--883110000163973"/>
               </identifier>
            </enterer>
            <enteredDate value="2025-03-28T08:09:23.527+00:00"/>
            <supportingInformation>
               <reference value="urn:uuid:c8f90125-0000-0000-0001-000000000000"/>
               <display value="https://fhir.kbv.de/StructureDefinition/KBV_PR_ERP_Bundle"/>
            </supportingInformation>
            <supportingInformation>
               <reference value="urn:uuid:c8f90125-0000-0000-0004-000000000000"/>
               <display value="http://fhir.abda.de/eRezeptAbgabedaten/StructureDefinition/DAV-PKV-PR-ERP-AbgabedatenBundle"/>
            </supportingInformation>
            <supportingInformation>
               <reference value="urn:uuid:c8f90125-0000-0000-0003-000000000000"/>
               <display value="https://gematik.de/fhir/erp/StructureDefinition/GEM_ERP_PR_Bundle"/>
            </supportingInformation>
         </ChargeItem>
      </resource>
   </entry>
   <entry>
      <fullUrl value="urn:uuid:c8f90125-0000-0000-0001-000000000000"/>
      <resource>
         <Bundle xmlns="http://hl7.org/fhir">
            <id value="df9c613f-21b0-426e-9127-1aa808c79925"/>
            <meta>
               <profile value="https://fhir.kbv.de/StructureDefinition/KBV_PR_ERP_Bundle|1.1.0"/>
            </meta>
            <identifier>
               <system value="https://gematik.de/fhir/erp/NamingSystem/GEM_ERP_NS_PrescriptionId"/>
               <value value="200.000.002.425.337.30"/>
            </identifier>
            <type value="document"/>
            <timestamp value="2025-03-28T09:09:22.267+01:00"/>
            <entry>
               <fullUrl value="https://pvs.gematik.de/fhir/Composition/796ea519-8a66-4a1f-b164-ae816c3b756f"/>
               <resource>
                  <Composition xmlns="http://hl7.org/fhir">
                     <id value="796ea519-8a66-4a1f-b164-ae816c3b756f"/>
                     <meta>
                        <profile value="https://fhir.kbv.de/StructureDefinition/KBV_PR_ERP_Composition|1.1.0"/>
                     </meta>
                     <extension url="https://fhir.kbv.de/StructureDefinition/KBV_EX_FOR_Legal_basis">
                        <valueCoding>
                           <system value="https://fhir.kbv.de/CodeSystem/KBV_CS_SFHIR_KBV_STATUSKENNZEICHEN"/>
                           <code value="00"/>
                        </valueCoding>
                     </extension>
                     <status value="final"/>
                     <type>
                        <coding>
                           <system value="https://fhir.kbv.de/CodeSystem/KBV_CS_SFHIR_KBV_FORMULAR_ART"/>
                           <code value="e16A"/>
                        </coding>
                     </type>
                     <subject>
                        <reference value="Patient/0e32e645-5b7c-4aa7-963c-29a8e2e0383b"/>
                     </subject>
                     <date value="2025-03-28T09:09:22+01:00"/>
                     <author>
                        <type value="Device"/>
                        <identifier>
                           <system value="https://fhir.kbv.de/NamingSystem/KBV_NS_FOR_Pruefnummer"/>
                           <value value="GEMATIK/410/2109/36/123"/>
                        </identifier>
                     </author>
                     <author>
                        <reference value="Practitioner/cec43ebb-b92d-4412-98de-2219e90d4fee"/>
                        <type value="Practitioner"/>
                     </author>
                     <title value="elektronische Arzneimittelverordnung"/>
                     <custodian>
                        <reference value="Organization/ae4caf2a-506c-4d76-8ef0-4ccb86eafda9"/>
                     </custodian>
                     <section>
                        <code>
                           <coding>
                              <system value="https://fhir.kbv.de/CodeSystem/KBV_CS_ERP_Section_Type"/>
                              <code value="Coverage"/>
                           </coding>
                        </code>
                        <entry>
                           <reference value="Coverage/6e39ad74-90b7-4baa-b7d7-cf4218a44793"/>
                        </entry>
                     </section>
                     <section>
                        <code>
                           <coding>
                              <system value="https://fhir.kbv.de/CodeSystem/KBV_CS_ERP_Section_Type"/>
                              <code value="Prescription"/>
                           </coding>
                        </code>
                        <entry>
                           <reference value="MedicationRequest/484b0ea8-b5bc-4001-9702-290728183823"/>
                        </entry>
                     </section>
                  </Composition>
               </resource>
            </entry>
            <entry>
               <fullUrl value="https://pvs.gematik.de/fhir/Coverage/6e39ad74-90b7-4baa-b7d7-cf4218a44793"/>
               <resource>
                  <Coverage xmlns="http://hl7.org/fhir">
                     <id value="6e39ad74-90b7-4baa-b7d7-cf4218a44793"/>
                     <meta>
                        <profile value="https://fhir.kbv.de/StructureDefinition/KBV_PR_FOR_Coverage|1.1.0"/>
                     </meta>
                     <extension url="http://fhir.de/StructureDefinition/gkv/besondere-personengruppe">
                        <valueCoding>
                           <system value="https://fhir.kbv.de/CodeSystem/KBV_CS_SFHIR_KBV_PERSONENGRUPPE"/>
                           <code value="00"/>
                        </valueCoding>
                     </extension>
                     <extension url="http://fhir.de/StructureDefinition/gkv/dmp-kennzeichen">
                        <valueCoding>
                           <system value="https://fhir.kbv.de/CodeSystem/KBV_CS_SFHIR_KBV_DMP"/>
                           <code value="00"/>
                        </valueCoding>
                     </extension>
                     <extension url="http://fhir.de/StructureDefinition/gkv/wop">
                        <valueCoding>
                           <system value="https://fhir.kbv.de/CodeSystem/KBV_CS_SFHIR_ITA_WOP"/>
                           <code value="55"/>
                        </valueCoding>
                     </extension>
                     <extension url="http://fhir.de/StructureDefinition/gkv/versichertenart">
                        <valueCoding>
                           <system value="https://fhir.kbv.de/CodeSystem/KBV_CS_SFHIR_KBV_VERSICHERTENSTATUS"/>
                           <code value="1"/>
                        </valueCoding>
                     </extension>
                     <status value="active"/>
                     <type>
                        <coding>
                           <system value="http://fhir.de/CodeSystem/versicherungsart-de-basis"/>
                           <code value="PKV"/>
                        </coding>
                     </type>
                     <beneficiary>
                        <reference value="Patient/8f973346-f591-4d28-a9dc-ae1fc04c221c"/>
                     </beneficiary>
                     <payor>
                        <identifier>
                           <system value="http://fhir.de/sid/arge-ik/iknr"/>
                           <value value="168140017"/>
                        </identifier>
                        <display value="Continentale"/>
                     </payor>
                  </Coverage>
               </resource>
            </entry>
            <entry>
               <fullUrl value="https://pvs.gematik.de/fhir/Patient/0e32e645-5b7c-4aa7-963c-29a8e2e0383b"/>
               <resource>
                  <Patient xmlns="http://hl7.org/fhir">
                     <id value="0e32e645-5b7c-4aa7-963c-29a8e2e0383b"/>
                     <meta>
                        <profile value="https://fhir.kbv.de/StructureDefinition/KBV_PR_FOR_Patient|1.1.0"/>
                     </meta>
                     <identifier>
                        <type>
                           <coding>
                              <system value="http://fhir.de/CodeSystem/identifier-type-de-basis"/>
                              <code value="PKV"/>
                           </coding>
                        </type>
                        <system value="http://fhir.de/sid/pkv/kvid-10"/>
                        <value value="X110645443"/>
                     </identifier>
                     <name>
                        <use value="official"/>
                        <family value="Angermänn">
                           <extension url="http://hl7.org/fhir/StructureDefinition/humanname-own-name">
                              <valueString value="Angermänn"/>
                           </extension>
                        </family>
                        <given value="Günther"/>
                     </name>
                     <birthDate value="1992-06-05"/>
                     <address>
                        <type value="both"/>
                        <line value="Miselohestr. 58b">
                           <extension url="http://hl7.org/fhir/StructureDefinition/iso21090-ADXP-houseNumber">
                              <valueString value="58b"/>
                           </extension>
                           <extension url="http://hl7.org/fhir/StructureDefinition/iso21090-ADXP-streetName">
                              <valueString value="Miselohestr."/>
                           </extension>
                        </line>
                        <city value="Bad Peer"/>
                        <postalCode value="50348"/>
                        <country value="D"/>
                     </address>
                  </Patient>
               </resource>
            </entry>
            <entry>
               <fullUrl value="https://pvs.gematik.de/fhir/Practitioner/cec43ebb-b92d-4412-98de-2219e90d4fee"/>
               <resource>
                  <Practitioner xmlns="http://hl7.org/fhir">
                     <id value="cec43ebb-b92d-4412-98de-2219e90d4fee"/>
                     <meta>
                        <profile value="https://fhir.kbv.de/StructureDefinition/KBV_PR_FOR_Practitioner|1.1.0"/>
                     </meta>
                     <identifier>
                        <type>
                           <coding>
                              <system value="http://terminology.hl7.org/CodeSystem/v2-0203"/>
                              <code value="LANR"/>
                           </coding>
                        </type>
                        <system value="https://fhir.kbv.de/NamingSystem/KBV_NS_Base_ANR"/>
                        <value value="452907779"/>
                     </identifier>
                     <name>
                        <use value="official"/>
                        <family value="Schraßer">
                           <extension url="http://hl7.org/fhir/StructureDefinition/humanname-own-name">
                              <valueString value="Schraßer"/>
                           </extension>
                        </family>
                        <given value="Dr."/>
                        <prefix value="Dr.">
                           <extension url="http://hl7.org/fhir/StructureDefinition/iso21090-EN-qualifier">
                              <valueCode value="AC"/>
                           </extension>
                        </prefix>
                     </name>
                     <qualification>
                        <code>
                           <coding>
                              <system value="https://fhir.kbv.de/CodeSystem/KBV_CS_FOR_Qualification_Type"/>
                              <code value="00"/>
                           </coding>
                        </code>
                     </qualification>
                     <qualification>
                        <code>
                           <coding>
                              <system value="https://fhir.kbv.de/CodeSystem/KBV_CS_FOR_Berufsbezeichnung"/>
                              <code value="Berufsbezeichnung"/>
                           </coding>
                           <text value="Super-Facharzt für alles Mögliche"/>
                        </code>
                     </qualification>
                  </Practitioner>
               </resource>
            </entry>
            <entry>
               <fullUrl value="https://pvs.gematik.de/fhir/Organization/ae4caf2a-506c-4d76-8ef0-4ccb86eafda9"/>
               <resource>
                  <Organization xmlns="http://hl7.org/fhir">
                     <id value="ae4caf2a-506c-4d76-8ef0-4ccb86eafda9"/>
                     <meta>
                        <profile value="https://fhir.kbv.de/StructureDefinition/KBV_PR_FOR_Organization|1.1.0"/>
                     </meta>
                     <identifier>
                        <type>
                           <coding>
                              <system value="http://terminology.hl7.org/CodeSystem/v2-0203"/>
                              <code value="BSNR"/>
                           </coding>
                        </type>
                        <system value="https://fhir.kbv.de/NamingSystem/KBV_NS_Base_BSNR"/>
                        <value value="713258569"/>
                     </identifier>
                     <name value="Arztpraxis Schraßer"/>
                     <telecom>
                        <system value="phone"/>
                        <value value="(05850) 4502919"/>
                     </telecom>
                     <telecom>
                        <system value="email"/>
                        <value value="lucia.wiebe@keil.de"/>
                     </telecom>
                     <address>
                        <type value="both"/>
                        <line value="Karl-Marx-Str. 3">
                           <extension url="http://hl7.org/fhir/StructureDefinition/iso21090-ADXP-houseNumber">
                              <valueString value="3"/>
                           </extension>
                           <extension url="http://hl7.org/fhir/StructureDefinition/iso21090-ADXP-streetName">
                              <valueString value="Karl-Marx-Str."/>
                           </extension>
                        </line>
                        <city value="Diezelstadt"/>
                        <postalCode value="39594"/>
                        <country value="D"/>
                     </address>
                  </Organization>
               </resource>
            </entry>
            <entry>
               <fullUrl value="https://pvs.gematik.de/fhir/Medication/a1f63f9a-3681-44e9-9a31-652f7b65548c"/>
               <resource>
                  <Medication xmlns="http://hl7.org/fhir">
                     <id value="a1f63f9a-3681-44e9-9a31-652f7b65548c"/>
                     <meta>
                        <profile value="https://fhir.kbv.de/StructureDefinition/KBV_PR_ERP_Medication_PZN|1.1.0"/>
                     </meta>
                     <extension url="https://fhir.kbv.de/StructureDefinition/KBV_EX_Base_Medication_Type">
                        <valueCodeableConcept>
                           <coding>
                              <system value="http://snomed.info/sct"/>
                              <version value="http://snomed.info/sct/900000000000207008/version/20220331"/>
                              <code value="763158003"/>
                              <display value="Medicinal product (product)"/>
                           </coding>
                        </valueCodeableConcept>
                     </extension>
                     <extension url="https://fhir.kbv.de/StructureDefinition/KBV_EX_ERP_Medication_Category">
                        <valueCoding>
                           <system value="https://fhir.kbv.de/CodeSystem/KBV_CS_ERP_Medication_Category"/>
                           <code value="00"/>
                        </valueCoding>
                     </extension>
                     <extension url="https://fhir.kbv.de/StructureDefinition/KBV_EX_ERP_Medication_Vaccine">
                        <valueBoolean value="false"/>
                     </extension>
                     <extension url="http://fhir.de/StructureDefinition/normgroesse">
                        <valueCode value="NB"/>
                     </extension>
                     <code>
                        <coding>
                           <system value="http://fhir.de/CodeSystem/ifa/pzn"/>
                           <code value="13935347"/>
                        </coding>
                        <text value="Schmerzmittel"/>
                     </code>
                     <form>
                        <coding>
                           <system value="https://fhir.kbv.de/CodeSystem/KBV_CS_SFHIR_KBV_DARREICHUNGSFORM"/>
                           <code value="TAB"/>
                        </coding>
                     </form>
                     <amount>
                        <numerator>
                           <extension url="https://fhir.kbv.de/StructureDefinition/KBV_EX_ERP_Medication_PackagingSize">
                              <valueString value="1"/>
                           </extension>
                           <unit value="Stk"/>
                        </numerator>
                        <denominator>
                           <value value="1"/>
                        </denominator>
                     </amount>
                  </Medication>
               </resource>
            </entry>
            <entry>
               <fullUrl value="https://pvs.gematik.de/fhir/MedicationRequest/484b0ea8-b5bc-4001-9702-290728183823"/>
               <resource>
                  <MedicationRequest xmlns="http://hl7.org/fhir">
                     <id value="484b0ea8-b5bc-4001-9702-290728183823"/>
                     <meta>
                        <profile value="https://fhir.kbv.de/StructureDefinition/KBV_PR_ERP_Prescription|1.1.0"/>
                     </meta>
                     <extension url="https://fhir.kbv.de/StructureDefinition/KBV_EX_ERP_BVG">
                        <valueBoolean value="false"/>
                     </extension>
                     <extension url="https://fhir.kbv.de/StructureDefinition/KBV_EX_ERP_EmergencyServicesFee">
                        <valueBoolean value="false"/>
                     </extension>
                     <extension url="https://fhir.kbv.de/StructureDefinition/KBV_EX_ERP_Multiple_Prescription">
                        <extension url="Kennzeichen">
                           <valueBoolean value="false"/>
                        </extension>
                     </extension>
                     <extension url="https://fhir.kbv.de/StructureDefinition/KBV_EX_FOR_StatusCoPayment">
                        <valueCoding>
                           <system value="https://fhir.kbv.de/CodeSystem/KBV_CS_FOR_StatusCoPayment"/>
                           <code value="1"/>
                        </valueCoding>
                     </extension>
                     <status value="active"/>
                     <intent value="order"/>
                     <medicationReference>
                        <reference value="Medication/a1f63f9a-3681-44e9-9a31-652f7b65548c"/>
                     </medicationReference>
                     <subject>
                        <reference value="Patient/0e32e645-5b7c-4aa7-963c-29a8e2e0383b"/>
                     </subject>
                     <authoredOn value="2025-03-28"/>
                     <requester>
                        <reference value="Practitioner/cec43ebb-b92d-4412-98de-2219e90d4fee"/>
                     </requester>
                     <insurance>
                        <reference value="Coverage/6e39ad74-90b7-4baa-b7d7-cf4218a44793"/>
                     </insurance>
                     <dosageInstruction>
                        <extension url="https://fhir.kbv.de/StructureDefinition/KBV_EX_ERP_DosageFlag">
                           <valueBoolean value="true"/>
                        </extension>
                        <text value="2-3-1-1-0-0-2"/>
                     </dosageInstruction>
                     <dispenseRequest>
                        <quantity>
                           <value value="1"/>
                           <system value="http://unitsofmeasure.org"/>
                           <code value="{Package}"/>
                        </quantity>
                     </dispenseRequest>
                     <substitution>
                        <allowedBoolean value="false"/>
                     </substitution>
                  </MedicationRequest>
               </resource>
            </entry>
            <signature>
               <type>
                  <system value="urn:iso-astm:E1762-95:2013"/>
                  <code value="1.2.840.10065.1.12.1.1"/>
               </type>
               <when value="2025-03-28T08:09:22.000+00:00"/>
               <who>
                  <display value="Arzt"/>
               </who>
               <sigFormat value="application/pkcs7-mime"/>
               <data value=""/>
            </signature>
         </Bundle>
      </resource>
   </entry>
   <entry>
      <fullUrl value="urn:uuid:c8f90125-0000-0000-0004-000000000000"/>
      <resource>
         <Bundle xmlns="http://hl7.org/fhir">
            <id value="ff3fc928-86af-49c1-8b62-137670f85600"/>
            <meta>
               <lastUpdated value="2025-03-28T09:09:23.373+01:00"/>
               <profile value="http://fhir.abda.de/eRezeptAbgabedaten/StructureDefinition/DAV-PKV-PR-ERP-AbgabedatenBundle|1.3"/>
            </meta>
            <identifier>
               <system value="https://gematik.de/fhir/erp/NamingSystem/GEM_ERP_NS_PrescriptionId"/>
               <value value="200.000.002.425.337.30"/>
            </identifier>
            <type value="document"/>
            <timestamp value="2025-03-28T09:09:23.373+01:00"/>
            <entry>
               <fullUrl value="urn:uuid:8616d63e-18c8-435f-b781-e31efa1b1bbf"/>
               <resource>
                  <Composition xmlns="http://hl7.org/fhir">
                     <meta>
                        <profile value="http://fhir.abda.de/eRezeptAbgabedaten/StructureDefinition/DAV-PKV-PR-ERP-AbgabedatenComposition|1.3"/>
                     </meta>
                     <status value="final"/>
                     <type>
                        <coding>
                           <system value="http://fhir.abda.de/eRezeptAbgabedaten/CodeSystem/DAV-CS-ERP-CompositionTypes"/>
                           <code value="ERezeptAbgabedaten"/>
                        </coding>
                     </type>
                     <date value="2025-03-28T09:09:23+01:00"/>
                     <author>
                        <reference value="urn:uuid:b972c90d-8a02-4ed0-8757-ee86ae703c99"/>
                     </author>
                     <title value="ERezeptAbgabedaten"/>
                     <section>
                        <title value="Apotheke"/>
                        <entry>
                           <reference value="urn:uuid:b972c90d-8a02-4ed0-8757-ee86ae703c99"/>
                        </entry>
                     </section>
                     <section>
                        <title value="Abgabeinformationen"/>
                        <entry>
                           <reference value="urn:uuid:37a14315-3e30-4a46-9e2a-a869bfdeb4cd"/>
                        </entry>
                     </section>
                  </Composition>
               </resource>
            </entry>
            <entry>
               <fullUrl value="urn:uuid:b972c90d-8a02-4ed0-8757-ee86ae703c99"/>
               <resource>
                  <Organization xmlns="http://hl7.org/fhir">
                     <meta>
                        <profile value="http://fhir.abda.de/eRezeptAbgabedaten/StructureDefinition/DAV-PKV-PR-ERP-Apotheke|1.3"/>
                     </meta>
                     <identifier>
                        <system value="http://fhir.de/sid/arge-ik/iknr"/>
                        <value value="817151064"/>
                     </identifier>
                     <name value="Apotheke Phil A. Mignon"/>
                     <address>
                        <type value="physical"/>
                        <line value="Theodor-Haubach-Str. 713">
                           <extension url="http://hl7.org/fhir/StructureDefinition/iso21090-ADXP-houseNumber">
                              <valueString value="713"/>
                           </extension>
                           <extension url="http://hl7.org/fhir/StructureDefinition/iso21090-ADXP-streetName">
                              <valueString value="Theodor-Haubach-Str."/>
                           </extension>
                        </line>
                        <city value="Taminoburg"/>
                        <postalCode value="27572"/>
                        <country value="WD"/>
                     </address>
                  </Organization>
               </resource>
            </entry>
            <entry>
               <fullUrl value="urn:uuid:bae0b4b2-625c-4749-94ce-c3f8a478d19c"/>
               <resource>
                  <Invoice xmlns="http://hl7.org/fhir">
                     <meta>
                        <profile value="http://fhir.abda.de/eRezeptAbgabedaten/StructureDefinition/DAV-PKV-PR-ERP-Abrechnungszeilen|1.3"/>
                     </meta>
                     <status value="issued"/>
                     <type>
                        <coding>
                           <system value="http://fhir.abda.de/eRezeptAbgabedaten/CodeSystem/DAV-CS-ERP-InvoiceTyp"/>
                           <code value="Abrechnungszeilen"/>
                        </coding>
                     </type>
                     <lineItem>
                        <sequence value="1"/>
                        <chargeItemCodeableConcept>
                           <coding>
                              <system value="http://fhir.de/CodeSystem/ifa/pzn"/>
                              <code value="37199172"/>
                           </coding>
                           <text value="Ciclopoli® Spray 250 mg"/>
                        </chargeItemCodeableConcept>
                        <priceComponent>
                           <extension url="http://fhir.abda.de/eRezeptAbgabedaten/StructureDefinition/DAV-EX-ERP-KostenVersicherter">
                              <extension url="Kategorie">
                                 <valueCodeableConcept>
                                    <coding>
                                       <system value="http://fhir.abda.de/eRezeptAbgabedaten/CodeSystem/DAV-PKV-CS-ERP-KostenVersicherterKategorie"/>
                                       <code value="0"/>
                                    </coding>
                                 </valueCodeableConcept>
                              </extension>
                              <extension url="Kostenbetrag">
                                 <valueMoney>
                                    <value value="114.92"/>
                                    <currency value="EUR"/>
                                 </valueMoney>
                              </extension>
                           </extension>
                           <extension url="http://fhir.abda.de/eRezeptAbgabedaten/StructureDefinition/DAV-EX-ERP-MwStSatz">
                              <valueDecimal value="16.98"/>
                           </extension>
                           <type value="informational"/>
                           <factor value="1"/>
                           <amount>
                              <value value="122.34"/>
                              <currency value="EUR"/>
                           </amount>
                        </priceComponent>
                     </lineItem>
                     <lineItem>
                        <sequence value="2"/>
                        <chargeItemCodeableConcept>
                           <coding>
                              <system value="http://fhir.de/CodeSystem/ifa/pzn"/>
                              <code value="85112315"/>
                           </coding>
                           <text value="ASS Dexcel® Protect Pulver"/>
                        </chargeItemCodeableConcept>
                        <priceComponent>
                           <extension url="http://fhir.abda.de/eRezeptAbgabedaten/StructureDefinition/DAV-EX-ERP-KostenVersicherter">
                              <extension url="Kategorie">
                                 <valueCodeableConcept>
                                    <coding>
                                       <system value="http://fhir.abda.de/eRezeptAbgabedaten/CodeSystem/DAV-PKV-CS-ERP-KostenVersicherterKategorie"/>
                                       <code value="0"/>
                                    </coding>
                                 </valueCodeableConcept>
                              </extension>
                              <extension url="Kostenbetrag">
                                 <valueMoney>
                                    <value value="91.27"/>
                                    <currency value="EUR"/>
                                 </valueMoney>
                              </extension>
                           </extension>
                           <extension url="http://fhir.abda.de/eRezeptAbgabedaten/StructureDefinition/DAV-EX-ERP-MwStSatz">
                              <valueDecimal value="16.98"/>
                           </extension>
                           <type value="informational"/>
                           <factor value="1"/>
                           <amount>
                              <value value="268.94"/>
                              <currency value="EUR"/>
                           </amount>
                        </priceComponent>
                     </lineItem>
                     <totalGross>
                        <extension url="http://fhir.abda.de/eRezeptAbgabedaten/StructureDefinition/DAV-EX-ERP-Gesamtzuzahlung">
                           <valueMoney>
                              <value value="206.19"/>
                              <currency value="EUR"/>
                           </valueMoney>
                        </extension>
                        <value value="391.28"/>
                        <currency value="EUR"/>
                     </totalGross>
                  </Invoice>
               </resource>
            </entry>
            <entry>
               <fullUrl value="urn:uuid:37a14315-3e30-4a46-9e2a-a869bfdeb4cd"/>
               <resource>
                  <MedicationDispense xmlns="http://hl7.org/fhir">
                     <meta>
                        <profile value="http://fhir.abda.de/eRezeptAbgabedaten/StructureDefinition/DAV-PKV-PR-ERP-Abgabeinformationen|1.3"/>
                     </meta>
                     <extension url="http://fhir.abda.de/eRezeptAbgabedaten/StructureDefinition/DAV-PKV-EX-ERP-AbrechnungsTyp">
                        <valueCodeableConcept>
                           <coding>
                              <system value="http://fhir.abda.de/eRezeptAbgabedaten/CodeSystem/DAV-PKV-CS-ERP-AbrechnungsTyp"/>
                              <code value="1"/>
                           </coding>
                        </valueCodeableConcept>
                     </extension>
                     <extension url="http://fhir.abda.de/eRezeptAbgabedaten/StructureDefinition/DAV-EX-ERP-Abrechnungszeilen">
                        <valueReference>
                           <reference value="urn:uuid:bae0b4b2-625c-4749-94ce-c3f8a478d19c"/>
                        </valueReference>
                     </extension>
                     <status value="completed"/>
                     <medicationCodeableConcept>
                        <coding>
                           <system value="http://terminology.hl7.org/CodeSystem/data-absent-reason"/>
                           <code value="not-applicable"/>
                        </coding>
                     </medicationCodeableConcept>
                     <performer>
                        <actor>
                           <reference value="urn:uuid:b972c90d-8a02-4ed0-8757-ee86ae703c99"/>
                        </actor>
                     </performer>
                     <authorizingPrescription>
                        <identifier>
                           <system value="https://gematik.de/fhir/erp/NamingSystem/GEM_ERP_NS_PrescriptionId"/>
                           <value value="200.000.002.425.337.30"/>
                        </identifier>
                     </authorizingPrescription>
                     <type>
                        <coding>
                           <system value="http://fhir.abda.de/eRezeptAbgabedaten/CodeSystem/DAV-CS-ERP-MedicationDispenseTyp"/>
                           <code value="Abgabeinformationen"/>
                        </coding>
                     </type>
                     <whenHandedOver value="2025-03-28"/>
                  </MedicationDispense>
               </resource>
            </entry>
            <signature>
               <type>
                  <system value="urn:iso-astm:E1762-95:2013"/>
                  <code value="1.2.840.10065.1.12.1.1"/>
               </type>
               <when value="2025-03-28T08:09:23.000+00:00"/>
               <who>
                  <display value="Apotheke"/>
               </who>
               <sigFormat value="application/pkcs7-mime"/>
               <data value=""/>
            </signature>
         </Bundle>
      </resource>
   </entry>
</Bundle>