<Bundle xmlns="http://hl7.org/fhir"><id value="b6bc5686-3b17-4b76-a027-871ed5d1016e"/><meta><lastUpdated value="2023-04-18T08:45:38.579+02:00"/><profile value="http://fhir.abda.de/eRezeptAbgabedaten/StructureDefinition/DAV-PKV-PR-ERP-AbgabedatenBundle|1.1"/></meta><identifier><system value="https://gematik.de/fhir/erp/NamingSystem/GEM_ERP_NS_PrescriptionId"/><value value="200.000.001.943.782.74"/></identifier><type value="document"/><timestamp value="2023-04-18T08:45:38.579+02:00"/><entry><fullUrl value="urn:uuid:54f791c6-6fdc-42dc-a6f9-84377ebf0de8"/><resource><Composition xmlns="http://hl7.org/fhir"><id value="54f791c6-6fdc-42dc-a6f9-84377ebf0de8"/><meta><profile value="http://fhir.abda.de/eRezeptAbgabedaten/StructureDefinition/DAV-PKV-PR-ERP-AbgabedatenComposition|1.1"/></meta><status value="final"/><type><coding><system value="http://fhir.abda.de/eRezeptAbgabedaten/CodeSystem/DAV-CS-ERP-CompositionTypes"/><code value="ERezeptAbgabedaten"/></coding></type><date value="2023-04-18T08:45:38+02:00"/><author><reference value="urn:uuid:8dbb69e4-40e1-4559-b994-e957fe7a7dba"/></author><title value="ERezeptAbgabedaten"/><section><title value="Apotheke"/><entry><reference value="urn:uuid:8dbb69e4-40e1-4559-b994-e957fe7a7dba"/></entry></section><section><title value="Abgabeinformationen"/><entry><reference value="urn:uuid:ee4021cf-d7eb-4f6e-83a3-dafebfcfd7b2"/></entry></section></Composition></resource></entry><entry><fullUrl value="urn:uuid:8dbb69e4-40e1-4559-b994-e957fe7a7dba"/><resource><Organization xmlns="http://hl7.org/fhir"><id value="8dbb69e4-40e1-4559-b994-e957fe7a7dba"/><meta><profile value="http://fhir.abda.de/eRezeptAbgabedaten/StructureDefinition/DAV-PKV-PR-ERP-Apotheke|1.1"/></meta><identifier><system value="http://fhir.de/sid/arge-ik/iknr"/><value value="191255953"/></identifier><name value="Apotheke Royal Payne"/><address><type value="physical"/><line value="Am Wambacher Hof 39c"><extension url="http://hl7.org/fhir/StructureDefinition/iso21090-ADXP-houseNumber"><valueString value="39c"/></extension><extension url="http://hl7.org/fhir/StructureDefinition/iso21090-ADXP-streetName"><valueString value="Am Wambacher Hof"/></extension></line><city value="Hannodorf"/><postalCode value="09804"/><country value="D"/></address></Organization></resource></entry><entry><fullUrl value="urn:uuid:63d57ae7-67e6-4e24-af7a-b5383740a7d2"/><resource><Invoice xmlns="http://hl7.org/fhir"><id value="63d57ae7-67e6-4e24-af7a-b5383740a7d2"/><meta><profile value="http://fhir.abda.de/eRezeptAbgabedaten/StructureDefinition/DAV-PKV-PR-ERP-Abrechnungszeilen|1.1"/></meta><status value="issued"/><type><coding><system value="http://fhir.abda.de/eRezeptAbgabedaten/CodeSystem/DAV-CS-ERP-InvoiceTyp"/><code value="Abrechnungszeilen"/></coding></type><lineItem><sequence value="1"/><chargeItemCodeableConcept><coding><system value="http://fhir.de/CodeSystem/ifa/pzn"/><code value="59307058"/></coding></chargeItemCodeableConcept><priceComponent><extension url="http://fhir.abda.de/eRezeptAbgabedaten/StructureDefinition/DAV-EX-ERP-KostenVersicherter"><extension url="Kategorie"><valueCodeableConcept><coding><system value="http://fhir.abda.de/eRezeptAbgabedaten/CodeSystem/DAV-PKV-CS-ERP-KostenVersicherterKategorie"/><code value="0"/></coding></valueCodeableConcept></extension><extension url="Kostenbetrag"><valueMoney><value value="26.05"/><currency value="EUR"/></valueMoney></extension></extension><extension url="http://fhir.abda.de/eRezeptAbgabedaten/StructureDefinition/DAV-EX-ERP-MwStSatz"><valueDecimal value="25.22"/></extension><type value="informational"/><factor value="1"/><amount><value value="30.14"/><currency value="EUR"/></amount></priceComponent></lineItem><lineItem><sequence value="2"/><chargeItemCodeableConcept><coding><system value="http://fhir.de/CodeSystem/ifa/pzn"/><code value="81853198"/></coding></chargeItemCodeableConcept><priceComponent><extension url="http://fhir.abda.de/eRezeptAbgabedaten/StructureDefinition/DAV-EX-ERP-KostenVersicherter"><extension url="Kategorie"><valueCodeableConcept><coding><system value="http://fhir.abda.de/eRezeptAbgabedaten/CodeSystem/DAV-PKV-CS-ERP-KostenVersicherterKategorie"/><code value="0"/></coding></valueCodeableConcept></extension><extension url="Kostenbetrag"><valueMoney><value value="2.41"/><currency value="EUR"/></valueMoney></extension></extension><extension url="http://fhir.abda.de/eRezeptAbgabedaten/StructureDefinition/DAV-EX-ERP-MwStSatz"><valueDecimal value="25.22"/></extension><type value="informational"/><factor value="1"/><amount><value value="4.47"/><currency value="EUR"/></amount></priceComponent></lineItem><lineItem><sequence value="3"/><chargeItemCodeableConcept><coding><system value="http://fhir.de/CodeSystem/ifa/pzn"/><code value="61515540"/></coding></chargeItemCodeableConcept><priceComponent><extension url="http://fhir.abda.de/eRezeptAbgabedaten/StructureDefinition/DAV-EX-ERP-KostenVersicherter"><extension url="Kategorie"><valueCodeableConcept><coding><system value="http://fhir.abda.de/eRezeptAbgabedaten/CodeSystem/DAV-PKV-CS-ERP-KostenVersicherterKategorie"/><code value="0"/></coding></valueCodeableConcept></extension><extension url="Kostenbetrag"><valueMoney><value value="45.14"/><currency value="EUR"/></valueMoney></extension></extension><extension url="http://fhir.abda.de/eRezeptAbgabedaten/StructureDefinition/DAV-EX-ERP-MwStSatz"><valueDecimal value="25.22"/></extension><type value="informational"/><factor value="1"/><amount><value value="82.26"/><currency value="EUR"/></amount></priceComponent></lineItem><totalGross><extension url="http://fhir.abda.de/eRezeptAbgabedaten/StructureDefinition/DAV-EX-ERP-Gesamtzuzahlung"><valueMoney><value value="73.60"/><currency value="EUR"/></valueMoney></extension><value value="116.87"/><currency value="EUR"/></totalGross></Invoice></resource></entry><entry><fullUrl value="urn:uuid:ee4021cf-d7eb-4f6e-83a3-dafebfcfd7b2"/><resource><MedicationDispense xmlns="http://hl7.org/fhir"><id value="ee4021cf-d7eb-4f6e-83a3-dafebfcfd7b2"/><meta><profile value="http://fhir.abda.de/eRezeptAbgabedaten/StructureDefinition/DAV-PKV-PR-ERP-Abgabeinformationen|1.1"/></meta><extension url="http://fhir.abda.de/eRezeptAbgabedaten/StructureDefinition/DAV-PKV-EX-ERP-AbrechnungsTyp"><valueCodeableConcept><coding><system value="http://fhir.abda.de/eRezeptAbgabedaten/CodeSystem/DAV-PKV-CS-ERP-AbrechnungsTyp"/><code value="1"/></coding></valueCodeableConcept></extension><extension url="http://fhir.abda.de/eRezeptAbgabedaten/StructureDefinition/DAV-EX-ERP-Abrechnungszeilen"><valueReference><reference value="urn:uuid:63d57ae7-67e6-4e24-af7a-b5383740a7d2"/></valueReference></extension><status value="completed"/><medicationCodeableConcept><coding><system value="http://terminology.hl7.org/CodeSystem/data-absent-reason"/><code value="not-applicable"/></coding></medicationCodeableConcept><performer><actor><reference value="urn:uuid:8dbb69e4-40e1-4559-b994-e957fe7a7dba"/></actor></performer><authorizingPrescription><identifier><system value="https://gematik.de/fhir/erp/NamingSystem/GEM_ERP_NS_PrescriptionId"/><value value="200.000.001.943.782.74"/></identifier></authorizingPrescription><type><coding><system value="http://fhir.abda.de/eRezeptAbgabedaten/CodeSystem/DAV-CS-ERP-MedicationDispenseTyp"/><code value="Abgabeinformationen"/></coding></type><whenHandedOver value="2023-04-18"/></MedicationDispense></resource></entry></Bundle>