{
  "resourceType": "Bundle",
  "id": "fe22094f-9d10-4985-9a0a-340d702f2c2c",
  "type": "collection",
  "timestamp": "2023-04-18T06:45:41.342+00:00",
  "entry": [
    {
      "fullUrl": "https://erp-dev.zentral.erp.splitdns.ti-dienste.de/ChargeItem/200.000.001.943.782.74",
      "resource": {
        "resourceType": "ChargeItem",
        "id": "200.000.001.943.782.74",
        "meta": {
          "profile": [
            "https://gematik.de/fhir/erpchrg/StructureDefinition/GEM_ERPCHRG_PR_ChargeItem|1.0"
          ]
        },
        "extension": [
          {
            "url": "https://gematik.de/fhir/erpchrg/StructureDefinition/GEM_ERPCHRG_EX_MarkingFlag",
            "extension": [
              {
                "url": "insuranceProvider",
                "valueBoolean": false
              },
              {
                "url": "subsidy",
                "valueBoolean": false
              },
              {
                "url": "taxOffice",
                "valueBoolean": false
              }
            ]
          }
        ],
        "identifier": [
          {
            "system": "https://gematik.de/fhir/erp/NamingSystem/GEM_ERP_NS_AccessCode",
            "value": "ec612ae4df678517d67b4afc26a6ca9095fae2ce8060bdc60608156eba08f193"
          },
          {
            "system": "https://gematik.de/fhir/erp/NamingSystem/GEM_ERP_NS_PrescriptionId",
            "value": "200.000.001.943.782.74"
          }
        ],
        "status": "billable",
        "code": {
          "coding": [
            {
              "system": "http://terminology.hl7.org/CodeSystem/data-absent-reason",
              "code": "not-applicable"
            }
          ]
        },
        "subject": {
          "identifier": {
            "system": "http://fhir.de/sid/pkv/kvid-10",
            "value": "X110465770"
          }
        },
        "enterer": {
          "identifier": {
            "system": "https://gematik.de/fhir/sid/telematik-id",
            "value": "3-SMC-B-Testkarte-883110000116873"
          }
        },
        "enteredDate": "2023-04-18T06:45:41.106+00:00",
        "supportingInformation": [
          {
            "reference": "urn:uuid:c8e6a81d-0000-0000-0001-000000000000",
            "display": "https://fhir.kbv.de/StructureDefinition/KBV_PR_ERP_Bundle"
          },
          {
            "reference": "urn:uuid:c8e6a81d-0000-0000-0004-000000000000",
            "display": "http://fhir.abda.de/eRezeptAbgabedaten/StructureDefinition/DAV-PKV-PR-ERP-AbgabedatenBundle"
          },
          {
            "reference": "urn:uuid:c8e6a81d-0000-0000-0003-000000000000",
            "display": "https://gematik.de/fhir/erp/StructureDefinition/GEM_ERP_PR_Bundle"
          }
        ]
      }
    },
    {
      "fullUrl": "urn:uuid:c8e6a81d-0000-0000-0004-000000000000",
      "resource": {
        "resourceType": "Bundle",
        "id": "b6bc5686-3b17-4b76-a027-871ed5d1016e",
        "meta": {
          "lastUpdated": "2023-04-18T08:45:38.579+02:00",
          "profile": [
            "http://fhir.abda.de/eRezeptAbgabedaten/StructureDefinition/DAV-PKV-PR-ERP-AbgabedatenBundle|1.1"
          ]
        },
        "identifier": {
          "system": "https://gematik.de/fhir/erp/NamingSystem/GEM_ERP_NS_PrescriptionId",
          "value": "200.000.001.943.782.74"
        },
        "type": "document",
        "timestamp": "2023-04-18T08:45:38.579+02:00",
        "entry": [
          {
            "fullUrl": "urn:uuid:54f791c6-6fdc-42dc-a6f9-84377ebf0de8",
            "resource": {
              "resourceType": "Composition",
              "meta": {
                "profile": [
                  "http://fhir.abda.de/eRezeptAbgabedaten/StructureDefinition/DAV-PKV-PR-ERP-AbgabedatenComposition|1.1"
                ]
              },
              "status": "final",
              "type": {
                "coding": [
                  {
                    "system": "http://fhir.abda.de/eRezeptAbgabedaten/CodeSystem/DAV-CS-ERP-CompositionTypes",
                    "code": "ERezeptAbgabedaten"
                  }
                ]
              },
              "date": "2023-04-18T08:45:38+02:00",
              "author": [
                {
                  "reference": "urn:uuid:8dbb69e4-40e1-4559-b994-e957fe7a7dba"
                }
              ],
              "title": "ERezeptAbgabedaten",
              "section": [
                {
                  "title": "Apotheke",
                  "entry": [
                    {
                      "reference": "urn:uuid:8dbb69e4-40e1-4559-b994-e957fe7a7dba"
                    }
                  ]
                },
                {
                  "title": "Abgabeinformationen",
                  "entry": [
                    {
                      "reference": "urn:uuid:ee4021cf-d7eb-4f6e-83a3-dafebfcfd7b2"
                    }
                  ]
                }
              ]
            }
          },
          {
            "fullUrl": "urn:uuid:8dbb69e4-40e1-4559-b994-e957fe7a7dba",
            "resource": {
              "resourceType": "Organization",
              "meta": {
                "profile": [
                  "http://fhir.abda.de/eRezeptAbgabedaten/StructureDefinition/DAV-PKV-PR-ERP-Apotheke|1.1"
                ]
              },
              "identifier": [
                {
                  "system": "http://fhir.de/sid/arge-ik/iknr",
                  "value": "191255953"
                }
              ],
              "name": "Apotheke Royal Payne",
              "address": [
                {
                  "type": "physical",
                  "line": ["Am Wambacher Hof 39c"],
                  "_line": [
                    {
                      "extension": [
                        {
                          "url": "http://hl7.org/fhir/StructureDefinition/iso21090-ADXP-houseNumber",
                          "valueString": "39c"
                        },
                        {
                          "url": "http://hl7.org/fhir/StructureDefinition/iso21090-ADXP-streetName",
                          "valueString": "Am Wambacher Hof"
                        }
                      ]
                    }
                  ],
                  "city": "Hannodorf",
                  "postalCode": "09804",
                  "country": "D"
                }
              ]
            }
          },
          {
            "fullUrl": "urn:uuid:63d57ae7-67e6-4e24-af7a-b5383740a7d2",
            "resource": {
              "resourceType": "Invoice",
              "meta": {
                "profile": [
                  "http://fhir.abda.de/eRezeptAbgabedaten/StructureDefinition/DAV-PKV-PR-ERP-Abrechnungszeilen|1.1"
                ]
              },
              "status": "issued",
              "type": {
                "coding": [
                  {
                    "system": "http://fhir.abda.de/eRezeptAbgabedaten/CodeSystem/DAV-CS-ERP-InvoiceTyp",
                    "code": "Abrechnungszeilen"
                  }
                ]
              },
              "lineItem": [
                {
                  "sequence": 1,
                  "chargeItemCodeableConcept": {
                    "coding": [
                      {
                        "system": "http://fhir.de/CodeSystem/ifa/pzn",
                        "code": "59307058"
                      }
                    ]
                  },
                  "priceComponent": [
                    {
                      "extension": [
                        {
                          "url": "http://fhir.abda.de/eRezeptAbgabedaten/StructureDefinition/DAV-EX-ERP-KostenVersicherter",
                          "extension": [
                            {
                              "url": "Kategorie",
                              "valueCodeableConcept": {
                                "coding": [
                                  {
                                    "system": "http://fhir.abda.de/eRezeptAbgabedaten/CodeSystem/DAV-PKV-CS-ERP-KostenVersicherterKategorie",
                                    "code": "0"
                                  }
                                ]
                              }
                            },
                            {
                              "url": "Kostenbetrag",
                              "valueMoney": {
                                "value": 26.05,
                                "currency": "EUR"
                              }
                            }
                          ]
                        },
                        {
                          "url": "http://fhir.abda.de/eRezeptAbgabedaten/StructureDefinition/DAV-EX-ERP-MwStSatz",
                          "valueDecimal": 25.22
                        }
                      ],
                      "type": "informational",
                      "factor": 1,
                      "amount": {
                        "value": 30.14,
                        "currency": "EUR"
                      }
                    }
                  ]
                },
                {
                  "sequence": 2,
                  "chargeItemCodeableConcept": {
                    "coding": [
                      {
                        "system": "http://fhir.de/CodeSystem/ifa/pzn",
                        "code": "81853198"
                      }
                    ]
                  },
                  "priceComponent": [
                    {
                      "extension": [
                        {
                          "url": "http://fhir.abda.de/eRezeptAbgabedaten/StructureDefinition/DAV-EX-ERP-KostenVersicherter",
                          "extension": [
                            {
                              "url": "Kategorie",
                              "valueCodeableConcept": {
                                "coding": [
                                  {
                                    "system": "http://fhir.abda.de/eRezeptAbgabedaten/CodeSystem/DAV-PKV-CS-ERP-KostenVersicherterKategorie",
                                    "code": "0"
                                  }
                                ]
                              }
                            },
                            {
                              "url": "Kostenbetrag",
                              "valueMoney": {
                                "value": 2.41,
                                "currency": "EUR"
                              }
                            }
                          ]
                        },
                        {
                          "url": "http://fhir.abda.de/eRezeptAbgabedaten/StructureDefinition/DAV-EX-ERP-MwStSatz",
                          "valueDecimal": 25.22
                        }
                      ],
                      "type": "informational",
                      "factor": 1,
                      "amount": {
                        "value": 4.47,
                        "currency": "EUR"
                      }
                    }
                  ]
                },
                {
                  "sequence": 3,
                  "chargeItemCodeableConcept": {
                    "coding": [
                      {
                        "system": "http://fhir.de/CodeSystem/ifa/pzn",
                        "code": "61515540"
                      }
                    ]
                  },
                  "priceComponent": [
                    {
                      "extension": [
                        {
                          "url": "http://fhir.abda.de/eRezeptAbgabedaten/StructureDefinition/DAV-EX-ERP-KostenVersicherter",
                          "extension": [
                            {
                              "url": "Kategorie",
                              "valueCodeableConcept": {
                                "coding": [
                                  {
                                    "system": "http://fhir.abda.de/eRezeptAbgabedaten/CodeSystem/DAV-PKV-CS-ERP-KostenVersicherterKategorie",
                                    "code": "0"
                                  }
                                ]
                              }
                            },
                            {
                              "url": "Kostenbetrag",
                              "valueMoney": {
                                "value": 45.14,
                                "currency": "EUR"
                              }
                            }
                          ]
                        },
                        {
                          "url": "http://fhir.abda.de/eRezeptAbgabedaten/StructureDefinition/DAV-EX-ERP-MwStSatz",
                          "valueDecimal": 25.22
                        }
                      ],
                      "type": "informational",
                      "factor": 1,
                      "amount": {
                        "value": 82.26,
                        "currency": "EUR"
                      }
                    }
                  ]
                }
              ],
              "totalGross": {
                "extension": [
                  {
                    "url": "http://fhir.abda.de/eRezeptAbgabedaten/StructureDefinition/DAV-EX-ERP-Gesamtzuzahlung",
                    "valueMoney": {
                      "value": 73.6,
                      "currency": "EUR"
                    }
                  }
                ],
                "value": 116.87,
                "currency": "EUR"
              }
            }
          },
          {
            "fullUrl": "urn:uuid:ee4021cf-d7eb-4f6e-83a3-dafebfcfd7b2",
            "resource": {
              "resourceType": "MedicationDispense",
              "meta": {
                "profile": [
                  "http://fhir.abda.de/eRezeptAbgabedaten/StructureDefinition/DAV-PKV-PR-ERP-Abgabeinformationen|1.1"
                ]
              },
              "extension": [
                {
                  "url": "http://fhir.abda.de/eRezeptAbgabedaten/StructureDefinition/DAV-PKV-EX-ERP-AbrechnungsTyp",
                  "valueCodeableConcept": {
                    "coding": [
                      {
                        "system": "http://fhir.abda.de/eRezeptAbgabedaten/CodeSystem/DAV-PKV-CS-ERP-AbrechnungsTyp",
                        "code": "1"
                      }
                    ]
                  }
                },
                {
                  "url": "http://fhir.abda.de/eRezeptAbgabedaten/StructureDefinition/DAV-EX-ERP-Abrechnungszeilen",
                  "valueReference": {
                    "reference": "urn:uuid:63d57ae7-67e6-4e24-af7a-b5383740a7d2"
                  }
                }
              ],
              "status": "completed",
              "medicationCodeableConcept": {
                "coding": [
                  {
                    "system": "http://terminology.hl7.org/CodeSystem/data-absent-reason",
                    "code": "not-applicable"
                  }
                ]
              },
              "performer": [
                {
                  "actor": {
                    "reference": "urn:uuid:8dbb69e4-40e1-4559-b994-e957fe7a7dba"
                  }
                }
              ],
              "authorizingPrescription": [
                {
                  "identifier": {
                    "system": "https://gematik.de/fhir/erp/NamingSystem/GEM_ERP_NS_PrescriptionId",
                    "value": "200.000.001.943.782.74"
                  }
                }
              ],
              "type": {
                "coding": [
                  {
                    "system": "http://fhir.abda.de/eRezeptAbgabedaten/CodeSystem/DAV-CS-ERP-MedicationDispenseTyp",
                    "code": "Abgabeinformationen"
                  }
                ]
              },
              "whenHandedOver": "2023-04-18"
            }
          }
        ],
        "signature": {
          "type": [
            {
              "system": "urn:iso-astm:E1762-95:2013",
              "code": "1.2.840.10065.1.12.1.1"
            }
          ],
          "when": "2023-04-18T06:45:41.366+00:00",
          "who": {
            "reference": "https://erp-dev.zentral.erp.splitdns.ti-dienste.de/Device/1"
          },
          "sigFormat": "application/pkcs7-mime",
          "data": ""
        }
      }
    },
    {
      "fullUrl": "urn:uuid:c8e6a81d-0000-0000-0001-000000000000",
      "resource": {
        "resourceType": "Bundle",
        "id": "49a6ce93-cb06-4594-9feb-d0366139fdba",
        "meta": {
          "lastUpdated": "2023-04-18T08:45:36.245+02:00",
          "profile": [
            "https://fhir.kbv.de/StructureDefinition/KBV_PR_ERP_Bundle|1.1.0"
          ]
        },
        "identifier": {
          "system": "https://gematik.de/fhir/erp/NamingSystem/GEM_ERP_NS_PrescriptionId",
          "value": "200.000.001.943.782.74"
        },
        "type": "document",
        "timestamp": "2023-04-18T08:45:36.245+02:00",
        "entry": [
          {
            "fullUrl": "https://pvs.gematik.de/fhir/Composition/a7c18244-6015-4033-839b-98a87ca799ca",
            "resource": {
              "resourceType": "Composition",
              "id": "a7c18244-6015-4033-839b-98a87ca799ca",
              "meta": {
                "profile": [
                  "https://fhir.kbv.de/StructureDefinition/KBV_PR_ERP_Composition|1.1.0"
                ]
              },
              "extension": [
                {
                  "url": "https://fhir.kbv.de/StructureDefinition/KBV_EX_FOR_Legal_basis",
                  "valueCoding": {
                    "system": "https://fhir.kbv.de/CodeSystem/KBV_CS_SFHIR_KBV_STATUSKENNZEICHEN",
                    "code": "00"
                  }
                }
              ],
              "status": "final",
              "type": {
                "coding": [
                  {
                    "system": "https://fhir.kbv.de/CodeSystem/KBV_CS_SFHIR_KBV_FORMULAR_ART",
                    "code": "e16A"
                  }
                ]
              },
              "subject": {
                "reference": "Patient/aa63e679-1b84-405c-8627-2e0e7344b5a3"
              },
              "date": "2023-04-18T08:45:36+02:00",
              "author": [
                {
                  "reference": "Practitioner/b5be9184-087f-42b5-b6d1-c7cd8ed742fa",
                  "type": "Practitioner"
                },
                {
                  "type": "Device",
                  "identifier": {
                    "system": "https://fhir.kbv.de/NamingSystem/KBV_NS_FOR_Pruefnummer",
                    "value": "GEMATIK/410/2109/36/123"
                  }
                }
              ],
              "title": "elektronische Arzneimittelverordnung",
              "custodian": {
                "reference": "Organization/acec0ae7-057c-424d-bf00-44005aadb773"
              },
              "section": [
                {
                  "code": {
                    "coding": [
                      {
                        "system": "https://fhir.kbv.de/CodeSystem/KBV_CS_ERP_Section_Type",
                        "code": "Coverage"
                      }
                    ]
                  },
                  "entry": [
                    {
                      "reference": "Coverage/e926b111-b178-47ce-a0d0-a3b90d8f05f9"
                    }
                  ]
                },
                {
                  "code": {
                    "coding": [
                      {
                        "system": "https://fhir.kbv.de/CodeSystem/KBV_CS_ERP_Section_Type",
                        "code": "Prescription"
                      }
                    ]
                  },
                  "entry": [
                    {
                      "reference": "MedicationRequest/968302d4-efcf-4cc1-95c8-dbff6691e96c"
                    }
                  ]
                }
              ]
            }
          },
          {
            "fullUrl": "https://pvs.gematik.de/fhir/MedicationRequest/968302d4-efcf-4cc1-95c8-dbff6691e96c",
            "resource": {
              "resourceType": "MedicationRequest",
              "id": "968302d4-efcf-4cc1-95c8-dbff6691e96c",
              "meta": {
                "profile": [
                  "https://fhir.kbv.de/StructureDefinition/KBV_PR_ERP_Prescription|1.1.0"
                ]
              },
              "extension": [
                {
                  "url": "https://fhir.kbv.de/StructureDefinition/KBV_EX_ERP_BVG",
                  "valueBoolean": false
                },
                {
                  "url": "https://fhir.kbv.de/StructureDefinition/KBV_EX_ERP_EmergencyServicesFee",
                  "valueBoolean": false
                },
                {
                  "url": "https://fhir.kbv.de/StructureDefinition/KBV_EX_ERP_Multiple_Prescription",
                  "extension": [
                    {
                      "url": "Kennzeichen",
                      "valueBoolean": false
                    }
                  ]
                },
                {
                  "url": "https://fhir.kbv.de/StructureDefinition/KBV_EX_FOR_StatusCoPayment",
                  "valueCoding": {
                    "system": "https://fhir.kbv.de/CodeSystem/KBV_CS_FOR_StatusCoPayment",
                    "code": "0"
                  }
                }
              ],
              "status": "active",
              "intent": "order",
              "medicationReference": {
                "reference": "Medication/24edcc59-b44c-43b8-90c0-a471fe755a6d"
              },
              "subject": {
                "reference": "Patient/aa63e679-1b84-405c-8627-2e0e7344b5a3"
              },
              "authoredOn": "2023-04-18",
              "requester": {
                "reference": "Practitioner/b5be9184-087f-42b5-b6d1-c7cd8ed742fa"
              },
              "insurance": [
                {
                  "reference": "Coverage/e926b111-b178-47ce-a0d0-a3b90d8f05f9"
                }
              ],
              "dosageInstruction": [
                {
                  "extension": [
                    {
                      "url": "https://fhir.kbv.de/StructureDefinition/KBV_EX_ERP_DosageFlag",
                      "valueBoolean": true
                    }
                  ],
                  "text": "1-0-0-0"
                }
              ],
              "dispenseRequest": {
                "quantity": {
                  "value": 1,
                  "system": "http://unitsofmeasure.org",
                  "code": "{Package}"
                }
              },
              "substitution": {
                "allowedBoolean": true
              }
            }
          },
          {
            "fullUrl": "https://pvs.gematik.de/fhir/Medication/24edcc59-b44c-43b8-90c0-a471fe755a6d",
            "resource": {
              "resourceType": "Medication",
              "id": "24edcc59-b44c-43b8-90c0-a471fe755a6d",
              "meta": {
                "profile": [
                  "https://fhir.kbv.de/StructureDefinition/KBV_PR_ERP_Medication_PZN|1.1.0"
                ]
              },
              "extension": [
                {
                  "url": "https://fhir.kbv.de/StructureDefinition/KBV_EX_Base_Medication_Type",
                  "valueCodeableConcept": {
                    "coding": [
                      {
                        "system": "http://snomed.info/sct",
                        "version": "http://snomed.info/sct/900000000000207008/version/20220331",
                        "code": "763158003",
                        "display": "Medicinal product (product)"
                      }
                    ]
                  }
                },
                {
                  "url": "https://fhir.kbv.de/StructureDefinition/KBV_EX_ERP_Medication_Category",
                  "valueCoding": {
                    "system": "https://fhir.kbv.de/CodeSystem/KBV_CS_ERP_Medication_Category",
                    "code": "00"
                  }
                },
                {
                  "url": "https://fhir.kbv.de/StructureDefinition/KBV_EX_ERP_Medication_Vaccine",
                  "valueBoolean": false
                },
                {
                  "url": "http://fhir.de/StructureDefinition/normgroesse",
                  "valueCode": "NB"
                }
              ],
              "code": {
                "coding": [
                  {
                    "system": "http://fhir.de/CodeSystem/ifa/pzn",
                    "code": "93982355"
                  }
                ],
                "text": "Schmerzmittel"
              },
              "form": {
                "coding": [
                  {
                    "system": "https://fhir.kbv.de/CodeSystem/KBV_CS_SFHIR_KBV_DARREICHUNGSFORM",
                    "code": "TAB"
                  }
                ]
              },
              "amount": {
                "numerator": {
                  "extension": [
                    {
                      "url": "https://fhir.kbv.de/StructureDefinition/KBV_EX_ERP_Medication_PackagingSize",
                      "valueString": "1"
                    }
                  ],
                  "unit": "Stk"
                },
                "denominator": {
                  "value": 1
                }
              }
            }
          },
          {
            "fullUrl": "https://pvs.gematik.de/fhir/Patient/aa63e679-1b84-405c-8627-2e0e7344b5a3",
            "resource": {
              "resourceType": "Patient",
              "id": "aa63e679-1b84-405c-8627-2e0e7344b5a3",
              "meta": {
                "profile": [
                  "https://fhir.kbv.de/StructureDefinition/KBV_PR_FOR_Patient|1.1.0"
                ]
              },
              "identifier": [
                {
                  "type": {
                    "coding": [
                      {
                        "system": "http://fhir.de/CodeSystem/identifier-type-de-basis",
                        "code": "PKV"
                      }
                    ]
                  },
                  "system": "http://fhir.de/sid/pkv/kvid-10",
                  "value": "X110465770"
                }
              ],
              "name": [
                {
                  "use": "official",
                  "family": "Angermänn",
                  "_family": {
                    "extension": [
                      {
                        "url": "http://hl7.org/fhir/StructureDefinition/humanname-own-name",
                        "valueString": "Angermänn"
                      }
                    ]
                  },
                  "given": ["Günther"]
                }
              ],
              "birthDate": "1967-12-12",
              "address": [
                {
                  "type": "both",
                  "line": ["Faßbacher Hof 486"],
                  "_line": [
                    {
                      "extension": [
                        {
                          "url": "http://hl7.org/fhir/StructureDefinition/iso21090-ADXP-houseNumber",
                          "valueString": "486"
                        },
                        {
                          "url": "http://hl7.org/fhir/StructureDefinition/iso21090-ADXP-streetName",
                          "valueString": "Faßbacher Hof"
                        }
                      ]
                    }
                  ],
                  "city": "Klein Jarno",
                  "postalCode": "13390",
                  "country": "D"
                }
              ]
            }
          },
          {
            "fullUrl": "https://pvs.gematik.de/fhir/Organization/acec0ae7-057c-424d-bf00-44005aadb773",
            "resource": {
              "resourceType": "Organization",
              "id": "acec0ae7-057c-424d-bf00-44005aadb773",
              "meta": {
                "profile": [
                  "https://fhir.kbv.de/StructureDefinition/KBV_PR_FOR_Organization|1.1.0"
                ]
              },
              "identifier": [
                {
                  "type": {
                    "coding": [
                      {
                        "system": "http://terminology.hl7.org/CodeSystem/v2-0203",
                        "code": "BSNR"
                      }
                    ]
                  },
                  "system": "https://fhir.kbv.de/NamingSystem/KBV_NS_Base_BSNR",
                  "value": "517024941"
                }
              ],
              "name": "Arztpraxis Schraßer",
              "telecom": [
                {
                  "system": "phone",
                  "value": "(0287) 434162703"
                },
                {
                  "system": "email",
                  "value": "arne.riekmann@teichmann.name"
                }
              ],
              "address": [
                {
                  "type": "both",
                  "line": ["Ehrlichstr. 63a"],
                  "_line": [
                    {
                      "extension": [
                        {
                          "url": "http://hl7.org/fhir/StructureDefinition/iso21090-ADXP-houseNumber",
                          "valueString": "63a"
                        },
                        {
                          "url": "http://hl7.org/fhir/StructureDefinition/iso21090-ADXP-streetName",
                          "valueString": "Ehrlichstr."
                        }
                      ]
                    }
                  ],
                  "city": "Neupertscheid",
                  "postalCode": "90057",
                  "country": "D"
                }
              ]
            }
          },
          {
            "fullUrl": "https://pvs.gematik.de/fhir/Coverage/e926b111-b178-47ce-a0d0-a3b90d8f05f9",
            "resource": {
              "resourceType": "Coverage",
              "id": "e926b111-b178-47ce-a0d0-a3b90d8f05f9",
              "meta": {
                "profile": [
                  "https://fhir.kbv.de/StructureDefinition/KBV_PR_FOR_Coverage|1.1.0"
                ]
              },
              "extension": [
                {
                  "url": "http://fhir.de/StructureDefinition/gkv/besondere-personengruppe",
                  "valueCoding": {
                    "system": "https://fhir.kbv.de/CodeSystem/KBV_CS_SFHIR_KBV_PERSONENGRUPPE",
                    "code": "00"
                  }
                },
                {
                  "url": "http://fhir.de/StructureDefinition/gkv/dmp-kennzeichen",
                  "valueCoding": {
                    "system": "https://fhir.kbv.de/CodeSystem/KBV_CS_SFHIR_KBV_DMP",
                    "code": "00"
                  }
                },
                {
                  "url": "http://fhir.de/StructureDefinition/gkv/wop",
                  "valueCoding": {
                    "system": "https://fhir.kbv.de/CodeSystem/KBV_CS_SFHIR_ITA_WOP",
                    "code": "47"
                  }
                },
                {
                  "url": "http://fhir.de/StructureDefinition/gkv/versichertenart",
                  "valueCoding": {
                    "system": "https://fhir.kbv.de/CodeSystem/KBV_CS_SFHIR_KBV_VERSICHERTENSTATUS",
                    "code": "1"
                  }
                }
              ],
              "status": "active",
              "type": {
                "coding": [
                  {
                    "system": "http://fhir.de/CodeSystem/versicherungsart-de-basis",
                    "code": "PKV"
                  }
                ]
              },
              "beneficiary": {
                "reference": "Patient/f4e59842-0ac5-4ab0-b11b-691e828f1719"
              },
              "payor": [
                {
                  "identifier": {
                    "system": "http://fhir.de/sid/arge-ik/iknr",
                    "value": "694020414"
                  },
                  "display": "Künstler-Krankenkasse Bayern"
                }
              ]
            }
          },
          {
            "fullUrl": "https://pvs.gematik.de/fhir/Practitioner/b5be9184-087f-42b5-b6d1-c7cd8ed742fa",
            "resource": {
              "resourceType": "Practitioner",
              "id": "b5be9184-087f-42b5-b6d1-c7cd8ed742fa",
              "meta": {
                "profile": [
                  "https://fhir.kbv.de/StructureDefinition/KBV_PR_FOR_Practitioner|1.1.0"
                ]
              },
              "identifier": [
                {
                  "type": {
                    "coding": [
                      {
                        "system": "http://terminology.hl7.org/CodeSystem/v2-0203",
                        "code": "LANR"
                      }
                    ]
                  },
                  "system": "https://fhir.kbv.de/NamingSystem/KBV_NS_Base_ANR",
                  "value": "682037166"
                }
              ],
              "name": [
                {
                  "use": "official",
                  "family": "Schraßer",
                  "_family": {
                    "extension": [
                      {
                        "url": "http://hl7.org/fhir/StructureDefinition/humanname-own-name",
                        "valueString": "Schraßer"
                      }
                    ]
                  },
                  "given": ["Dr."],
                  "prefix": ["Dr."],
                  "_prefix": [
                    {
                      "extension": [
                        {
                          "url": "http://hl7.org/fhir/StructureDefinition/iso21090-EN-qualifier",
                          "valueCode": "AC"
                        }
                      ]
                    }
                  ]
                }
              ],
              "qualification": [
                {
                  "code": {
                    "coding": [
                      {
                        "system": "https://fhir.kbv.de/CodeSystem/KBV_CS_FOR_Qualification_Type",
                        "code": "00"
                      }
                    ]
                  }
                },
                {
                  "code": {
                    "coding": [
                      {
                        "system": "https://fhir.kbv.de/CodeSystem/KBV_CS_FOR_Berufsbezeichnung",
                        "code": "Berufsbezeichnung"
                      }
                    ],
                    "text": "Super-Facharzt für alles Mögliche"
                  }
                }
              ]
            }
          }
        ],
        "signature": {
          "type": [
            {
              "system": "urn:iso-astm:E1762-95:2013",
              "code": "1.2.840.10065.1.12.1.1"
            }
          ],
          "when": "2023-04-18T06:45:41.364+00:00",
          "who": {
            "reference": "https://erp-dev.zentral.erp.splitdns.ti-dienste.de/Device/1"
          },
          "sigFormat": "application/pkcs7-mime",
          "data": ""
        }
      }
    },
    {
      "fullUrl": "urn:uuid:c8e6a81d-0000-0000-0003-000000000000",
      "resource": {
        "resourceType": "Bundle",
        "meta": {
          "profile": [
            "https://gematik.de/fhir/erp/StructureDefinition/GEM_ERP_PR_Bundle|1.2"
          ]
        },
        "identifier": {
          "system": "https://gematik.de/fhir/erp/NamingSystem/GEM_ERP_NS_PrescriptionId",
          "value": "200.000.001.943.782.74"
        },
        "type": "document",
        "timestamp": "2023-04-18T06:45:39.732+00:00",
        "link": [
          {
            "relation": "self",
            "url": "https://erp-dev.zentral.erp.splitdns.ti-dienste.de/Task/200.000.001.943.782.74/$close/"
          }
        ],
        "entry": [
          {
            "fullUrl": "urn:uuid:048ef88b-94e7-4df1-bafb-82d401084ac4",
            "resource": {
              "resourceType": "Composition",
              "id": "048ef88b-94e7-4df1-bafb-82d401084ac4",
              "meta": {
                "profile": [
                  "https://gematik.de/fhir/erp/StructureDefinition/GEM_ERP_PR_Composition|1.2"
                ]
              },
              "extension": [
                {
                  "url": "https://gematik.de/fhir/erp/StructureDefinition/GEM_ERP_EX_Beneficiary",
                  "valueIdentifier": {
                    "system": "https://gematik.de/fhir/sid/telematik-id",
                    "value": "3-SMC-B-Testkarte-883110000116873"
                  }
                }
              ],
              "status": "final",
              "type": {
                "coding": [
                  {
                    "system": "https://gematik.de/fhir/erp/CodeSystem/GEM_ERP_CS_DocumentType",
                    "code": "3",
                    "display": "Receipt"
                  }
                ]
              },
              "date": "2023-04-18T06:45:39.731+00:00",
              "author": [
                {
                  "reference": "https://erp-dev.zentral.erp.splitdns.ti-dienste.de/Device/1"
                }
              ],
              "title": "Quittung",
              "event": [
                {
                  "period": {
                    "start": "2023-04-18T06:45:38.265+00:00",
                    "end": "2023-04-18T06:45:39.731+00:00"
                  }
                }
              ],
              "section": [
                {
                  "entry": [
                    {
                      "reference": "Binary/PrescriptionDigest-200.000.001.943.782.74"
                    }
                  ]
                }
              ]
            }
          },
          {
            "fullUrl": "https://erp-dev.zentral.erp.splitdns.ti-dienste.de/Device/1",
            "resource": {
              "resourceType": "Device",
              "id": "1",
              "meta": {
                "profile": [
                  "https://gematik.de/fhir/erp/StructureDefinition/GEM_ERP_PR_Device|1.2"
                ]
              },
              "status": "active",
              "serialNumber": "1.10.0",
              "deviceName": [
                {
                  "name": "E-Rezept Fachdienst",
                  "type": "user-friendly-name"
                }
              ],
              "version": [
                {
                  "value": "1.10.0"
                }
              ],
              "contact": [
                {
                  "system": "email",
                  "value": "betrieb@gematik.de"
                }
              ]
            }
          },
          {
            "fullUrl": "https://erp-dev.zentral.erp.splitdns.ti-dienste.de/Binary/PrescriptionDigest-200.000.001.943.782.74",
            "resource": {
              "resourceType": "Binary",
              "id": "PrescriptionDigest-200.000.001.943.782.74",
              "meta": {
                "versionId": "1",
                "profile": [
                  "https://gematik.de/fhir/erp/StructureDefinition/GEM_ERP_PR_Digest|1.2"
                ]
              },
              "contentType": "application/octet-stream",
              "data": "Cdja18/aZo+ESdT60iE5qV6xitl60Ydz3bK8MZdPUNI="
            }
          }
        ],
        "signature": {
          "type": [
            {
              "system": "urn:iso-astm:E1762-95:2013",
              "code": "1.2.840.10065.1.12.1.1"
            }
          ],
          "when": "2023-04-18T06:45:41.365+00:00",
          "who": {
            "reference": "https://erp-dev.zentral.erp.splitdns.ti-dienste.de/Device/1"
          },
          "sigFormat": "application/pkcs7-mime",
          "data": ""
        }
      }
    }
  ]
}
