<Bundle xmlns="http://hl7.org/fhir"><id value="85f7cf1c-5df6-4f8d-a729-5a103f8279c6"/><meta><lastUpdated value="2023-03-16T12:49:16.119+01:00"/><profile value="https://fhir.kbv.de/StructureDefinition/KBV_PR_ERP_Bundle|1.0.2"/></meta><identifier><system value="https://gematik.de/fhir/NamingSystem/PrescriptionID"/><value value="160.000.006.300.812.11"/></identifier><type value="document"/><timestamp value="2023-03-16T12:49:16.119+01:00"/><entry><fullUrl value="https://pvs.gematik.de/fhir/Composition/3895a45c-2d3b-4f95-8886-68d41d86538f"/><resource><Composition xmlns="http://hl7.org/fhir"><id value="3895a45c-2d3b-4f95-8886-68d41d86538f"/><meta><profile value="https://fhir.kbv.de/StructureDefinition/KBV_PR_ERP_Composition|1.0.2"/></meta><extension url="https://fhir.kbv.de/StructureDefinition/KBV_EX_FOR_Legal_basis"><valueCoding><system value="https://fhir.kbv.de/CodeSystem/KBV_CS_SFHIR_KBV_STATUSKENNZEICHEN"/><code value="00"/></valueCoding></extension><status value="final"/><type><coding><system value="https://fhir.kbv.de/CodeSystem/KBV_CS_SFHIR_KBV_FORMULAR_ART"/><code value="e16A"/></coding></type><subject><reference value="Patient/148f6ca6-7fdd-4db2-816a-407dd4f3e6ce"/></subject><date value="2023-03-16T12:49:16+01:00"/><author><reference value="Practitioner/b3ad2ff2-f858-4456-afb8-470f647a7e86"/><type value="Practitioner"/></author><author><type value="Device"/><identifier><system value="https://fhir.kbv.de/NamingSystem/KBV_NS_FOR_Pruefnummer"/><value value="GEMATIK/410/2109/36/123"/></identifier></author><title value="elektronische Arzneimittelverordnung"/><custodian><reference value="Organization/7c5d9eaa-ddb9-41e0-abf9-99608c107bdc"/></custodian><section><code><coding><system value="https://fhir.kbv.de/CodeSystem/KBV_CS_ERP_Section_Type"/><code value="Coverage"/></coding></code><entry><reference value="Coverage/9426c457-bbaf-43b1-80f6-ca7cb479b660"/></entry></section><section><code><coding><system value="https://fhir.kbv.de/CodeSystem/KBV_CS_ERP_Section_Type"/><code value="Prescription"/></coding></code><entry><reference value="MedicationRequest/2693e096-9a2d-4ced-a52b-0a4181bac245"/></entry></section></Composition></resource></entry><entry><fullUrl value="https://pvs.gematik.de/fhir/MedicationRequest/2693e096-9a2d-4ced-a52b-0a4181bac245"/><resource><MedicationRequest xmlns="http://hl7.org/fhir"><id value="2693e096-9a2d-4ced-a52b-0a4181bac245"/><meta><profile value="https://fhir.kbv.de/StructureDefinition/KBV_PR_ERP_Prescription|1.0.2"/></meta><extension url="https://fhir.kbv.de/StructureDefinition/KBV_EX_ERP_BVG"><valueBoolean value="false"/></extension><extension url="https://fhir.kbv.de/StructureDefinition/KBV_EX_ERP_EmergencyServicesFee"><valueBoolean value="false"/></extension><extension url="https://fhir.kbv.de/StructureDefinition/KBV_EX_ERP_Multiple_Prescription"><extension url="Kennzeichen"><valueBoolean value="false"/></extension></extension><extension url="https://fhir.kbv.de/StructureDefinition/KBV_EX_ERP_StatusCoPayment"><valueCoding><system value="https://fhir.kbv.de/CodeSystem/KBV_CS_ERP_StatusCoPayment"/><code value="0"/></valueCoding></extension><status value="active"/><intent value="order"/><medicationReference><reference value="Medication/11db02d4-2646-4f14-88cc-c282ef640a9e"/></medicationReference><subject><reference value="Patient/148f6ca6-7fdd-4db2-816a-407dd4f3e6ce"/></subject><authoredOn value="2023-03-16"/><requester><reference value="Practitioner/b3ad2ff2-f858-4456-afb8-470f647a7e86"/></requester><insurance><reference value="Coverage/9426c457-bbaf-43b1-80f6-ca7cb479b660"/></insurance><dosageInstruction><extension url="https://fhir.kbv.de/StructureDefinition/KBV_EX_ERP_DosageFlag"><valueBoolean value="true"/></extension><text value="1-0-0-0"/></dosageInstruction><dispenseRequest><quantity><value value="1"/><system value="http://unitsofmeasure.org"/><code value="{Package}"/></quantity></dispenseRequest><substitution><allowedBoolean value="true"/></substitution></MedicationRequest></resource></entry><entry><fullUrl value="https://pvs.gematik.de/fhir/Medication/11db02d4-2646-4f14-88cc-c282ef640a9e"/><resource><Medication xmlns="http://hl7.org/fhir"><id value="11db02d4-2646-4f14-88cc-c282ef640a9e"/><meta><profile value="https://fhir.kbv.de/StructureDefinition/KBV_PR_ERP_Medication_PZN|1.0.2"/></meta><extension url="https://fhir.kbv.de/StructureDefinition/KBV_EX_ERP_Medication_Category"><valueCoding><system value="https://fhir.kbv.de/CodeSystem/KBV_CS_ERP_Medication_Category"/><code value="00"/></valueCoding></extension><extension url="https://fhir.kbv.de/StructureDefinition/KBV_EX_ERP_Medication_Vaccine"><valueBoolean value="false"/></extension><extension url="http://fhir.de/StructureDefinition/normgroesse"><valueCode value="NB"/></extension><code><coding><system value="http://fhir.de/CodeSystem/ifa/pzn"/><code value="12345678"/></coding><text value="Schmerzmittel"/></code><form><coding><system value="https://fhir.kbv.de/CodeSystem/KBV_CS_SFHIR_KBV_DARREICHUNGSFORM"/><code value="TAB"/></coding></form><amount><numerator><value value="1"/><unit value="Stk"/></numerator><denominator><value value="1"/></denominator></amount></Medication></resource></entry><entry><fullUrl value="https://pvs.gematik.de/fhir/Patient/148f6ca6-7fdd-4db2-816a-407dd4f3e6ce"/><resource><Patient xmlns="http://hl7.org/fhir"><id value="148f6ca6-7fdd-4db2-816a-407dd4f3e6ce"/><meta><profile value="https://fhir.kbv.de/StructureDefinition/KBV_PR_FOR_Patient|1.0.3"/></meta><identifier><type><coding><system value="http://fhir.de/CodeSystem/identifier-type-de-basis"/><code value="GKV"/></coding></type><system value="http://fhir.de/NamingSystem/gkv/kvid-10"/><value value="X110498565"/></identifier><name><use value="official"/><family value="Hüllmann"/><given value="Sina"/></name><birthDate value="1987-02-11"/><address><type value="both"/><line value="Am Scherfenbrand 44c"><extension url="http://hl7.org/fhir/StructureDefinition/iso21090-ADXP-houseNumber"><valueString value="44c"/></extension><extension url="http://hl7.org/fhir/StructureDefinition/iso21090-ADXP-streetName"><valueString value="Am Scherfenbrand"/></extension></line><city value="Langstadt"/><postalCode value="49212"/><country value="D"/></address></Patient></resource></entry><entry><fullUrl value="https://pvs.gematik.de/fhir/Organization/7c5d9eaa-ddb9-41e0-abf9-99608c107bdc"/><resource><Organization xmlns="http://hl7.org/fhir"><id value="7c5d9eaa-ddb9-41e0-abf9-99608c107bdc"/><meta><profile value="https://fhir.kbv.de/StructureDefinition/KBV_PR_FOR_Organization|1.0.3"/></meta><identifier><type><coding><system value="http://terminology.hl7.org/CodeSystem/v2-0203"/><code value="BSNR"/></coding></type><system value="https://fhir.kbv.de/NamingSystem/KBV_NS_Base_BSNR"/><value value="463149424"/></identifier><name value="Arztpraxis Schraßer"/><telecom><system value="phone"/><value value="(0455) 760430902"/></telecom><telecom><system value="email"/><value value="klara.berning@breitenstein.com"/></telecom><address><type value="both"/><line value="Lippe 23b"><extension url="http://hl7.org/fhir/StructureDefinition/iso21090-ADXP-houseNumber"><valueString value="23b"/></extension><extension url="http://hl7.org/fhir/StructureDefinition/iso21090-ADXP-streetName"><valueString value="Lippe"/></extension></line><city value="Sarahberg"/><postalCode value="93516"/><country value="D"/></address></Organization></resource></entry><entry><fullUrl value="https://pvs.gematik.de/fhir/Coverage/9426c457-bbaf-43b1-80f6-ca7cb479b660"/><resource><Coverage xmlns="http://hl7.org/fhir"><id value="9426c457-bbaf-43b1-80f6-ca7cb479b660"/><meta><profile value="https://fhir.kbv.de/StructureDefinition/KBV_PR_FOR_Coverage|1.0.3"/></meta><extension url="http://fhir.de/StructureDefinition/gkv/besondere-personengruppe"><valueCoding><system value="https://fhir.kbv.de/CodeSystem/KBV_CS_SFHIR_KBV_PERSONENGRUPPE"/><code value="00"/></valueCoding></extension><extension url="http://fhir.de/StructureDefinition/gkv/dmp-kennzeichen"><valueCoding><system value="https://fhir.kbv.de/CodeSystem/KBV_CS_SFHIR_KBV_DMP"/><code value="00"/></valueCoding></extension><extension url="http://fhir.de/StructureDefinition/gkv/wop"><valueCoding><system value="https://fhir.kbv.de/CodeSystem/KBV_CS_SFHIR_ITA_WOP"/><code value="17"/></valueCoding></extension><extension url="http://fhir.de/StructureDefinition/gkv/versichertenart"><valueCoding><system value="https://fhir.kbv.de/CodeSystem/KBV_CS_SFHIR_KBV_VERSICHERTENSTATUS"/><code value="1"/></valueCoding></extension><status value="active"/><type><coding><system value="http://fhir.de/CodeSystem/versicherungsart-de-basis"/><code value="GKV"/></coding></type><beneficiary><reference value="Patient/2af1477b-20bc-4fb5-bc0a-86046d88ef49"/></beneficiary><payor><identifier><system value="http://fhir.de/NamingSystem/arge-ik/iknr"/><value value="571298100"/></identifier><display value="Farmer Nordwürttemberg"/></payor></Coverage></resource></entry><entry><fullUrl value="https://pvs.gematik.de/fhir/Practitioner/b3ad2ff2-f858-4456-afb8-470f647a7e86"/><resource><Practitioner xmlns="http://hl7.org/fhir"><id value="b3ad2ff2-f858-4456-afb8-470f647a7e86"/><meta><profile value="https://fhir.kbv.de/StructureDefinition/KBV_PR_FOR_Practitioner|1.0.3"/></meta><identifier><type><coding><system value="http://terminology.hl7.org/CodeSystem/v2-0203"/><code value="LANR"/></coding></type><system value="https://fhir.kbv.de/NamingSystem/KBV_NS_Base_ANR"/><value value="509748356"/></identifier><name><use value="official"/><family value="Schraßer"/><given value="Dr."/><prefix value="Dr."><extension url="http://hl7.org/fhir/StructureDefinition/iso21090-EN-qualifier"><valueCode value="AC"/></extension></prefix></name><qualification><code><coding><system value="https://fhir.kbv.de/CodeSystem/KBV_CS_FOR_Qualification_Type"/><code value="00"/></coding></code></qualification><qualification><code><text value="Super-Facharzt für alles Mögliche"/></code></qualification></Practitioner></resource></entry></Bundle>