{
  "resourceType": "Bundle",
  "id": "639b77a9-cb45-4cd0-9d6c-795e4e1087cd",
  "type": "collection",
  "timestamp": "2023-03-16T11:48:43.745+00:00",
  "link": [
    {
      "relation": "self",
      "url": "https://erp-test.zentral.erp.splitdns.ti-dienste.de/Task/160.000.006.300.807.26"
    }
  ],
  "entry": [
    {
      "fullUrl": "https://erp-test.zentral.erp.splitdns.ti-dienste.de/Task/160.000.006.300.807.26",
      "resource": {
        "resourceType": "Task",
        "id": "160.000.006.300.807.26",
        "meta": {
          "profile": [
            "https://gematik.de/fhir/StructureDefinition/ErxTask|1.1.1"
          ]
        },
        "extension": [
          {
            "url": "https://gematik.de/fhir/StructureDefinition/PrescriptionType",
            "valueCoding": {
              "system": "https://gematik.de/fhir/CodeSystem/Flowtype",
              "code": "160",
              "display": "Muster 16 (Apothekenpflichtige Arzneimittel)"
            }
          },
          {
            "url": "https://gematik.de/fhir/StructureDefinition/ExpiryDate",
            "valueDate": "2023-06-16"
          },
          {
            "url": "https://gematik.de/fhir/StructureDefinition/AcceptDate",
            "valueDate": "2023-04-13"
          }
        ],
        "identifier": [
          {
            "use": "official",
            "system": "https://gematik.de/fhir/NamingSystem/PrescriptionID",
            "value": "160.000.006.300.807.26"
          },
          {
            "use": "official",
            "system": "https://gematik.de/fhir/NamingSystem/AccessCode",
            "value": "f00dd2799ce15215b69d4bcbef5ef176d467c9bca3f66ebafda67fda371eae03"
          }
        ],
        "status": "ready",
        "intent": "order",
        "for": {
          "identifier": {
            "system": "http://fhir.de/NamingSystem/gkv/kvid-10",
            "value": "X110498565"
          }
        },
        "authoredOn": "2023-03-16T11:48:42.788+00:00",
        "lastModified": "2023-03-16T11:48:43.120+00:00",
        "performerType": [
          {
            "coding": [
              {
                "system": "urn:ietf:rfc:3986",
                "code": "urn:oid:1.2.276.0.76.4.54",
                "display": "Öffentliche Apotheke"
              }
            ],
            "text": "Öffentliche Apotheke"
          }
        ],
        "input": [
          {
            "type": {
              "coding": [
                {
                  "system": "https://gematik.de/fhir/CodeSystem/Documenttype",
                  "code": "2"
                }
              ]
            },
            "valueReference": {
              "reference": "a0872460-0000-0000-0002-000000000000"
            }
          }
        ]
      }
    },
    {
      "fullUrl": "urn:uuid:a0872460-0000-0000-0002-000000000000",
      "resource": {
        "resourceType": "Bundle",
        "meta": {
          "lastUpdated": "2023-03-16T12:48:41.824+01:00",
          "profile": [
            "https://fhir.kbv.de/StructureDefinition/KBV_PR_ERP_Bundle|1.0.2"
          ]
        },
        "identifier": {
          "system": "https://gematik.de/fhir/NamingSystem/PrescriptionID",
          "value": "160.000.006.300.807.26"
        },
        "type": "document",
        "timestamp": "2023-03-16T12:48:41.824+01:00",
        "entry": [
          {
            "fullUrl": "https://pvs.gematik.de/fhir/Composition/8ea1fa3e-fccf-48d8-abab-becc12ba7c21",
            "resource": {
              "resourceType": "Composition",
              "id": "8ea1fa3e-fccf-48d8-abab-becc12ba7c21",
              "meta": {
                "profile": [
                  "https://fhir.kbv.de/StructureDefinition/KBV_PR_ERP_Composition|1.0.2"
                ]
              },
              "extension": [
                {
                  "url": "https://fhir.kbv.de/StructureDefinition/KBV_EX_FOR_Legal_basis",
                  "valueCoding": {
                    "system": "https://fhir.kbv.de/CodeSystem/KBV_CS_SFHIR_KBV_STATUSKENNZEICHEN",
                    "code": "00"
                  }
                }
              ],
              "status": "final",
              "type": {
                "coding": [
                  {
                    "system": "https://fhir.kbv.de/CodeSystem/KBV_CS_SFHIR_KBV_FORMULAR_ART",
                    "code": "e16A"
                  }
                ]
              },
              "subject": {
                "reference": "Patient/0dd4a908-0870-433c-be66-2cc3368db622"
              },
              "date": "2023-03-16T12:48:41+01:00",
              "author": [
                {
                  "reference": "Practitioner/a0133490-b8b8-4d62-a833-0a7417a25b12",
                  "type": "Practitioner"
                },
                {
                  "type": "Device",
                  "identifier": {
                    "system": "https://fhir.kbv.de/NamingSystem/KBV_NS_FOR_Pruefnummer",
                    "value": "GEMATIK/410/2109/36/123"
                  }
                }
              ],
              "title": "elektronische Arzneimittelverordnung",
              "custodian": {
                "reference": "Organization/76a81256-379d-4070-adf9-b701f3dd5d7a"
              },
              "section": [
                {
                  "code": {
                    "coding": [
                      {
                        "system": "https://fhir.kbv.de/CodeSystem/KBV_CS_ERP_Section_Type",
                        "code": "Coverage"
                      }
                    ]
                  },
                  "entry": [
                    {
                      "reference": "Coverage/e89bfb49-6b29-4f70-97fc-35ed07a38a06"
                    }
                  ]
                },
                {
                  "code": {
                    "coding": [
                      {
                        "system": "https://fhir.kbv.de/CodeSystem/KBV_CS_ERP_Section_Type",
                        "code": "Prescription"
                      }
                    ]
                  },
                  "entry": [
                    {
                      "reference": "MedicationRequest/e02fa633-f5ca-40bb-8f73-2339ef3e1cf5"
                    }
                  ]
                }
              ]
            }
          },
          {
            "fullUrl": "https://pvs.gematik.de/fhir/MedicationRequest/e02fa633-f5ca-40bb-8f73-2339ef3e1cf5",
            "resource": {
              "resourceType": "MedicationRequest",
              "id": "e02fa633-f5ca-40bb-8f73-2339ef3e1cf5",
              "meta": {
                "profile": [
                  "https://fhir.kbv.de/StructureDefinition/KBV_PR_ERP_Prescription|1.0.2"
                ]
              },
              "extension": [
                {
                  "url": "https://fhir.kbv.de/StructureDefinition/KBV_EX_ERP_BVG",
                  "valueBoolean": false
                },
                {
                  "url": "https://fhir.kbv.de/StructureDefinition/KBV_EX_ERP_EmergencyServicesFee",
                  "valueBoolean": false
                },
                {
                  "url": "https://fhir.kbv.de/StructureDefinition/KBV_EX_ERP_Multiple_Prescription",
                  "extension": [
                    {
                      "url": "Kennzeichen",
                      "valueBoolean": false
                    }
                  ]
                },
                {
                  "url": "https://fhir.kbv.de/StructureDefinition/KBV_EX_ERP_StatusCoPayment",
                  "valueCoding": {
                    "system": "https://fhir.kbv.de/CodeSystem/KBV_CS_ERP_StatusCoPayment",
                    "code": "0"
                  }
                }
              ],
              "status": "active",
              "intent": "order",
              "medicationReference": {
                "reference": "Medication/1e9b8677-3a1d-4a2e-9f9b-10638d958c90"
              },
              "subject": {
                "reference": "Patient/0dd4a908-0870-433c-be66-2cc3368db622"
              },
              "authoredOn": "2023-03-16",
              "requester": {
                "reference": "Practitioner/a0133490-b8b8-4d62-a833-0a7417a25b12"
              },
              "insurance": [
                {
                  "reference": "Coverage/e89bfb49-6b29-4f70-97fc-35ed07a38a06"
                }
              ],
              "dosageInstruction": [
                {
                  "extension": [
                    {
                      "url": "https://fhir.kbv.de/StructureDefinition/KBV_EX_ERP_DosageFlag",
                      "valueBoolean": true
                    }
                  ],
                  "text": "1-0-0-0"
                }
              ],
              "dispenseRequest": {
                "quantity": {
                  "value": 1,
                  "system": "http://unitsofmeasure.org",
                  "code": "{Package}"
                }
              },
              "substitution": {
                "allowedBoolean": true
              }
            }
          },
          {
            "fullUrl": "https://pvs.gematik.de/fhir/Medication/1e9b8677-3a1d-4a2e-9f9b-10638d958c90",
            "resource": {
              "resourceType": "Medication",
              "id": "1e9b8677-3a1d-4a2e-9f9b-10638d958c90",
              "meta": {
                "profile": [
                  "https://fhir.kbv.de/StructureDefinition/KBV_PR_ERP_Medication_PZN|1.0.2"
                ]
              },
              "extension": [
                {
                  "url": "https://fhir.kbv.de/StructureDefinition/KBV_EX_ERP_Medication_Category",
                  "valueCoding": {
                    "system": "https://fhir.kbv.de/CodeSystem/KBV_CS_ERP_Medication_Category",
                    "code": "00"
                  }
                },
                {
                  "url": "https://fhir.kbv.de/StructureDefinition/KBV_EX_ERP_Medication_Vaccine",
                  "valueBoolean": false
                },
                {
                  "url": "http://fhir.de/StructureDefinition/normgroesse",
                  "valueCode": "NB"
                }
              ],
              "code": {
                "coding": [
                  {
                    "system": "http://fhir.de/CodeSystem/ifa/pzn",
                    "code": "12345678"
                  }
                ],
                "text": "Schmerzmittel"
              },
              "form": {
                "coding": [
                  {
                    "system": "https://fhir.kbv.de/CodeSystem/KBV_CS_SFHIR_KBV_DARREICHUNGSFORM",
                    "code": "TAB"
                  }
                ]
              },
              "amount": {
                "numerator": {
                  "value": 1,
                  "unit": "Stk"
                },
                "denominator": {
                  "value": 1
                }
              }
            }
          },
          {
            "fullUrl": "https://pvs.gematik.de/fhir/Patient/0dd4a908-0870-433c-be66-2cc3368db622",
            "resource": {
              "resourceType": "Patient",
              "id": "0dd4a908-0870-433c-be66-2cc3368db622",
              "meta": {
                "profile": [
                  "https://fhir.kbv.de/StructureDefinition/KBV_PR_FOR_Patient|1.0.3"
                ]
              },
              "identifier": [
                {
                  "type": {
                    "coding": [
                      {
                        "system": "http://fhir.de/CodeSystem/identifier-type-de-basis",
                        "code": "GKV"
                      }
                    ]
                  },
                  "system": "http://fhir.de/NamingSystem/gkv/kvid-10",
                  "value": "X110498565"
                }
              ],
              "name": [
                {
                  "use": "official",
                  "family": "Hüllmann",
                  "given": ["Sina"]
                }
              ],
              "birthDate": "1995-12-26",
              "address": [
                {
                  "type": "both",
                  "line": ["In Holzhausen 09b"],
                  "_line": [
                    {
                      "extension": [
                        {
                          "url": "http://hl7.org/fhir/StructureDefinition/iso21090-ADXP-houseNumber",
                          "valueString": "09b"
                        },
                        {
                          "url": "http://hl7.org/fhir/StructureDefinition/iso21090-ADXP-streetName",
                          "valueString": "In Holzhausen"
                        }
                      ]
                    }
                  ],
                  "city": "Bad Marahagen",
                  "postalCode": "18359",
                  "country": "D"
                }
              ]
            }
          },
          {
            "fullUrl": "https://pvs.gematik.de/fhir/Organization/76a81256-379d-4070-adf9-b701f3dd5d7a",
            "resource": {
              "resourceType": "Organization",
              "id": "76a81256-379d-4070-adf9-b701f3dd5d7a",
              "meta": {
                "profile": [
                  "https://fhir.kbv.de/StructureDefinition/KBV_PR_FOR_Organization|1.0.3"
                ]
              },
              "identifier": [
                {
                  "type": {
                    "coding": [
                      {
                        "system": "http://terminology.hl7.org/CodeSystem/v2-0203",
                        "code": "BSNR"
                      }
                    ]
                  },
                  "system": "https://fhir.kbv.de/NamingSystem/KBV_NS_Base_BSNR",
                  "value": "722710143"
                }
              ],
              "name": "Arztpraxis Schraßer",
              "telecom": [
                {
                  "system": "phone",
                  "value": "+49-984-3360114"
                },
                {
                  "system": "email",
                  "value": "luana.bouschen@zauber.net"
                }
              ],
              "address": [
                {
                  "type": "both",
                  "line": ["Menchendahler Str. 21a"],
                  "_line": [
                    {
                      "extension": [
                        {
                          "url": "http://hl7.org/fhir/StructureDefinition/iso21090-ADXP-houseNumber",
                          "valueString": "21a"
                        },
                        {
                          "url": "http://hl7.org/fhir/StructureDefinition/iso21090-ADXP-streetName",
                          "valueString": "Menchendahler Str."
                        }
                      ]
                    }
                  ],
                  "city": "Juanbrunn",
                  "postalCode": "72106",
                  "country": "D"
                }
              ]
            }
          },
          {
            "fullUrl": "https://pvs.gematik.de/fhir/Coverage/e89bfb49-6b29-4f70-97fc-35ed07a38a06",
            "resource": {
              "resourceType": "Coverage",
              "id": "e89bfb49-6b29-4f70-97fc-35ed07a38a06",
              "meta": {
                "profile": [
                  "https://fhir.kbv.de/StructureDefinition/KBV_PR_FOR_Coverage|1.0.3"
                ]
              },
              "extension": [
                {
                  "url": "http://fhir.de/StructureDefinition/gkv/besondere-personengruppe",
                  "valueCoding": {
                    "system": "https://fhir.kbv.de/CodeSystem/KBV_CS_SFHIR_KBV_PERSONENGRUPPE",
                    "code": "00"
                  }
                },
                {
                  "url": "http://fhir.de/StructureDefinition/gkv/dmp-kennzeichen",
                  "valueCoding": {
                    "system": "https://fhir.kbv.de/CodeSystem/KBV_CS_SFHIR_KBV_DMP",
                    "code": "00"
                  }
                },
                {
                  "url": "http://fhir.de/StructureDefinition/gkv/wop",
                  "valueCoding": {
                    "system": "https://fhir.kbv.de/CodeSystem/KBV_CS_SFHIR_ITA_WOP",
                    "code": "98"
                  }
                },
                {
                  "url": "http://fhir.de/StructureDefinition/gkv/versichertenart",
                  "valueCoding": {
                    "system": "https://fhir.kbv.de/CodeSystem/KBV_CS_SFHIR_KBV_VERSICHERTENSTATUS",
                    "code": "1"
                  }
                }
              ],
              "status": "active",
              "type": {
                "coding": [
                  {
                    "system": "http://fhir.de/CodeSystem/versicherungsart-de-basis",
                    "code": "GKV"
                  }
                ]
              },
              "beneficiary": {
                "reference": "Patient/2a8cc296-3d30-4057-a829-d8b5abccdc38"
              },
              "payor": [
                {
                  "identifier": {
                    "system": "http://fhir.de/NamingSystem/arge-ik/iknr",
                    "value": "582097023"
                  },
                  "display": "KVED Krankenversicherungs-AG Baden-Württember"
                }
              ]
            }
          },
          {
            "fullUrl": "https://pvs.gematik.de/fhir/Practitioner/a0133490-b8b8-4d62-a833-0a7417a25b12",
            "resource": {
              "resourceType": "Practitioner",
              "id": "a0133490-b8b8-4d62-a833-0a7417a25b12",
              "meta": {
                "profile": [
                  "https://fhir.kbv.de/StructureDefinition/KBV_PR_FOR_Practitioner|1.0.3"
                ]
              },
              "identifier": [
                {
                  "type": {
                    "coding": [
                      {
                        "system": "http://terminology.hl7.org/CodeSystem/v2-0203",
                        "code": "LANR"
                      }
                    ]
                  },
                  "system": "https://fhir.kbv.de/NamingSystem/KBV_NS_Base_ANR",
                  "value": "435428124"
                }
              ],
              "name": [
                {
                  "use": "official",
                  "family": "Schraßer",
                  "given": ["Dr."],
                  "prefix": ["Dr."],
                  "_prefix": [
                    {
                      "extension": [
                        {
                          "url": "http://hl7.org/fhir/StructureDefinition/iso21090-EN-qualifier",
                          "valueCode": "AC"
                        }
                      ]
                    }
                  ]
                }
              ],
              "qualification": [
                {
                  "code": {
                    "coding": [
                      {
                        "system": "https://fhir.kbv.de/CodeSystem/KBV_CS_FOR_Qualification_Type",
                        "code": "00"
                      }
                    ]
                  }
                },
                {
                  "code": {
                    "text": "Super-Facharzt für alles Mögliche"
                  }
                }
              ]
            }
          }
        ],
        "signature": {
          "type": [
            {
              "system": "urn:iso-astm:E1762-95:2013",
              "code": "1.2.840.10065.1.12.1.5"
            }
          ],
          "when": "2023-03-16T11:48:43.745+00:00",
          "who": {
            "reference": "https://erp-test.zentral.erp.splitdns.ti-dienste.de/Device/1"
          },
          "targetFormat": "application/fhir+json",
          "sigFormat": "application/jose",
          "data": ""
        }
      }
    }
  ]
}
