{
  "resourceType" : "Bundle",
  "id" : "87c9718d-b64d-4364-9205-131e074095f7",
  "type" : "collection",
  "timestamp" : "2024-02-08T18:16:12.648+00:00",
  "entry" : [ {
    "fullUrl" : "https://erp-ref.zentral.erp.splitdns.ti-dienste.de/ChargeItem/200.000.002.096.534.46",
    "resource" : {
      "resourceType" : "ChargeItem",
      "id" : "200.000.002.096.534.46",
      "meta" : {
        "profile" : [ "https://gematik.de/fhir/erpchrg/StructureDefinition/GEM_ERPCHRG_PR_ChargeItem|1.0" ]
      },
      "identifier" : [ {
        "system" : "https://gematik.de/fhir/erp/NamingSystem/GEM_ERP_NS_AccessCode",
        "value" : "854046fb73c8ba3c5f55cae6c1355a3a7d6bebe68ee1f20075795b448b84e928"
      }, {
        "system" : "https://gematik.de/fhir/erp/NamingSystem/GEM_ERP_NS_PrescriptionId",
        "value" : "200.000.002.096.534.46"
      } ],
      "status" : "billable",
      "code" : {
        "coding" : [ {
          "system" : "http://terminology.hl7.org/CodeSystem/data-absent-reason",
          "code" : "not-applicable"
        } ]
      },
      "subject" : {
        "identifier" : {
          "system" : "http://fhir.de/sid/pkv/kvid-10",
          "value" : "X110465770"
        }
      },
      "enterer" : {
        "identifier" : {
          "system" : "https://gematik.de/fhir/sid/telematik-id",
          "value" : "3-SMC-B-Testkarte-883110000116873"
        }
      },
      "enteredDate" : "2024-02-08T18:16:12.554+00:00",
      "supportingInformation" : [ {
        "reference" : "urn:uuid:c896fd1f-0000-0000-0001-000000000000",
        "display" : "https://fhir.kbv.de/StructureDefinition/KBV_PR_ERP_Bundle"
      }, {
        "reference" : "urn:uuid:c896fd1f-0000-0000-0004-000000000000",
        "display" : "http://fhir.abda.de/eRezeptAbgabedaten/StructureDefinition/DAV-PKV-PR-ERP-AbgabedatenBundle"
      }, {
        "reference" : "urn:uuid:c896fd1f-0000-0000-0003-000000000000",
        "display" : "https://gematik.de/fhir/erp/StructureDefinition/GEM_ERP_PR_Bundle"
      } ]
    }
  }, {
    "fullUrl" : "urn:uuid:c896fd1f-0000-0000-0004-000000000000",
    "resource" : {
      "resourceType" : "Bundle",
      "id" : "08b2636e-0829-4bdc-95a0-c926fba718e8",
      "meta" : {
        "lastUpdated" : "2024-02-08T19:16:10.942+01:00",
        "profile" : [ "http://fhir.abda.de/eRezeptAbgabedaten/StructureDefinition/DAV-PKV-PR-ERP-AbgabedatenBundle|1.4" ]
      },
      "identifier" : {
        "system" : "https://gematik.de/fhir/erp/NamingSystem/GEM_ERP_NS_PrescriptionId",
        "value" : "200.000.002.096.534.46"
      },
      "type" : "document",
      "timestamp" : "2024-02-08T19:16:10.942+01:00",
      "entry" : [ {
        "fullUrl" : "urn:uuid:3ddc9638-cd0b-4ba1-82dd-9117eb388c3c",
        "resource" : {
          "resourceType" : "Composition",
          "meta" : {
            "profile" : [ "http://fhir.abda.de/eRezeptAbgabedaten/StructureDefinition/DAV-PKV-PR-ERP-AbgabedatenComposition|1.4" ]
          },
          "status" : "final",
          "type" : {
            "coding" : [ {
              "system" : "http://fhir.abda.de/eRezeptAbgabedaten/CodeSystem/DAV-CS-ERP-CompositionTypes",
              "code" : "ERezeptAbgabedaten"
            } ]
          },
          "date" : "2024-02-08T19:16:10+01:00",
          "author" : [ {
            "reference" : "urn:uuid:6b8ff341-cfbc-43b9-a074-852c7b8b9ee2"
          } ],
          "title" : "ERezeptAbgabedaten",
          "section" : [ {
            "title" : "Apotheke",
            "entry" : [ {
              "reference" : "urn:uuid:6b8ff341-cfbc-43b9-a074-852c7b8b9ee2"
            } ]
          }, {
            "title" : "Abgabeinformationen",
            "entry" : [ {
              "reference" : "urn:uuid:d8cf0292-9201-4f41-9738-b847079a20a2"
            } ]
          } ]
        }
      }, {
        "fullUrl" : "urn:uuid:6b8ff341-cfbc-43b9-a074-852c7b8b9ee2",
        "resource" : {
          "resourceType" : "Organization",
          "meta" : {
            "profile" : [ "http://fhir.abda.de/eRezeptAbgabedaten/StructureDefinition/DAV-PKV-PR-ERP-Apotheke|1.4" ]
          },
          "identifier" : [ {
            "system" : "http://fhir.de/sid/arge-ik/iknr",
            "value" : "985327551"
          } ],
          "name" : "Apotheke Misty Meanor",
          "address" : [ {
            "type" : "physical",
            "line" : [ "Stettiner Str. 61a" ],
            "_line" : [ {
              "extension" : [ {
                "url" : "http://hl7.org/fhir/StructureDefinition/iso21090-ADXP-houseNumber",
                "valueString" : "61a"
              }, {
                "url" : "http://hl7.org/fhir/StructureDefinition/iso21090-ADXP-streetName",
                "valueString" : "Stettiner Str."
              } ]
            } ],
            "city" : "Leiststadt",
            "postalCode" : "99819",
            "country" : "D"
          } ]
        }
      }, {
        "fullUrl" : "urn:uuid:ded759b6-1483-4fda-b4f2-c0ae07a7d5bb",
        "resource" : {
          "resourceType" : "Invoice",
          "meta" : {
            "profile" : [ "http://fhir.abda.de/eRezeptAbgabedaten/StructureDefinition/DAV-PKV-PR-ERP-Abrechnungszeilen|1.4" ]
          },
          "status" : "issued",
          "type" : {
            "coding" : [ {
              "system" : "http://fhir.abda.de/eRezeptAbgabedaten/CodeSystem/DAV-CS-ERP-InvoiceTyp",
              "code" : "Abrechnungszeilen"
            } ]
          },
          "lineItem" : [ {
            "sequence" : 1,
            "chargeItemCodeableConcept" : {
              "coding" : [ {
                "system" : "http://fhir.de/CodeSystem/ifa/pzn",
                "code" : "80141074"
              } ],
              "text" : "Flurimoxalon"
            },
            "priceComponent" : [ {
              "extension" : [ {
                "url" : "http://fhir.abda.de/eRezeptAbgabedaten/StructureDefinition/DAV-EX-ERP-KostenVersicherter",
                "extension" : [ {
                  "url" : "Kategorie",
                  "valueCodeableConcept" : {
                    "coding" : [ {
                      "system" : "http://fhir.abda.de/eRezeptAbgabedaten/CodeSystem/DAV-PKV-CS-ERP-KostenVersicherterKategorie",
                      "code" : "0"
                    } ]
                  }
                }, {
                  "url" : "Kostenbetrag",
                  "valueMoney" : {
                    "value" : 2.34,
                    "currency" : "EUR"
                  }
                } ]
              }, {
                "url" : "http://fhir.abda.de/eRezeptAbgabedaten/StructureDefinition/DAV-EX-ERP-MwStSatz",
                "valueDecimal" : 23.89
              } ],
              "type" : "informational",
              "factor" : 1,
              "amount" : {
                "value" : 4.17,
                "currency" : "EUR"
              }
            } ]
          }, {
            "sequence" : 2,
            "chargeItemCodeableConcept" : {
              "coding" : [ {
                "system" : "http://fhir.de/CodeSystem/ifa/pzn",
                "code" : "56838873"
              } ],
              "text" : "Capalirat"
            },
            "priceComponent" : [ {
              "extension" : [ {
                "url" : "http://fhir.abda.de/eRezeptAbgabedaten/StructureDefinition/DAV-EX-ERP-KostenVersicherter",
                "extension" : [ {
                  "url" : "Kategorie",
                  "valueCodeableConcept" : {
                    "coding" : [ {
                      "system" : "http://fhir.abda.de/eRezeptAbgabedaten/CodeSystem/DAV-PKV-CS-ERP-KostenVersicherterKategorie",
                      "code" : "0"
                    } ]
                  }
                }, {
                  "url" : "Kostenbetrag",
                  "valueMoney" : {
                    "value" : 32.01,
                    "currency" : "EUR"
                  }
                } ]
              }, {
                "url" : "http://fhir.abda.de/eRezeptAbgabedaten/StructureDefinition/DAV-EX-ERP-MwStSatz",
                "valueDecimal" : 23.89
              } ],
              "type" : "informational",
              "factor" : 1,
              "amount" : {
                "value" : 80.66,
                "currency" : "EUR"
              }
            } ]
          }, {
            "sequence" : 3,
            "chargeItemCodeableConcept" : {
              "coding" : [ {
                "system" : "http://fhir.de/CodeSystem/ifa/pzn",
                "code" : "66069832"
              } ],
              "text" : "Cabalizol"
            },
            "priceComponent" : [ {
              "extension" : [ {
                "url" : "http://fhir.abda.de/eRezeptAbgabedaten/StructureDefinition/DAV-EX-ERP-KostenVersicherter",
                "extension" : [ {
                  "url" : "Kategorie",
                  "valueCodeableConcept" : {
                    "coding" : [ {
                      "system" : "http://fhir.abda.de/eRezeptAbgabedaten/CodeSystem/DAV-PKV-CS-ERP-KostenVersicherterKategorie",
                      "code" : "0"
                    } ]
                  }
                }, {
                  "url" : "Kostenbetrag",
                  "valueMoney" : {
                    "value" : 353.38,
                    "currency" : "EUR"
                  }
                } ]
              }, {
                "url" : "http://fhir.abda.de/eRezeptAbgabedaten/StructureDefinition/DAV-EX-ERP-MwStSatz",
                "valueDecimal" : 23.89
              } ],
              "type" : "informational",
              "factor" : 1,
              "amount" : {
                "value" : 354.44,
                "currency" : "EUR"
              }
            } ]
          } ],
          "totalGross" : {
            "extension" : [ {
              "url" : "http://fhir.abda.de/eRezeptAbgabedaten/StructureDefinition/DAV-EX-ERP-Gesamtzuzahlung",
              "valueMoney" : {
                "value" : 387.73,
                "currency" : "EUR"
              }
            } ],
            "value" : 439.27,
            "currency" : "EUR"
          }
        }
      }, {
        "fullUrl" : "urn:uuid:d8cf0292-9201-4f41-9738-b847079a20a2",
        "resource" : {
          "resourceType" : "MedicationDispense",
          "meta" : {
            "profile" : [ "http://fhir.abda.de/eRezeptAbgabedaten/StructureDefinition/DAV-PKV-PR-ERP-Abgabeinformationen|1.4" ]
          },
          "extension" : [ {
            "url" : "http://fhir.abda.de/eRezeptAbgabedaten/StructureDefinition/DAV-PKV-EX-ERP-AbrechnungsTyp",
            "valueCodeableConcept" : {
              "coding" : [ {
                "system" : "http://fhir.abda.de/eRezeptAbgabedaten/CodeSystem/DAV-PKV-CS-ERP-AbrechnungsTyp",
                "code" : "1"
              } ]
            }
          }, {
            "url" : "http://fhir.abda.de/eRezeptAbgabedaten/StructureDefinition/DAV-EX-ERP-Abrechnungszeilen",
            "valueReference" : {
              "reference" : "urn:uuid:ded759b6-1483-4fda-b4f2-c0ae07a7d5bb"
            }
          } ],
          "status" : "completed",
          "medicationCodeableConcept" : {
            "coding" : [ {
              "system" : "http://terminology.hl7.org/CodeSystem/data-absent-reason",
              "code" : "not-applicable"
            } ]
          },
          "performer" : [ {
            "actor" : {
              "reference" : "urn:uuid:6b8ff341-cfbc-43b9-a074-852c7b8b9ee2"
            }
          } ],
          "authorizingPrescription" : [ {
            "identifier" : {
              "system" : "https://gematik.de/fhir/erp/NamingSystem/GEM_ERP_NS_PrescriptionId",
              "value" : "200.000.002.096.534.46"
            }
          } ],
          "type" : {
            "coding" : [ {
              "system" : "http://fhir.abda.de/eRezeptAbgabedaten/CodeSystem/DAV-CS-ERP-MedicationDispenseTyp",
              "code" : "Abgabeinformationen"
            } ]
          },
          "whenHandedOver" : "2024-02-08"
        }
      } ],
      "signature" : {
        "type" : [ {
          "system" : "urn:iso-astm:E1762-95:2013",
          "code" : "1.2.840.10065.1.12.1.1"
        } ],
        "when" : "2024-02-08T18:16:12.682+00:00",
        "who" : {
          "reference" : "https://erp-ref.zentral.erp.splitdns.ti-dienste.de/Device/1"
        },
        "sigFormat" : "application/pkcs7-mime",
        "data" : ""
      }
    }
  }, {
    "fullUrl" : "urn:uuid:c896fd1f-0000-0000-0001-000000000000",
    "resource" : {
      "resourceType" : "Bundle",
      "id" : "4d68c364-8926-44de-8ffd-b17756755efa",
      "meta" : {
        "lastUpdated" : "2024-02-08T19:16:08.099+01:00",
        "profile" : [ "https://fhir.kbv.de/StructureDefinition/KBV_PR_ERP_Bundle|1.1.0" ]
      },
      "identifier" : {
        "system" : "https://gematik.de/fhir/erp/NamingSystem/GEM_ERP_NS_PrescriptionId",
        "value" : "200.000.002.096.534.46"
      },
      "type" : "document",
      "timestamp" : "2024-02-08T19:16:08.099+01:00",
      "entry" : [ {
        "fullUrl" : "https://pvs.gematik.de/fhir/Composition/e0534847-3b69-4376-b26a-9e8926ebc358",
        "resource" : {
          "resourceType" : "Composition",
          "id" : "e0534847-3b69-4376-b26a-9e8926ebc358",
          "meta" : {
            "profile" : [ "https://fhir.kbv.de/StructureDefinition/KBV_PR_ERP_Composition|1.1.0" ]
          },
          "extension" : [ {
            "url" : "https://fhir.kbv.de/StructureDefinition/KBV_EX_FOR_Legal_basis",
            "valueCoding" : {
              "system" : "https://fhir.kbv.de/CodeSystem/KBV_CS_SFHIR_KBV_STATUSKENNZEICHEN",
              "code" : "00"
            }
          } ],
          "status" : "final",
          "type" : {
            "coding" : [ {
              "system" : "https://fhir.kbv.de/CodeSystem/KBV_CS_SFHIR_KBV_FORMULAR_ART",
              "code" : "e16A"
            } ]
          },
          "subject" : {
            "reference" : "Patient/ecfda365-3e4d-442a-b719-7486263cdcb1"
          },
          "date" : "2024-02-08T19:16:08+01:00",
          "author" : [ {
            "reference" : "Practitioner/dcfc70e3-d76d-4447-b3a2-0a804192ce30",
            "type" : "Practitioner"
          }, {
            "type" : "Device",
            "identifier" : {
              "system" : "https://fhir.kbv.de/NamingSystem/KBV_NS_FOR_Pruefnummer",
              "value" : "GEMATIK/410/2109/36/123"
            }
          } ],
          "title" : "elektronische Arzneimittelverordnung",
          "custodian" : {
            "reference" : "Organization/afab3d62-28ee-4284-9d70-1ffa7a9063ce"
          },
          "section" : [ {
            "code" : {
              "coding" : [ {
                "system" : "https://fhir.kbv.de/CodeSystem/KBV_CS_ERP_Section_Type",
                "code" : "Coverage"
              } ]
            },
            "entry" : [ {
              "reference" : "Coverage/3109df5c-12dd-42fa-b1b5-8a3f6837177e"
            } ]
          }, {
            "code" : {
              "coding" : [ {
                "system" : "https://fhir.kbv.de/CodeSystem/KBV_CS_ERP_Section_Type",
                "code" : "Prescription"
              } ]
            },
            "entry" : [ {
              "reference" : "MedicationRequest/5f4ea0dc-b9de-4039-8540-728b644b0ae6"
            } ]
          } ]
        }
      }, {
        "fullUrl" : "https://pvs.gematik.de/fhir/Medication/59b53a09-4763-4725-84a9-481f0a2cdb00",
        "resource" : {
          "resourceType" : "Medication",
          "id" : "59b53a09-4763-4725-84a9-481f0a2cdb00",
          "meta" : {
            "profile" : [ "https://fhir.kbv.de/StructureDefinition/KBV_PR_ERP_Medication_PZN|1.1.0" ]
          },
          "extension" : [ {
            "url" : "https://fhir.kbv.de/StructureDefinition/KBV_EX_Base_Medication_Type",
            "valueCodeableConcept" : {
              "coding" : [ {
                "system" : "http://snomed.info/sct",
                "version" : "http://snomed.info/sct/900000000000207008/version/20220331",
                "code" : "763158003",
                "display" : "Medicinal product (product)"
              } ]
            }
          }, {
            "url" : "https://fhir.kbv.de/StructureDefinition/KBV_EX_ERP_Medication_Category",
            "valueCoding" : {
              "system" : "https://fhir.kbv.de/CodeSystem/KBV_CS_ERP_Medication_Category",
              "code" : "00"
            }
          }, {
            "url" : "https://fhir.kbv.de/StructureDefinition/KBV_EX_ERP_Medication_Vaccine",
            "valueBoolean" : false
          }, {
            "url" : "http://fhir.de/StructureDefinition/normgroesse",
            "valueCode" : "NB"
          } ],
          "code" : {
            "coding" : [ {
              "system" : "http://fhir.de/CodeSystem/ifa/pzn",
              "code" : "24025068"
            } ],
            "text" : "Schmerzmittel"
          },
          "form" : {
            "coding" : [ {
              "system" : "https://fhir.kbv.de/CodeSystem/KBV_CS_SFHIR_KBV_DARREICHUNGSFORM",
              "code" : "TAB"
            } ]
          },
          "amount" : {
            "numerator" : {
              "extension" : [ {
                "url" : "https://fhir.kbv.de/StructureDefinition/KBV_EX_ERP_Medication_PackagingSize",
                "valueString" : "1"
              } ],
              "unit" : "Stk"
            },
            "denominator" : {
              "value" : 1
            }
          }
        }
      }, {
        "fullUrl" : "https://pvs.gematik.de/fhir/Patient/ecfda365-3e4d-442a-b719-7486263cdcb1",
        "resource" : {
          "resourceType" : "Patient",
          "id" : "ecfda365-3e4d-442a-b719-7486263cdcb1",
          "meta" : {
            "profile" : [ "https://fhir.kbv.de/StructureDefinition/KBV_PR_FOR_Patient|1.1.0" ]
          },
          "identifier" : [ {
            "type" : {
              "coding" : [ {
                "system" : "http://fhir.de/CodeSystem/identifier-type-de-basis",
                "code" : "PKV"
              } ]
            },
            "system" : "http://fhir.de/sid/pkv/kvid-10",
            "value" : "X110465770"
          } ],
          "name" : [ {
            "use" : "official",
            "family" : "Angermänn",
            "_family" : {
              "extension" : [ {
                "url" : "http://hl7.org/fhir/StructureDefinition/humanname-own-name",
                "valueString" : "Angermänn"
              } ]
            },
            "given" : [ "Günther" ]
          } ],
          "birthDate" : "1980-05-13",
          "address" : [ {
            "type" : "both",
            "line" : [ "Herderstr. 94" ],
            "_line" : [ {
              "extension" : [ {
                "url" : "http://hl7.org/fhir/StructureDefinition/iso21090-ADXP-houseNumber",
                "valueString" : "94"
              }, {
                "url" : "http://hl7.org/fhir/StructureDefinition/iso21090-ADXP-streetName",
                "valueString" : "Herderstr."
              } ]
            } ],
            "city" : "Alt Nikitastadt",
            "postalCode" : "45836",
            "country" : "D"
          } ]
        }
      }, {
        "fullUrl" : "https://pvs.gematik.de/fhir/Organization/afab3d62-28ee-4284-9d70-1ffa7a9063ce",
        "resource" : {
          "resourceType" : "Organization",
          "id" : "afab3d62-28ee-4284-9d70-1ffa7a9063ce",
          "meta" : {
            "profile" : [ "https://fhir.kbv.de/StructureDefinition/KBV_PR_FOR_Organization|1.1.0" ]
          },
          "identifier" : [ {
            "type" : {
              "coding" : [ {
                "system" : "http://terminology.hl7.org/CodeSystem/v2-0203",
                "code" : "BSNR"
              } ]
            },
            "system" : "https://fhir.kbv.de/NamingSystem/KBV_NS_Base_BSNR",
            "value" : "469332828"
          } ],
          "name" : "Arztpraxis Schraßer",
          "telecom" : [ {
            "system" : "phone",
            "value" : "+49-8724-61741673"
          }, {
            "system" : "email",
            "value" : "alan.tillack@matthes.de"
          } ],
          "address" : [ {
            "type" : "both",
            "line" : [ "Habichtgasse 07a" ],
            "_line" : [ {
              "extension" : [ {
                "url" : "http://hl7.org/fhir/StructureDefinition/iso21090-ADXP-houseNumber",
                "valueString" : "07a"
              }, {
                "url" : "http://hl7.org/fhir/StructureDefinition/iso21090-ADXP-streetName",
                "valueString" : "Habichtgasse"
              } ]
            } ],
            "city" : "Lunaburg",
            "postalCode" : "21832",
            "country" : "D"
          } ]
        }
      }, {
        "fullUrl" : "https://pvs.gematik.de/fhir/Coverage/3109df5c-12dd-42fa-b1b5-8a3f6837177e",
        "resource" : {
          "resourceType" : "Coverage",
          "id" : "3109df5c-12dd-42fa-b1b5-8a3f6837177e",
          "meta" : {
            "profile" : [ "https://fhir.kbv.de/StructureDefinition/KBV_PR_FOR_Coverage|1.1.0" ]
          },
          "extension" : [ {
            "url" : "http://fhir.de/StructureDefinition/gkv/besondere-personengruppe",
            "valueCoding" : {
              "system" : "https://fhir.kbv.de/CodeSystem/KBV_CS_SFHIR_KBV_PERSONENGRUPPE",
              "code" : "00"
            }
          }, {
            "url" : "http://fhir.de/StructureDefinition/gkv/dmp-kennzeichen",
            "valueCoding" : {
              "system" : "https://fhir.kbv.de/CodeSystem/KBV_CS_SFHIR_KBV_DMP",
              "code" : "00"
            }
          }, {
            "url" : "http://fhir.de/StructureDefinition/gkv/wop",
            "valueCoding" : {
              "system" : "https://fhir.kbv.de/CodeSystem/KBV_CS_SFHIR_ITA_WOP",
              "code" : "46"
            }
          }, {
            "url" : "http://fhir.de/StructureDefinition/gkv/versichertenart",
            "valueCoding" : {
              "system" : "https://fhir.kbv.de/CodeSystem/KBV_CS_SFHIR_KBV_VERSICHERTENSTATUS",
              "code" : "1"
            }
          } ],
          "status" : "active",
          "type" : {
            "coding" : [ {
              "system" : "http://fhir.de/CodeSystem/versicherungsart-de-basis",
              "code" : "PKV"
            } ]
          },
          "beneficiary" : {
            "reference" : "Patient/d400898a-135d-4146-891c-da9424a053f9"
          },
          "payor" : [ {
            "identifier" : {
              "system" : "http://fhir.de/sid/arge-ik/iknr",
              "value" : "168141096"
            },
            "display" : "LVM"
          } ]
        }
      }, {
        "fullUrl" : "https://pvs.gematik.de/fhir/Practitioner/dcfc70e3-d76d-4447-b3a2-0a804192ce30",
        "resource" : {
          "resourceType" : "Practitioner",
          "id" : "dcfc70e3-d76d-4447-b3a2-0a804192ce30",
          "meta" : {
            "profile" : [ "https://fhir.kbv.de/StructureDefinition/KBV_PR_FOR_Practitioner|1.1.0" ]
          },
          "identifier" : [ {
            "type" : {
              "coding" : [ {
                "system" : "http://terminology.hl7.org/CodeSystem/v2-0203",
                "code" : "LANR"
              } ]
            },
            "system" : "https://fhir.kbv.de/NamingSystem/KBV_NS_Base_ANR",
            "value" : "382278094"
          } ],
          "name" : [ {
            "use" : "official",
            "family" : "Schraßer",
            "_family" : {
              "extension" : [ {
                "url" : "http://hl7.org/fhir/StructureDefinition/humanname-own-name",
                "valueString" : "Schraßer"
              } ]
            },
            "given" : [ "Dr." ],
            "prefix" : [ "Dr." ],
            "_prefix" : [ {
              "extension" : [ {
                "url" : "http://hl7.org/fhir/StructureDefinition/iso21090-EN-qualifier",
                "valueCode" : "AC"
              } ]
            } ]
          } ],
          "qualification" : [ {
            "code" : {
              "coding" : [ {
                "system" : "https://fhir.kbv.de/CodeSystem/KBV_CS_FOR_Qualification_Type",
                "code" : "00"
              } ]
            }
          }, {
            "code" : {
              "coding" : [ {
                "system" : "https://fhir.kbv.de/CodeSystem/KBV_CS_FOR_Berufsbezeichnung",
                "code" : "Berufsbezeichnung"
              } ],
              "text" : "Super-Facharzt für alles Mögliche"
            }
          } ]
        }
      }, {
        "fullUrl" : "https://pvs.gematik.de/fhir/MedicationRequest/5f4ea0dc-b9de-4039-8540-728b644b0ae6",
        "resource" : {
          "resourceType" : "MedicationRequest",
          "id" : "5f4ea0dc-b9de-4039-8540-728b644b0ae6",
          "meta" : {
            "profile" : [ "https://fhir.kbv.de/StructureDefinition/KBV_PR_ERP_Prescription|1.1.0" ]
          },
          "extension" : [ {
            "url" : "https://fhir.kbv.de/StructureDefinition/KBV_EX_ERP_BVG",
            "valueBoolean" : false
          }, {
            "url" : "https://fhir.kbv.de/StructureDefinition/KBV_EX_ERP_EmergencyServicesFee",
            "valueBoolean" : false
          }, {
            "url" : "https://fhir.kbv.de/StructureDefinition/KBV_EX_ERP_Multiple_Prescription",
            "extension" : [ {
              "url" : "Kennzeichen",
              "valueBoolean" : false
            } ]
          }, {
            "url" : "https://fhir.kbv.de/StructureDefinition/KBV_EX_FOR_StatusCoPayment",
            "valueCoding" : {
              "system" : "https://fhir.kbv.de/CodeSystem/KBV_CS_FOR_StatusCoPayment",
              "code" : "1"
            }
          } ],
          "status" : "active",
          "intent" : "order",
          "medicationReference" : {
            "reference" : "Medication/59b53a09-4763-4725-84a9-481f0a2cdb00"
          },
          "subject" : {
            "reference" : "Patient/ecfda365-3e4d-442a-b719-7486263cdcb1"
          },
          "authoredOn" : "2024-02-08",
          "requester" : {
            "reference" : "Practitioner/dcfc70e3-d76d-4447-b3a2-0a804192ce30"
          },
          "insurance" : [ {
            "reference" : "Coverage/3109df5c-12dd-42fa-b1b5-8a3f6837177e"
          } ],
          "dispenseRequest" : {
            "quantity" : {
              "value" : 1,
              "system" : "http://unitsofmeasure.org",
              "code" : "{Package}"
            }
          },
          "substitution" : {
            "allowedBoolean" : false
          }
        }
      } ],
      "signature" : {
        "type" : [ {
          "system" : "urn:iso-astm:E1762-95:2013",
          "code" : "1.2.840.10065.1.12.1.1"
        } ],
        "when" : "2024-02-08T18:16:12.671+00:00",
        "who" : {
          "reference" : "https://erp-ref.zentral.erp.splitdns.ti-dienste.de/Device/1"
        },
        "sigFormat" : "application/pkcs7-mime",
        "data" : ""
      }
    }
  }, {
    "fullUrl" : "urn:uuid:c896fd1f-0000-0000-0003-000000000000",
    "resource" : {
      "resourceType" : "Bundle",
      "meta" : {
        "profile" : [ "https://gematik.de/fhir/erp/StructureDefinition/GEM_ERP_PR_Bundle|1.4" ]
      },
      "identifier" : {
        "system" : "https://gematik.de/fhir/erp/NamingSystem/GEM_ERP_NS_PrescriptionId",
        "value" : "200.000.002.096.534.46"
      },
      "type" : "document",
      "timestamp" : "2024-02-08T18:16:10.845+00:00",
      "link" : [ {
        "relation" : "self",
        "url" : "https://erp-ref.zentral.erp.splitdns.ti-dienste.de/Task/200.000.002.096.534.46/$close/"
      } ],
      "entry" : [ {
        "fullUrl" : "urn:uuid:050446aa-b1b4-4b75-b55d-2e7973f80767",
        "resource" : {
          "resourceType" : "Composition",
          "id" : "050446aa-b1b4-4b75-b55d-2e7973f80767",
          "meta" : {
            "profile" : [ "https://gematik.de/fhir/erp/StructureDefinition/GEM_ERP_PR_Composition|1.4" ]
          },
          "extension" : [ {
            "url" : "https://gematik.de/fhir/erp/StructureDefinition/GEM_ERP_EX_Beneficiary",
            "valueIdentifier" : {
              "system" : "https://gematik.de/fhir/sid/telematik-id",
              "value" : "3-SMC-B-Testkarte-883110000116873"
            }
          } ],
          "status" : "final",
          "type" : {
            "coding" : [ {
              "system" : "https://gematik.de/fhir/erp/CodeSystem/GEM_ERP_CS_DocumentType",
              "code" : "3",
              "display" : "Receipt"
            } ]
          },
          "date" : "2024-02-08T18:16:10.844+00:00",
          "author" : [ {
            "reference" : "urn:uuid:4ab4692c-a4ac-48f0-923e-04412a774ca1"
          } ],
          "title" : "Quittung",
          "event" : [ {
            "period" : {
              "start" : "2024-02-08T18:16:09.325+00:00",
              "end" : "2024-02-08T18:16:10.844+00:00"
            }
          } ],
          "section" : [ {
            "entry" : [ {
              "reference" : "urn:uuid:fd1f0a87-1795-4ece-a080-cadad3c7ff7e"
            } ]
          } ]
        }
      }, {
        "fullUrl" : "urn:uuid:4ab4692c-a4ac-48f0-923e-04412a774ca1",
        "resource" : {
          "resourceType" : "Device",
          "id" : "1",
          "meta" : {
            "profile" : [ "https://gematik.de/fhir/erp/StructureDefinition/GEM_ERP_PR_Device|1.4" ]
          },
          "status" : "active",
          "serialNumber" : "1.13.0",
          "deviceName" : [ {
            "name" : "E-Rezept Fachdienst",
            "type" : "user-friendly-name"
          } ],
          "version" : [ {
            "value" : "1.13.0"
          } ],
          "contact" : [ {
            "system" : "email",
            "value" : "betrieb@gematik.de"
          } ]
        }
      }, {
        "fullUrl" : "urn:uuid:fd1f0a87-1795-4ece-a080-cadad3c7ff7e",
        "resource" : {
          "resourceType" : "Binary",
          "id" : "fd1f0a87-1795-4ece-a080-cadad3c7ff7e",
          "meta" : {
            "profile" : [ "https://gematik.de/fhir/erp/StructureDefinition/GEM_ERP_PR_Digest|1.4" ]
          },
          "contentType" : "application/octet-stream",
          "data" : "A/1kxSIZ89aAe4XTmc54VIq+14uUQgqRhGeUJanldUY="
        }
      } ],
      "signature" : {
        "type" : [ {
          "system" : "urn:iso-astm:E1762-95:2013",
          "code" : "1.2.840.10065.1.12.1.1"
        } ],
        "when" : "2024-02-08T18:16:12.677+00:00",
        "who" : {
          "reference" : "https://erp-ref.zentral.erp.splitdns.ti-dienste.de/Device/1"
        },
        "sigFormat" : "application/pkcs7-mime",
        "data" : ""
      }
    }
  } ]
}