{
  "resourceType": "Bundle",
  "id": "2be05912-1255-4b6b-9408-1ec0bfde7b09",
  "type": "collection",
  "timestamp": "2025-03-28T08:07:59.064+00:00",
  "entry": [ {
    "fullUrl": "https://erp-ref.zentral.erp.splitdns.ti-dienste.de/ChargeItem/200.000.002.425.318.87",
    "resource": {
      "resourceType": "ChargeItem",
      "id": "200.000.002.425.318.87",
      "meta": {
        "profile": [ "https://gematik.de/fhir/erpchrg/StructureDefinition/GEM_ERPCHRG_PR_ChargeItem|1.0" ]
      },
      "identifier": [ {
        "system": "https://gematik.de/fhir/erp/NamingSystem/GEM_ERP_NS_AccessCode",
        "value": "e0b7846ad367faa4a8faa6fe0b97a4582f05bbbaabaa45101d668972e201fc88"
      }, {
        "system": "https://gematik.de/fhir/erp/NamingSystem/GEM_ERP_NS_PrescriptionId",
        "value": "200.000.002.425.318.87"
      } ],
      "status": "billable",
      "code": {
        "coding": [ {
          "system": "http://terminology.hl7.org/CodeSystem/data-absent-reason",
          "code": "not-applicable"
        } ]
      },
      "subject": {
        "identifier": {
          "system": "http://fhir.de/sid/pkv/kvid-10",
          "value": "X110645443"
        }
      },
      "enterer": {
        "identifier": {
          "system": "https://gematik.de/fhir/sid/telematik-id",
          "value": "3-SMC-B-Testkarte--883110000163973"
        }
      },
      "enteredDate": "2025-03-28T08:07:58.937+00:00",
      "supportingInformation": [ {
        "reference": "urn:uuid:c8e60125-0000-0000-0001-000000000000",
        "display": "https://fhir.kbv.de/StructureDefinition/KBV_PR_ERP_Bundle"
      }, {
        "reference": "urn:uuid:c8e60125-0000-0000-0004-000000000000",
        "display": "http://fhir.abda.de/eRezeptAbgabedaten/StructureDefinition/DAV-PKV-PR-ERP-AbgabedatenBundle"
      }, {
        "reference": "urn:uuid:c8e60125-0000-0000-0003-000000000000",
        "display": "https://gematik.de/fhir/erp/StructureDefinition/GEM_ERP_PR_Bundle"
      } ]
    }
  }, {
    "fullUrl": "urn:uuid:c8e60125-0000-0000-0004-000000000000",
    "resource": {
      "resourceType": "Bundle",
      "id": "5a493caa-a36a-4ee0-8737-66879e37ff69",
      "meta": {
        "lastUpdated": "2025-03-28T09:07:58.783+01:00",
        "profile": [ "http://fhir.abda.de/eRezeptAbgabedaten/StructureDefinition/DAV-PKV-PR-ERP-AbgabedatenBundle|1.3" ]
      },
      "identifier": {
        "system": "https://gematik.de/fhir/erp/NamingSystem/GEM_ERP_NS_PrescriptionId",
        "value": "200.000.002.425.318.87"
      },
      "type": "document",
      "timestamp": "2025-03-28T09:07:58.783+01:00",
      "entry": [ {
        "fullUrl": "urn:uuid:2decfc0d-8e81-412b-bf31-dfd95be77a53",
        "resource": {
          "resourceType": "Composition",
          "meta": {
            "profile": [ "http://fhir.abda.de/eRezeptAbgabedaten/StructureDefinition/DAV-PKV-PR-ERP-AbgabedatenComposition|1.3" ]
          },
          "status": "final",
          "type": {
            "coding": [ {
              "system": "http://fhir.abda.de/eRezeptAbgabedaten/CodeSystem/DAV-CS-ERP-CompositionTypes",
              "code": "ERezeptAbgabedaten"
            } ]
          },
          "date": "2025-03-28T09:07:58+01:00",
          "author": [ {
            "reference": "urn:uuid:7cdf793e-1bd8-42ac-8498-33c34112d180"
          } ],
          "title": "ERezeptAbgabedaten",
          "section": [ {
            "title": "Apotheke",
            "entry": [ {
              "reference": "urn:uuid:7cdf793e-1bd8-42ac-8498-33c34112d180"
            } ]
          }, {
            "title": "Abgabeinformationen",
            "entry": [ {
              "reference": "urn:uuid:dcb7e854-cff7-4872-bfdb-a84b913e384e"
            } ]
          } ]
        }
      }, {
        "fullUrl": "urn:uuid:7cdf793e-1bd8-42ac-8498-33c34112d180",
        "resource": {
          "resourceType": "Organization",
          "meta": {
            "profile": [ "http://fhir.abda.de/eRezeptAbgabedaten/StructureDefinition/DAV-PKV-PR-ERP-Apotheke|1.3" ]
          },
          "identifier": [ {
            "system": "http://fhir.de/sid/arge-ik/iknr",
            "value": "807636069"
          } ],
          "name": "Apotheke Penny Nichols",
          "address": [ {
            "type": "physical",
            "line": [ "Entenpfuhl 69b" ],
            "_line": [ {
              "extension": [ {
                "url": "http://hl7.org/fhir/StructureDefinition/iso21090-ADXP-houseNumber",
                "valueString": "69b"
              }, {
                "url": "http://hl7.org/fhir/StructureDefinition/iso21090-ADXP-streetName",
                "valueString": "Entenpfuhl"
              } ]
            } ],
            "city": "Tizianscheid",
            "postalCode": "75720",
            "country": "TON"
          } ]
        }
      }, {
        "fullUrl": "urn:uuid:bb20331a-a9d6-48f0-b8d0-f1552f1043bb",
        "resource": {
          "resourceType": "Invoice",
          "meta": {
            "profile": [ "http://fhir.abda.de/eRezeptAbgabedaten/StructureDefinition/DAV-PKV-PR-ERP-Abrechnungszeilen|1.3" ]
          },
          "status": "issued",
          "type": {
            "coding": [ {
              "system": "http://fhir.abda.de/eRezeptAbgabedaten/CodeSystem/DAV-CS-ERP-InvoiceTyp",
              "code": "Abrechnungszeilen"
            } ]
          },
          "lineItem": [ {
            "sequence": 1,
            "chargeItemCodeableConcept": {
              "coding": [ {
                "system": "http://fhir.de/CodeSystem/ifa/pzn",
                "code": "73494010"
              } ],
              "text": "Infludoron® 450 mg"
            },
            "priceComponent": [ {
              "extension": [ {
                "url": "http://fhir.abda.de/eRezeptAbgabedaten/StructureDefinition/DAV-EX-ERP-KostenVersicherter",
                "extension": [ {
                  "url": "Kategorie",
                  "valueCodeableConcept": {
                    "coding": [ {
                      "system": "http://fhir.abda.de/eRezeptAbgabedaten/CodeSystem/DAV-PKV-CS-ERP-KostenVersicherterKategorie",
                      "code": "0"
                    } ]
                  }
                }, {
                  "url": "Kostenbetrag",
                  "valueMoney": {
                    "value": 17.38,
                    "currency": "EUR"
                  }
                } ]
              }, {
                "url": "http://fhir.abda.de/eRezeptAbgabedaten/StructureDefinition/DAV-EX-ERP-MwStSatz",
                "valueDecimal": 26.06
              } ],
              "type": "informational",
              "factor": 1,
              "amount": {
                "value": 35.20,
                "currency": "EUR"
              }
            } ]
          } ],
          "totalGross": {
            "extension": [ {
              "url": "http://fhir.abda.de/eRezeptAbgabedaten/StructureDefinition/DAV-EX-ERP-Gesamtzuzahlung",
              "valueMoney": {
                "value": 17.38,
                "currency": "EUR"
              }
            } ],
            "value": 35.20,
            "currency": "EUR"
          }
        }
      }, {
        "fullUrl": "urn:uuid:dcb7e854-cff7-4872-bfdb-a84b913e384e",
        "resource": {
          "resourceType": "MedicationDispense",
          "meta": {
            "profile": [ "http://fhir.abda.de/eRezeptAbgabedaten/StructureDefinition/DAV-PKV-PR-ERP-Abgabeinformationen|1.3" ]
          },
          "extension": [ {
            "url": "http://fhir.abda.de/eRezeptAbgabedaten/StructureDefinition/DAV-PKV-EX-ERP-AbrechnungsTyp",
            "valueCodeableConcept": {
              "coding": [ {
                "system": "http://fhir.abda.de/eRezeptAbgabedaten/CodeSystem/DAV-PKV-CS-ERP-AbrechnungsTyp",
                "code": "1"
              } ]
            }
          }, {
            "url": "http://fhir.abda.de/eRezeptAbgabedaten/StructureDefinition/DAV-EX-ERP-Abrechnungszeilen",
            "valueReference": {
              "reference": "urn:uuid:bb20331a-a9d6-48f0-b8d0-f1552f1043bb"
            }
          } ],
          "status": "completed",
          "medicationCodeableConcept": {
            "coding": [ {
              "system": "http://terminology.hl7.org/CodeSystem/data-absent-reason",
              "code": "not-applicable"
            } ]
          },
          "performer": [ {
            "actor": {
              "reference": "urn:uuid:7cdf793e-1bd8-42ac-8498-33c34112d180"
            }
          } ],
          "authorizingPrescription": [ {
            "identifier": {
              "system": "https://gematik.de/fhir/erp/NamingSystem/GEM_ERP_NS_PrescriptionId",
              "value": "200.000.002.425.318.87"
            }
          } ],
          "type": {
            "coding": [ {
              "system": "http://fhir.abda.de/eRezeptAbgabedaten/CodeSystem/DAV-CS-ERP-MedicationDispenseTyp",
              "code": "Abgabeinformationen"
            } ]
          },
          "whenHandedOver": "2025-03-28"
        }
      } ],
      "signature": {
        "type": [ {
          "system": "urn:iso-astm:E1762-95:2013",
          "code": "1.2.840.10065.1.12.1.1"
        } ],
        "when": "2025-03-28T08:07:59.081+00:00",
        "who": {
          "reference": "https://erp-ref.zentral.erp.splitdns.ti-dienste.de/Device/1"
        },
        "sigFormat": "application/pkcs7-mime",
        "data": ""
      }
    }
  }, {
    "fullUrl": "urn:uuid:c8e60125-0000-0000-0001-000000000000",
    "resource": {
      "resourceType": "Bundle",
      "id": "06ed8273-e75b-417e-8838-18b615420d0f",
      "meta": {
        "profile": [ "https://fhir.kbv.de/StructureDefinition/KBV_PR_ERP_Bundle|1.1.0" ]
      },
      "identifier": {
        "system": "https://gematik.de/fhir/erp/NamingSystem/GEM_ERP_NS_PrescriptionId",
        "value": "200.000.002.425.318.87"
      },
      "type": "document",
      "timestamp": "2025-03-28T09:07:57.729+01:00",
      "entry": [ {
        "fullUrl": "https://pvs.gematik.de/fhir/Composition/4cda8ed0-2fae-4218-9b0f-3fa57c9ac91e",
        "resource": {
          "resourceType": "Composition",
          "id": "4cda8ed0-2fae-4218-9b0f-3fa57c9ac91e",
          "meta": {
            "profile": [ "https://fhir.kbv.de/StructureDefinition/KBV_PR_ERP_Composition|1.1.0" ]
          },
          "extension": [ {
            "url": "https://fhir.kbv.de/StructureDefinition/KBV_EX_FOR_Legal_basis",
            "valueCoding": {
              "system": "https://fhir.kbv.de/CodeSystem/KBV_CS_SFHIR_KBV_STATUSKENNZEICHEN",
              "code": "00"
            }
          } ],
          "status": "final",
          "type": {
            "coding": [ {
              "system": "https://fhir.kbv.de/CodeSystem/KBV_CS_SFHIR_KBV_FORMULAR_ART",
              "code": "e16A"
            } ]
          },
          "subject": {
            "reference": "Patient/0f06fd6a-ae04-43d8-92f6-251828862e73"
          },
          "date": "2025-03-28T09:07:57+01:00",
          "author": [ {
            "type": "Device",
            "identifier": {
              "system": "https://fhir.kbv.de/NamingSystem/KBV_NS_FOR_Pruefnummer",
              "value": "GEMATIK/410/2109/36/123"
            }
          }, {
            "reference": "Practitioner/d00bffc5-087a-4389-8169-382406b6ac54",
            "type": "Practitioner"
          } ],
          "title": "elektronische Arzneimittelverordnung",
          "custodian": {
            "reference": "Organization/15687de6-0224-4965-9a9f-ced43b636f1d"
          },
          "section": [ {
            "code": {
              "coding": [ {
                "system": "https://fhir.kbv.de/CodeSystem/KBV_CS_ERP_Section_Type",
                "code": "Coverage"
              } ]
            },
            "entry": [ {
              "reference": "Coverage/1285a49d-2d27-4ba9-b57d-65abf32810c5"
            } ]
          }, {
            "code": {
              "coding": [ {
                "system": "https://fhir.kbv.de/CodeSystem/KBV_CS_ERP_Section_Type",
                "code": "Prescription"
              } ]
            },
            "entry": [ {
              "reference": "MedicationRequest/ad8c9410-e51d-4601-bd6a-d5b3c6247b25"
            } ]
          } ]
        }
      }, {
        "fullUrl": "https://pvs.gematik.de/fhir/Coverage/1285a49d-2d27-4ba9-b57d-65abf32810c5",
        "resource": {
          "resourceType": "Coverage",
          "id": "1285a49d-2d27-4ba9-b57d-65abf32810c5",
          "meta": {
            "profile": [ "https://fhir.kbv.de/StructureDefinition/KBV_PR_FOR_Coverage|1.1.0" ]
          },
          "extension": [ {
            "url": "http://fhir.de/StructureDefinition/gkv/besondere-personengruppe",
            "valueCoding": {
              "system": "https://fhir.kbv.de/CodeSystem/KBV_CS_SFHIR_KBV_PERSONENGRUPPE",
              "code": "00"
            }
          }, {
            "url": "http://fhir.de/StructureDefinition/gkv/dmp-kennzeichen",
            "valueCoding": {
              "system": "https://fhir.kbv.de/CodeSystem/KBV_CS_SFHIR_KBV_DMP",
              "code": "00"
            }
          }, {
            "url": "http://fhir.de/StructureDefinition/gkv/wop",
            "valueCoding": {
              "system": "https://fhir.kbv.de/CodeSystem/KBV_CS_SFHIR_ITA_WOP",
              "code": "71"
            }
          }, {
            "url": "http://fhir.de/StructureDefinition/gkv/versichertenart",
            "valueCoding": {
              "system": "https://fhir.kbv.de/CodeSystem/KBV_CS_SFHIR_KBV_VERSICHERTENSTATUS",
              "code": "1"
            }
          } ],
          "status": "active",
          "type": {
            "coding": [ {
              "system": "http://fhir.de/CodeSystem/versicherungsart-de-basis",
              "code": "PKV"
            } ]
          },
          "beneficiary": {
            "reference": "Patient/f8349482-41e2-4f19-bb26-2a29be55ffe7"
          },
          "payor": [ {
            "identifier": {
              "system": "http://fhir.de/sid/arge-ik/iknr",
              "value": "168141198"
            },
            "display": "Gothaer"
          } ]
        }
      }, {
        "fullUrl": "https://pvs.gematik.de/fhir/Patient/0f06fd6a-ae04-43d8-92f6-251828862e73",
        "resource": {
          "resourceType": "Patient",
          "id": "0f06fd6a-ae04-43d8-92f6-251828862e73",
          "meta": {
            "profile": [ "https://fhir.kbv.de/StructureDefinition/KBV_PR_FOR_Patient|1.1.0" ]
          },
          "identifier": [ {
            "type": {
              "coding": [ {
                "system": "http://fhir.de/CodeSystem/identifier-type-de-basis",
                "code": "PKV"
              } ]
            },
            "system": "http://fhir.de/sid/pkv/kvid-10",
            "value": "X110645443"
          } ],
          "name": [ {
            "use": "official",
            "family": "Angermänn",
            "_family": {
              "extension": [ {
                "url": "http://hl7.org/fhir/StructureDefinition/humanname-own-name",
                "valueString": "Angermänn"
              } ]
            },
            "given": [ "Günther" ]
          } ],
          "birthDate": "1986-03-06",
          "address": [ {
            "type": "both",
            "line": [ "Miselohestr. 222" ],
            "_line": [ {
              "extension": [ {
                "url": "http://hl7.org/fhir/StructureDefinition/iso21090-ADXP-houseNumber",
                "valueString": "222"
              }, {
                "url": "http://hl7.org/fhir/StructureDefinition/iso21090-ADXP-streetName",
                "valueString": "Miselohestr."
              } ]
            } ],
            "city": "Schön Maxine",
            "postalCode": "16346",
            "country": "D"
          } ]
        }
      }, {
        "fullUrl": "https://pvs.gematik.de/fhir/Practitioner/d00bffc5-087a-4389-8169-382406b6ac54",
        "resource": {
          "resourceType": "Practitioner",
          "id": "d00bffc5-087a-4389-8169-382406b6ac54",
          "meta": {
            "profile": [ "https://fhir.kbv.de/StructureDefinition/KBV_PR_FOR_Practitioner|1.1.0" ]
          },
          "identifier": [ {
            "type": {
              "coding": [ {
                "system": "http://terminology.hl7.org/CodeSystem/v2-0203",
                "code": "LANR"
              } ]
            },
            "system": "https://fhir.kbv.de/NamingSystem/KBV_NS_Base_ANR",
            "value": "494536644"
          } ],
          "name": [ {
            "use": "official",
            "family": "Schraßer",
            "_family": {
              "extension": [ {
                "url": "http://hl7.org/fhir/StructureDefinition/humanname-own-name",
                "valueString": "Schraßer"
              } ]
            },
            "given": [ "Dr." ],
            "prefix": [ "Dr." ],
            "_prefix": [ {
              "extension": [ {
                "url": "http://hl7.org/fhir/StructureDefinition/iso21090-EN-qualifier",
                "valueCode": "AC"
              } ]
            } ]
          } ],
          "qualification": [ {
            "code": {
              "coding": [ {
                "system": "https://fhir.kbv.de/CodeSystem/KBV_CS_FOR_Qualification_Type",
                "code": "00"
              } ]
            }
          }, {
            "code": {
              "coding": [ {
                "system": "https://fhir.kbv.de/CodeSystem/KBV_CS_FOR_Berufsbezeichnung",
                "code": "Berufsbezeichnung"
              } ],
              "text": "Super-Facharzt für alles Mögliche"
            }
          } ]
        }
      }, {
        "fullUrl": "https://pvs.gematik.de/fhir/Organization/15687de6-0224-4965-9a9f-ced43b636f1d",
        "resource": {
          "resourceType": "Organization",
          "id": "15687de6-0224-4965-9a9f-ced43b636f1d",
          "meta": {
            "profile": [ "https://fhir.kbv.de/StructureDefinition/KBV_PR_FOR_Organization|1.1.0" ]
          },
          "identifier": [ {
            "type": {
              "coding": [ {
                "system": "http://terminology.hl7.org/CodeSystem/v2-0203",
                "code": "BSNR"
              } ]
            },
            "system": "https://fhir.kbv.de/NamingSystem/KBV_NS_Base_BSNR",
            "value": "835269944"
          } ],
          "name": "Arztpraxis Schraßer",
          "telecom": [ {
            "system": "phone",
            "value": "+49-1279-33059010"
          }, {
            "system": "email",
            "value": "merlin.bruckmann@xn--frster-wxa.info"
          } ],
          "address": [ {
            "type": "both",
            "line": [ "Montanusstr. 8" ],
            "_line": [ {
              "extension": [ {
                "url": "http://hl7.org/fhir/StructureDefinition/iso21090-ADXP-houseNumber",
                "valueString": "8"
              }, {
                "url": "http://hl7.org/fhir/StructureDefinition/iso21090-ADXP-streetName",
                "valueString": "Montanusstr."
              } ]
            } ],
            "city": "Zimmerstadt",
            "postalCode": "38788",
            "country": "D"
          } ]
        }
      }, {
        "fullUrl": "https://pvs.gematik.de/fhir/Medication/ca9321a1-c52e-42b7-b6e4-2153f0c48611",
        "resource": {
          "resourceType": "Medication",
          "id": "ca9321a1-c52e-42b7-b6e4-2153f0c48611",
          "meta": {
            "profile": [ "https://fhir.kbv.de/StructureDefinition/KBV_PR_ERP_Medication_PZN|1.1.0" ]
          },
          "extension": [ {
            "url": "https://fhir.kbv.de/StructureDefinition/KBV_EX_Base_Medication_Type",
            "valueCodeableConcept": {
              "coding": [ {
                "system": "http://snomed.info/sct",
                "version": "http://snomed.info/sct/900000000000207008/version/20220331",
                "code": "763158003",
                "display": "Medicinal product (product)"
              } ]
            }
          }, {
            "url": "https://fhir.kbv.de/StructureDefinition/KBV_EX_ERP_Medication_Category",
            "valueCoding": {
              "system": "https://fhir.kbv.de/CodeSystem/KBV_CS_ERP_Medication_Category",
              "code": "00"
            }
          }, {
            "url": "https://fhir.kbv.de/StructureDefinition/KBV_EX_ERP_Medication_Vaccine",
            "valueBoolean": false
          }, {
            "url": "http://fhir.de/StructureDefinition/normgroesse",
            "valueCode": "NB"
          } ],
          "code": {
            "coding": [ {
              "system": "http://fhir.de/CodeSystem/ifa/pzn",
              "code": "30826648"
            } ],
            "text": "Schmerzmittel"
          },
          "form": {
            "coding": [ {
              "system": "https://fhir.kbv.de/CodeSystem/KBV_CS_SFHIR_KBV_DARREICHUNGSFORM",
              "code": "TAB"
            } ]
          },
          "amount": {
            "numerator": {
              "extension": [ {
                "url": "https://fhir.kbv.de/StructureDefinition/KBV_EX_ERP_Medication_PackagingSize",
                "valueString": "1"
              } ],
              "unit": "Stk"
            },
            "denominator": {
              "value": 1
            }
          }
        }
      }, {
        "fullUrl": "https://pvs.gematik.de/fhir/MedicationRequest/ad8c9410-e51d-4601-bd6a-d5b3c6247b25",
        "resource": {
          "resourceType": "MedicationRequest",
          "id": "ad8c9410-e51d-4601-bd6a-d5b3c6247b25",
          "meta": {
            "profile": [ "https://fhir.kbv.de/StructureDefinition/KBV_PR_ERP_Prescription|1.1.0" ]
          },
          "extension": [ {
            "url": "https://fhir.kbv.de/StructureDefinition/KBV_EX_ERP_BVG",
            "valueBoolean": false
          }, {
            "url": "https://fhir.kbv.de/StructureDefinition/KBV_EX_ERP_EmergencyServicesFee",
            "valueBoolean": false
          }, {
            "url": "https://fhir.kbv.de/StructureDefinition/KBV_EX_ERP_Multiple_Prescription",
            "extension": [ {
              "url": "Kennzeichen",
              "valueBoolean": false
            } ]
          }, {
            "url": "https://fhir.kbv.de/StructureDefinition/KBV_EX_FOR_StatusCoPayment",
            "valueCoding": {
              "system": "https://fhir.kbv.de/CodeSystem/KBV_CS_FOR_StatusCoPayment",
              "code": "2"
            }
          } ],
          "status": "active",
          "intent": "order",
          "medicationReference": {
            "reference": "Medication/ca9321a1-c52e-42b7-b6e4-2153f0c48611"
          },
          "subject": {
            "reference": "Patient/0f06fd6a-ae04-43d8-92f6-251828862e73"
          },
          "authoredOn": "2025-03-28",
          "requester": {
            "reference": "Practitioner/d00bffc5-087a-4389-8169-382406b6ac54"
          },
          "insurance": [ {
            "reference": "Coverage/1285a49d-2d27-4ba9-b57d-65abf32810c5"
          } ],
          "dosageInstruction": [ {
            "extension": [ {
              "url": "https://fhir.kbv.de/StructureDefinition/KBV_EX_ERP_DosageFlag",
              "valueBoolean": true
            } ],
            "text": "3-2-3-2-0-0"
          } ],
          "dispenseRequest": {
            "quantity": {
              "value": 1,
              "system": "http://unitsofmeasure.org",
              "code": "{Package}"
            }
          },
          "substitution": {
            "allowedBoolean": false
          }
        }
      } ],
      "signature": {
        "type": [ {
          "system": "urn:iso-astm:E1762-95:2013",
          "code": "1.2.840.10065.1.12.1.1"
        } ],
        "when": "2025-03-28T08:07:59.077+00:00",
        "who": {
          "reference": "https://erp-ref.zentral.erp.splitdns.ti-dienste.de/Device/1"
        },
        "sigFormat": "application/pkcs7-mime",
        "data": ""
      }
    }
  }, {
    "fullUrl": "urn:uuid:c8e60125-0000-0000-0003-000000000000",
    "resource": {
      "resourceType": "Bundle",
      "id": "c8e60125-0000-0000-0003-000000000000",
      "meta": {
        "profile": [ "https://gematik.de/fhir/erp/StructureDefinition/GEM_ERP_PR_Bundle|1.4" ]
      },
      "identifier": {
        "system": "https://gematik.de/fhir/erp/NamingSystem/GEM_ERP_NS_PrescriptionId",
        "value": "200.000.002.425.318.87"
      },
      "type": "document",
      "timestamp": "2025-03-28T08:07:58.565+00:00",
      "link": [ {
        "relation": "self",
        "url": "https://erp-ref.zentral.erp.splitdns.ti-dienste.de/Task/200.000.002.425.318.87/$close/"
      } ],
      "entry": [ {
        "fullUrl": "urn:uuid:cb02425d-d758-4871-a08f-cbc4408d205f",
        "resource": {
          "resourceType": "Composition",
          "id": "cb02425d-d758-4871-a08f-cbc4408d205f",
          "meta": {
            "profile": [ "https://gematik.de/fhir/erp/StructureDefinition/GEM_ERP_PR_Composition|1.4" ]
          },
          "extension": [ {
            "url": "https://gematik.de/fhir/erp/StructureDefinition/GEM_ERP_EX_Beneficiary",
            "valueIdentifier": {
              "system": "https://gematik.de/fhir/sid/telematik-id",
              "value": "3-SMC-B-Testkarte--883110000163973"
            }
          } ],
          "status": "final",
          "type": {
            "coding": [ {
              "system": "https://gematik.de/fhir/erp/CodeSystem/GEM_ERP_CS_DocumentType",
              "code": "3",
              "display": "Receipt"
            } ]
          },
          "date": "2025-03-28T08:07:58.560+00:00",
          "author": [ {
            "reference": "urn:uuid:35b5c9e3-53c5-401b-a441-6832226e857b"
          } ],
          "title": "Quittung",
          "event": [ {
            "period": {
              "start": "2025-03-28T08:07:58.264+00:00",
              "end": "2025-03-28T08:07:58.560+00:00"
            }
          } ],
          "section": [ {
            "entry": [ {
              "reference": "urn:uuid:6da36f1d-d7f5-4c35-a510-dd23ebc2ce88"
            } ]
          } ]
        }
      }, {
        "fullUrl": "urn:uuid:35b5c9e3-53c5-401b-a441-6832226e857b",
        "resource": {
          "resourceType": "Device",
          "id": "1",
          "meta": {
            "profile": [ "https://gematik.de/fhir/erp/StructureDefinition/GEM_ERP_PR_Device|1.4" ]
          },
          "status": "active",
          "serialNumber": "1.17.0",
          "deviceName": [ {
            "name": "E-Rezept Fachdienst",
            "type": "user-friendly-name"
          } ],
          "version": [ {
            "value": "1.17.0"
          } ],
          "contact": [ {
            "system": "email",
            "value": "betrieb@gematik.de"
          } ]
        }
      }, {
        "fullUrl": "urn:uuid:6da36f1d-d7f5-4c35-a510-dd23ebc2ce88",
        "resource": {
          "resourceType": "Binary",
          "id": "6da36f1d-d7f5-4c35-a510-dd23ebc2ce88",
          "meta": {
            "versionId": "1",
            "profile": [ "https://gematik.de/fhir/erp/StructureDefinition/GEM_ERP_PR_Digest|1.4" ]
          },
          "contentType": "application/octet-stream",
          "data": "jnJsYLIsA2Wc+FpYVJo1ykGQFc9Zl+9RNoxyepf/Q90="
        }
      } ],
      "signature": {
        "type": [ {
          "system": "urn:iso-astm:E1762-95:2013",
          "code": "1.2.840.10065.1.12.1.1"
        } ],
        "when": "2025-03-28T08:07:59.079+00:00",
        "who": {
          "reference": "https://erp-ref.zentral.erp.splitdns.ti-dienste.de/Device/1"
        },
        "sigFormat": "application/pkcs7-mime",
        "data": ""
      }
    }
  } ]
}