{
  "resourceType": "Bundle",
  "id": "7458acae-8a8c-48d4-b9b6-6db4c6425b27",
  "meta": {
    "profile": [
      "https://fhir.gkvsv.de/StructureDefinition/GKVSV_PR_TA7_Sammelrechnung_Bundle|1.0.6"
    ],
    "tag": [
      {
        "display": "Beispiel der TA7/eAbrechnungsdaten."
      },
      {
        "display": "ACHTUNG! Der fachlich korrekte Inhalt der Beispielinstanz kann nicht gewährleistet werden. Wir sind jederzeit dankbar für Hinweise auf Fehler oder für Verbesserungsvorschläge."
      }
    ]
  },
  "identifier": {
    "extension": [
      {
        "url": "https://fhir.gkvsv.de/StructureDefinition/GKVSV_EX_ERP_TA7_Dateinummer",
        "valueString": "00002"
      }
    ],
    "system": "https://fhir.gkvsv.de/NamingSystem/GKVSV_NS_Dateiname",
    "value": "ARZFHR21002"
  },
  "type": "document",
  "timestamp": "2021-08-02T10:00:00+00:00",
  "entry": [
    {
      "fullUrl": "urn:uuid:bfe0a4a1-e5ae-4429-860d-e49e8b6c0a09",
      "resource": {
        "resourceType": "Composition",
        "id": "bfe0a4a1-e5ae-4429-860d-e49e8b6c0a09",
        "meta": {
          "profile": [
            "https://fhir.gkvsv.de/StructureDefinition/GKVSV_PR_TA7_Sammelrechnung_Composition|1.0.6"
          ]
        },
        "extension": [
          {
            "url": "https://fhir.gkvsv.de/StructureDefinition/GKVSV_EX_TA7_IK_Empfaenger",
            "valueIdentifier": {
              "system": "http://fhir.de/NamingSystem/arge-ik/iknr",
              "value": "109519005"
            }
          },
          {
            "url": "https://fhir.gkvsv.de/StructureDefinition/GKVSV_EX_TA7_IK_Kostentraeger",
            "valueIdentifier": {
              "system": "http://fhir.de/NamingSystem/arge-ik/iknr",
              "value": "109519005"
            }
          }
        ],
        "status": "final",
        "type": {
          "coding": [
            {
              "system": "https://fhir.gkvsv.de/CodeSystem/GKVSV_CS_ERP_TA7",
              "code": "SR",
              "display": "Sammelrechnung"
            }
          ]
        },
        "date": "2021-07-31",
        "author": [
          {
            "identifier": {
              "system": "http://fhir.de/NamingSystem/arge-ik/iknr",
              "value": "987654321"
            }
          }
        ],
        "title": "elektronische Sammelrechnung",
        "section": [
          {
            "code": {
              "coding": [
                {
                  "system": "https://fhir.gkvsv.de/CodeSystem/GKVSV_CS_ERP_TA7",
                  "code": "LSR",
                  "display": "Liste der Sammelrechnungen"
                }
              ]
            },
            "entry": [
              {
                "reference": "urn:uuid:d99bffa3-eaf3-47c4-a8f8-37e05a1316e5"
              }
            ]
          },
          {
            "code": {
              "coding": [
                {
                  "system": "https://fhir.gkvsv.de/CodeSystem/GKVSV_CS_ERP_TA7",
                  "code": "R",
                  "display": "Rechnungen"
                }
              ]
            },
            "entry": [
              {
                "reference": "urn:uuid:81d7a5aa-87d8-4f8d-ad75-579d38f8f077"
              }
            ]
          }
        ]
      }
    },
    {
      "fullUrl": "urn:uuid:d99bffa3-eaf3-47c4-a8f8-37e05a1316e5",
      "resource": {
        "resourceType": "List",
        "id": "d99bffa3-eaf3-47c4-a8f8-37e05a1316e5",
        "meta": {
          "profile": [
            "https://fhir.gkvsv.de/StructureDefinition/GKVSV_PR_TA7_Sammelrechnung_List|1.0.6"
          ]
        },
        "status": "current",
        "mode": "working",
        "entry": [
          {
            "item": {
              "reference": "Bundle/7458acae-8a8c-48d4-b9b6-6db4c6425b27"
            }
          }
        ]
      }
    },
    {
      "fullUrl": "urn:uuid:81d7a5aa-87d8-4f8d-ad75-579d38f8f077",
      "resource": {
        "resourceType": "Invoice",
        "id": "81d7a5aa-87d8-4f8d-ad75-579d38f8f077",
        "meta": {
          "profile": [
            "https://fhir.gkvsv.de/StructureDefinition/GKVSV_PR_TA7_Rechnung|1.0.6"
          ]
        },
        "extension": [
          {
            "url": "https://fhir.gkvsv.de/StructureDefinition/GKVSV_EX_ERP_TA7_Abrechnungszeitraum",
            "valueDateTime": "2021-07-31"
          },
          {
            "extension": [
              {
                "url": "lineItem",
                "valueReference": {
                  "reference": "urn:uuid:efbf8576-de53-4a87-84f3-ae058df5e5d0"
                }
              }
            ],
            "url": "https://fhir.gkvsv.de/StructureDefinition/GKVSV_EX_ERP_RezeptBundleReferenz"
          }
        ],
        "identifier": [
          {
            "system": "https://fhir.gkvsv.de/NamingSystem/GKVSV_NS_Sammelrechnungsnummer",
            "value": "21050040"
          }
        ],
        "status": "issued",
        "type": {
          "coding": [
            {
              "system": "https://fhir.gkvsv.de/CodeSystem/GKVSV_CS_ERP_Rechnungsart",
              "code": "6"
            }
          ]
        },
        "recipient": {
          "identifier": {
            "system": "http://fhir.de/NamingSystem/arge-ik/iknr",
            "value": "109519005"
          }
        },
        "date": "2021-08-02"
      }
    },
    {
      "fullUrl": "urn:uuid:efbf8576-de53-4a87-84f3-ae058df5e5d0",
      "resource": {
        "resourceType": "Bundle",
        "id": "efbf8576-de53-4a87-84f3-ae058df5e5d0",
        "meta": {
          "profile": [
            "https://fhir.gkvsv.de/StructureDefinition/GKVSV_PR_TA7_RezeptBundle|1.0.6"
          ]
        },
        "type": "collection",
        "entry": [
          {
            "link": [
              {
                "relation": "item",
                "url": "https://fhir.kbv.de/StructureDefinition/KBV_PR_ERP_Bundle"
              }
            ],
            "fullUrl": "urn:uuid:22593998-e5f2-4516-ac11-32b7bd65cc5c",
            "resource": {
              "resourceType": "Binary",
              "id": "22593998-e5f2-4516-ac11-32b7bd65cc5c",
              "meta": {
                "profile": [
                  "https://gematik.de/fhir/StructureDefinition/ErxBinary"
                ]
              },
              "contentType": "application/pkcs7-mime",
              "data": "VmVyb3JkbnVuZ3NkYXRlbiBCZWlzcGllbCBFcnN0ZWxsdW5nIEJlaXNwaWVsIGVBYnJlY2hudW5nc2RhdGVu"
            }
          },
          {
            "link": [
              {
                "relation": "item",
                "url": "https://gematik.de/fhir/StructureDefinition/ErxReceipt"
              }
            ],
            "fullUrl": "urn:uuid:a97d5de3-4222-40cd-9106-558bcf23a8c2",
            "resource": {
              "resourceType": "Bundle",
              "id": "a97d5de3-4222-40cd-9106-558bcf23a8c2",
              "meta": {
                "profile": [
                  "https://gematik.de/fhir/StructureDefinition/ErxReceipt"
                ]
              },
              "identifier": {
                "system": "https://gematik.de/fhir/NamingSystem/PrescriptionID",
                "value": "160.123.456.789.123.58"
              },
              "type": "document",
              "timestamp": "2021-07-27T09:30:00+00:00",
              "link": [
                {
                  "relation": "self",
                  "url": "https://gematik.erppre.de:443/Task/160.000.000.012.578.56/$close"
                }
              ],
              "entry": [
                {
                  "fullUrl": "urn:uuid:4a2461cb-07e9-4ad7-ae6e-21ed75c2ec5d",
                  "resource": {
                    "resourceType": "Composition",
                    "id": "4a2461cb-07e9-4ad7-ae6e-21ed75c2ec5d",
                    "meta": {
                      "profile": [
                        "https://gematik.de/fhir/StructureDefinition/ErxComposition"
                      ]
                    },
                    "extension": [
                      {
                        "url": "https://gematik.de/fhir/StructureDefinition/BeneficiaryExtension",
                        "valueIdentifier": {
                          "system": "https://gematik.de/fhir/NamingSystem/TelematikID",
                          "value": "606358757"
                        }
                      }
                    ],
                    "status": "final",
                    "type": {
                      "coding": [
                        {
                          "system": "https://gematik.de/fhir/CodeSystem/Documenttype",
                          "code": "3",
                          "display": "Receipt"
                        }
                      ]
                    },
                    "date": "2021-07-27T09:30:00Z",
                    "author": [
                      {
                        "reference": "https://gematik.erppre.de:443/Device"
                      }
                    ],
                    "title": "Quittung",
                    "event": [
                      {
                        "period": {
                          "start": "2021-07-27T08:45:00Z",
                          "end": "2021-07-27T09:30:00Z"
                        }
                      }
                    ]
                  }
                },
                {
                  "fullUrl": "https://gematik.erppre.de:443/Device",
                  "resource": {
                    "resourceType": "Device",
                    "id": "1",
                    "meta": {
                      "profile": [
                        "https://gematik.de/fhir/StructureDefinition/ErxDevice"
                      ]
                    },
                    "status": "active",
                    "serialNumber": "0.3.1",
                    "deviceName": [
                      {
                        "name": "E-Rezept Fachdienst",
                        "type": "user-friendly-name"
                      }
                    ],
                    "version": [
                      {
                        "value": "0.3.1"
                      }
                    ],
                    "contact": [
                      {
                        "system": "email",
                        "value": "betrieb@gematik.de"
                      }
                    ]
                  }
                }
              ],
              "signature": {
                "type": [
                  {
                    "system": "urn:iso-astm:E1762-95:2013",
                    "code": "1.2.840.10065.1.12.1.1"
                  }
                ],
                "when": "2021-07-27T09:30:00+00:00",
                "who": {
                  "reference": "https://gematik.erppre.de:443/Device"
                },
                "sigFormat": "application/pkcs7-mime",
                "data": ""
              }
            }
          },
          {
            "link": [
              {
                "relation": "item",
                "url": "http://fhir.abda.de/eRezeptAbgabedaten/StructureDefinition/DAV-PR-ERP-AbgabedatenBundle"
              }
            ],
            "fullUrl": "urn:uuid:99e30482-787f-4f4e-8250-14b0b1db118b",
            "resource": {
              "resourceType": "Binary",
              "id": "99e30482-787f-4f4e-8250-14b0b1db118b",
              "meta": {
                "profile": [
                  "https://gematik.de/fhir/StructureDefinition/ErxBinary"
                ]
              },
              "contentType": "application/pkcs7-mime",
              "data": "ZUFiZ2FiZWRhdGVuIEJlaXNwaWVsIEVyc3RlbGx1bmcgQmVpc3BpZWwgZUFicmVjaG51bmdzZGF0ZW4="
            }
          },
          {
            "link": [
              {
                "relation": "item",
                "url": "https://fhir.gkvsv.de/StructureDefinition/GKVSV_PR_ERP_eAbrechnungsdaten"
              }
            ],
            "fullUrl": "urn:uuid:b478a83b-79c7-40a3-b2c5-5f3923dbc5f8",
            "resource": {
              "resourceType": "Invoice",
              "id": "b478a83b-79c7-40a3-b2c5-5f3923dbc5f8",
              "meta": {
                "profile": [
                  "https://fhir.gkvsv.de/StructureDefinition/GKVSV_PR_ERP_eAbrechnungsdaten|1.0.6"
                ]
              },
              "extension": [
                {
                  "url": "https://fhir.gkvsv.de/StructureDefinition/GKVSV_EX_ERP_Irrlaeufer",
                  "valueBoolean": false
                }
              ],
              "identifier": [
                {
                  "system": "https://gematik.de/fhir/NamingSystem/PrescriptionID",
                  "value": "160.100.000.000.012.06"
                },
                {
                  "system": "https://fhir.gkvsv.de/NamingSystem/GKVSV_NS_Belegnummer",
                  "value": "2103000000010000001"
                }
              ],
              "status": "issued",
              "issuer": {
                "extension": [
                  {
                    "url": "https://fhir.gkvsv.de/StructureDefinition/GKVSV_EX_ERP_LE_Sitz",
                    "valueCoding": {
                      "system": "https://fhir.gkvsv.de/CodeSystem/GKVSV_CS_ERP_Leistungserbringer_Sitz",
                      "code": "1"
                    }
                  }
                ],
                "identifier": {
                  "type": {
                    "coding": [
                      {
                        "system": "https://fhir.gkvsv.de/CodeSystem/GKVSV_CS_ERP_Leistungserbringertyp",
                        "code": "A"
                      }
                    ]
                  },
                  "system": "http://fhir.de/NamingSystem/arge-ik/iknr",
                  "value": "308412345"
                }
              },
              "lineItem": [
                {
                  "extension": [
                    {
                      "url": "https://fhir.gkvsv.de/StructureDefinition/GKVSV_EX_ERP_Positionstyp",
                      "valueCodeableConcept": {
                        "coding": [
                          {
                            "system": "https://fhir.gkvsv.de/CodeSystem/GKVSV_CS_ERP_Positionstyp",
                            "code": "1",
                            "display": "übrige Position"
                          }
                        ]
                      }
                    },
                    {
                      "url": "https://fhir.gkvsv.de/StructureDefinition/GKVSV_EX_ERP_VAT_VALUE",
                      "valueMoney": {
                        "value": 4.24,
                        "currency": "EUR"
                      }
                    },
                    {
                      "url": "https://fhir.gkvsv.de/StructureDefinition/GKVSV_EX_ERP_Import",
                      "valueCodeableConcept": {
                        "coding": [
                          {
                            "system": "https://fhir.gkvsv.de/CodeSystem/GKVSV_CS_ERP_Import",
                            "code": "0"
                          }
                        ]
                      }
                    }
                  ],
                  "sequence": 1,
                  "chargeItemCodeableConcept": {
                    "coding": [
                      {
                        "system": "http://terminology.hl7.org/CodeSystem/v3-NullFlavor",
                        "code": "UNC"
                      }
                    ]
                  },
                  "priceComponent": [
                    {
                      "type": "deduction",
                      "code": {
                        "coding": [
                          {
                            "system": "https://fhir.gkvsv.de/CodeSystem/GKVSV_CS_ERP_ZuAbschlagKey",
                            "code": "R001"
                          }
                        ]
                      },
                      "amount": {
                        "value": -1.77,
                        "currency": "EUR"
                      }
                    }
                  ]
                }
              ]
            }
          }
        ]
      }
    }
  ]
}