<Bundle xmlns="http://hl7.org/fhir"><id value="160d2f21-3c85-47e0-9678-fa11dc722806"/><meta><lastUpdated value="2023-04-18T08:44:31.069+02:00"/><profile value="https://fhir.kbv.de/StructureDefinition/KBV_PR_ERP_Bundle|1.1.0"/></meta><identifier><system value="https://gematik.de/fhir/erp/NamingSystem/GEM_ERP_NS_PrescriptionId"/><value value="200.000.001.943.774.98"/></identifier><type value="document"/><timestamp value="2023-04-18T08:44:31.069+02:00"/><entry><fullUrl value="https://pvs.gematik.de/fhir/Composition/09745a01-e0c8-4b56-a721-7fadf566969d"/><resource><Composition xmlns="http://hl7.org/fhir"><id value="09745a01-e0c8-4b56-a721-7fadf566969d"/><meta><profile value="https://fhir.kbv.de/StructureDefinition/KBV_PR_ERP_Composition|1.1.0"/></meta><extension url="https://fhir.kbv.de/StructureDefinition/KBV_EX_FOR_Legal_basis"><valueCoding><system value="https://fhir.kbv.de/CodeSystem/KBV_CS_SFHIR_KBV_STATUSKENNZEICHEN"/><code value="00"/></valueCoding></extension><status value="final"/><type><coding><system value="https://fhir.kbv.de/CodeSystem/KBV_CS_SFHIR_KBV_FORMULAR_ART"/><code value="e16A"/></coding></type><subject><reference value="Patient/377203e9-67ae-4bd1-9362-29ab9bc66eb3"/></subject><date value="2023-04-18T08:44:31+02:00"/><author><reference value="Practitioner/855385f5-43b5-4d45-939a-00387d12d4f7"/><type value="Practitioner"/></author><author><type value="Device"/><identifier><system value="https://fhir.kbv.de/NamingSystem/KBV_NS_FOR_Pruefnummer"/><value value="GEMATIK/410/2109/36/123"/></identifier></author><title value="elektronische Arzneimittelverordnung"/><custodian><reference value="Organization/925c96e9-7a4a-4c8e-9eb2-152c7f08e2b6"/></custodian><section><code><coding><system value="https://fhir.kbv.de/CodeSystem/KBV_CS_ERP_Section_Type"/><code value="Coverage"/></coding></code><entry><reference value="Coverage/c5d3a5bd-7a38-4e20-8a18-c4584ea51249"/></entry></section><section><code><coding><system value="https://fhir.kbv.de/CodeSystem/KBV_CS_ERP_Section_Type"/><code value="Prescription"/></coding></code><entry><reference value="MedicationRequest/66c234e2-1102-4466-b30c-bc615535fd6a"/></entry></section></Composition></resource></entry><entry><fullUrl value="https://pvs.gematik.de/fhir/MedicationRequest/66c234e2-1102-4466-b30c-bc615535fd6a"/><resource><MedicationRequest xmlns="http://hl7.org/fhir"><id value="66c234e2-1102-4466-b30c-bc615535fd6a"/><meta><profile value="https://fhir.kbv.de/StructureDefinition/KBV_PR_ERP_Prescription|1.1.0"/></meta><extension url="https://fhir.kbv.de/StructureDefinition/KBV_EX_ERP_BVG"><valueBoolean value="false"/></extension><extension url="https://fhir.kbv.de/StructureDefinition/KBV_EX_ERP_EmergencyServicesFee"><valueBoolean value="false"/></extension><extension url="https://fhir.kbv.de/StructureDefinition/KBV_EX_ERP_Multiple_Prescription"><extension url="Kennzeichen"><valueBoolean value="false"/></extension></extension><extension url="https://fhir.kbv.de/StructureDefinition/KBV_EX_FOR_StatusCoPayment"><valueCoding><system value="https://fhir.kbv.de/CodeSystem/KBV_CS_FOR_StatusCoPayment"/><code value="0"/></valueCoding></extension><status value="active"/><intent value="order"/><medicationReference><reference value="Medication/3b2f5487-7408-4b17-bfd2-5c1aa1c0ba59"/></medicationReference><subject><reference value="Patient/377203e9-67ae-4bd1-9362-29ab9bc66eb3"/></subject><authoredOn value="2023-04-18"/><requester><reference value="Practitioner/855385f5-43b5-4d45-939a-00387d12d4f7"/></requester><insurance><reference value="Coverage/c5d3a5bd-7a38-4e20-8a18-c4584ea51249"/></insurance><dosageInstruction><extension url="https://fhir.kbv.de/StructureDefinition/KBV_EX_ERP_DosageFlag"><valueBoolean value="true"/></extension><text value="1-0-0-0"/></dosageInstruction><dispenseRequest><quantity><value value="1"/><system value="http://unitsofmeasure.org"/><code value="{Package}"/></quantity></dispenseRequest><substitution><allowedBoolean value="true"/></substitution></MedicationRequest></resource></entry><entry><fullUrl value="https://pvs.gematik.de/fhir/Medication/3b2f5487-7408-4b17-bfd2-5c1aa1c0ba59"/><resource><Medication xmlns="http://hl7.org/fhir"><id value="3b2f5487-7408-4b17-bfd2-5c1aa1c0ba59"/><meta><profile value="https://fhir.kbv.de/StructureDefinition/KBV_PR_ERP_Medication_PZN|1.1.0"/></meta><extension url="https://fhir.kbv.de/StructureDefinition/KBV_EX_Base_Medication_Type"><valueCodeableConcept><coding><system value="http://snomed.info/sct"/><version value="http://snomed.info/sct/900000000000207008/version/20220331"/><code value="763158003"/><display value="Medicinal product (product)"/></coding></valueCodeableConcept></extension><extension url="https://fhir.kbv.de/StructureDefinition/KBV_EX_ERP_Medication_Category"><valueCoding><system value="https://fhir.kbv.de/CodeSystem/KBV_CS_ERP_Medication_Category"/><code value="00"/></valueCoding></extension><extension url="https://fhir.kbv.de/StructureDefinition/KBV_EX_ERP_Medication_Vaccine"><valueBoolean value="false"/></extension><extension url="http://fhir.de/StructureDefinition/normgroesse"><valueCode value="NB"/></extension><code><coding><system value="http://fhir.de/CodeSystem/ifa/pzn"/><code value="07558872"/></coding><text value="Schmerzmittel"/></code><form><coding><system value="https://fhir.kbv.de/CodeSystem/KBV_CS_SFHIR_KBV_DARREICHUNGSFORM"/><code value="TAB"/></coding></form><amount><numerator><extension url="https://fhir.kbv.de/StructureDefinition/KBV_EX_ERP_Medication_PackagingSize"><valueString value="1"/></extension><unit value="Stk"/></numerator><denominator><value value="1"/></denominator></amount></Medication></resource></entry><entry><fullUrl value="https://pvs.gematik.de/fhir/Patient/377203e9-67ae-4bd1-9362-29ab9bc66eb3"/><resource><Patient xmlns="http://hl7.org/fhir"><id value="377203e9-67ae-4bd1-9362-29ab9bc66eb3"/><meta><profile value="https://fhir.kbv.de/StructureDefinition/KBV_PR_FOR_Patient|1.1.0"/></meta><identifier><type><coding><system value="http://fhir.de/CodeSystem/identifier-type-de-basis"/><code value="PKV"/></coding></type><system value="http://fhir.de/sid/pkv/kvid-10"/><value value="X110465770"/></identifier><name><use value="official"/><family value="Angermänn"><extension url="http://hl7.org/fhir/StructureDefinition/humanname-own-name"><valueString value="Angermänn"/></extension></family><given value="Günther"/></name><birthDate value="1968-10-14"/><address><type value="both"/><line value="Dechant-Krey-Str. 1"><extension url="http://hl7.org/fhir/StructureDefinition/iso21090-ADXP-houseNumber"><valueString value="1"/></extension><extension url="http://hl7.org/fhir/StructureDefinition/iso21090-ADXP-streetName"><valueString value="Dechant-Krey-Str."/></extension></line><city value="Süd Gustav"/><postalCode value="80926"/><country value="D"/></address></Patient></resource></entry><entry><fullUrl value="https://pvs.gematik.de/fhir/Organization/925c96e9-7a4a-4c8e-9eb2-152c7f08e2b6"/><resource><Organization xmlns="http://hl7.org/fhir"><id value="925c96e9-7a4a-4c8e-9eb2-152c7f08e2b6"/><meta><profile value="https://fhir.kbv.de/StructureDefinition/KBV_PR_FOR_Organization|1.1.0"/></meta><identifier><type><coding><system value="http://terminology.hl7.org/CodeSystem/v2-0203"/><code value="BSNR"/></coding></type><system value="https://fhir.kbv.de/NamingSystem/KBV_NS_Base_BSNR"/><value value="888414458"/></identifier><name value="Arztpraxis Schraßer"/><telecom><system value="phone"/><value value="(0146) 403918967"/></telecom><telecom><system value="email"/><value value="fabio.delonge@goller.info"/></telecom><address><type value="both"/><line value="Maybachstr. 41c"><extension url="http://hl7.org/fhir/StructureDefinition/iso21090-ADXP-houseNumber"><valueString value="41c"/></extension><extension url="http://hl7.org/fhir/StructureDefinition/iso21090-ADXP-streetName"><valueString value="Maybachstr."/></extension></line><city value="Schwalmland"/><postalCode value="84386"/><country value="D"/></address></Organization></resource></entry><entry><fullUrl value="https://pvs.gematik.de/fhir/Coverage/c5d3a5bd-7a38-4e20-8a18-c4584ea51249"/><resource><Coverage xmlns="http://hl7.org/fhir"><id value="c5d3a5bd-7a38-4e20-8a18-c4584ea51249"/><meta><profile value="https://fhir.kbv.de/StructureDefinition/KBV_PR_FOR_Coverage|1.1.0"/></meta><extension url="http://fhir.de/StructureDefinition/gkv/besondere-personengruppe"><valueCoding><system value="https://fhir.kbv.de/CodeSystem/KBV_CS_SFHIR_KBV_PERSONENGRUPPE"/><code value="00"/></valueCoding></extension><extension url="http://fhir.de/StructureDefinition/gkv/dmp-kennzeichen"><valueCoding><system value="https://fhir.kbv.de/CodeSystem/KBV_CS_SFHIR_KBV_DMP"/><code value="00"/></valueCoding></extension><extension url="http://fhir.de/StructureDefinition/gkv/wop"><valueCoding><system value="https://fhir.kbv.de/CodeSystem/KBV_CS_SFHIR_ITA_WOP"/><code value="61"/></valueCoding></extension><extension url="http://fhir.de/StructureDefinition/gkv/versichertenart"><valueCoding><system value="https://fhir.kbv.de/CodeSystem/KBV_CS_SFHIR_KBV_VERSICHERTENSTATUS"/><code value="1"/></valueCoding></extension><status value="active"/><type><coding><system value="http://fhir.de/CodeSystem/versicherungsart-de-basis"/><code value="PKV"/></coding></type><beneficiary><reference value="Patient/de296dcc-e5b3-4224-9501-7ef93763f2b1"/></beneficiary><payor><identifier><system value="http://fhir.de/sid/arge-ik/iknr"/><value value="883349820"/></identifier><display value="Farmer Südwürttemberg"/></payor></Coverage></resource></entry><entry><fullUrl value="https://pvs.gematik.de/fhir/Practitioner/855385f5-43b5-4d45-939a-00387d12d4f7"/><resource><Practitioner xmlns="http://hl7.org/fhir"><id value="855385f5-43b5-4d45-939a-00387d12d4f7"/><meta><profile value="https://fhir.kbv.de/StructureDefinition/KBV_PR_FOR_Practitioner|1.1.0"/></meta><identifier><type><coding><system value="http://terminology.hl7.org/CodeSystem/v2-0203"/><code value="LANR"/></coding></type><system value="https://fhir.kbv.de/NamingSystem/KBV_NS_Base_ANR"/><value value="038720042"/></identifier><name><use value="official"/><family value="Schraßer"><extension url="http://hl7.org/fhir/StructureDefinition/humanname-own-name"><valueString value="Schraßer"/></extension></family><given value="Dr."/><prefix value="Dr."><extension url="http://hl7.org/fhir/StructureDefinition/iso21090-EN-qualifier"><valueCode value="AC"/></extension></prefix></name><qualification><code><coding><system value="https://fhir.kbv.de/CodeSystem/KBV_CS_FOR_Qualification_Type"/><code value="00"/></coding></code></qualification><qualification><code><coding><system value="https://fhir.kbv.de/CodeSystem/KBV_CS_FOR_Berufsbezeichnung"/><code value="Berufsbezeichnung"/></coding><text value="Super-Facharzt für alles Mögliche"/></code></qualification></Practitioner></resource></entry></Bundle>