<Bundle xmlns="http://hl7.org/fhir">
   <id value="a018784a-0e00-0000-0003-000000000000"/>
   <meta>
      <profile value="https://gematik.de/fhir/erp/StructureDefinition/GEM_ERP_PR_Bundle|1.4"/>
   </meta>
   <identifier>
      <system value="https://gematik.de/fhir/erp/NamingSystem/GEM_ERP_NS_PrescriptionId"/>
      <value value="160.000.239.761.432.55"/>
   </identifier>
   <type value="document"/>
   <timestamp value="2025-03-28T08:06:36.191+00:00"/>
   <link>
      <relation value="self"/>
      <url value="https://erp-ref.zentral.erp.splitdns.ti-dienste.de/Task/160.000.239.761.432.55/$close/"/>
   </link>
   <entry>
      <fullUrl value="urn:uuid:a99df6c0-f7a0-481d-a71a-5521b1f5c5fc"/>
      <resource>
         <Composition xmlns="http://hl7.org/fhir">
            <id value="a99df6c0-f7a0-481d-a71a-5521b1f5c5fc"/>
            <meta>
               <profile value="https://gematik.de/fhir/erp/StructureDefinition/GEM_ERP_PR_Composition|1.4"/>
            </meta>
            <extension url="https://gematik.de/fhir/erp/StructureDefinition/GEM_ERP_EX_Beneficiary">
               <valueIdentifier>
                  <system value="https://gematik.de/fhir/sid/telematik-id"/>
                  <value value="3-SMC-B-Testkarte--883110000163973"/>
               </valueIdentifier>
            </extension>
            <status value="final"/>
            <type>
               <coding>
                  <system value="https://gematik.de/fhir/erp/CodeSystem/GEM_ERP_CS_DocumentType"/>
                  <code value="3"/>
                  <display value="Receipt"/>
               </coding>
            </type>
            <date value="2025-03-28T08:06:36.186+00:00"/>
            <author>
               <reference value="urn:uuid:04a3daa6-ae06-449e-8103-e6a6f19b9cbe"/>
            </author>
            <title value="Quittung"/>
            <event>
               <period>
                  <start value="2025-03-28T08:06:35.501+00:00"/>
                  <end value="2025-03-28T08:06:36.186+00:00"/>
               </period>
            </event>
            <section>
               <entry>
                  <reference value="urn:uuid:b1bace44-926a-4da5-a4f7-54ff1d4ca876"/>
               </entry>
            </section>
         </Composition>
      </resource>
   </entry>
   <entry>
      <fullUrl value="urn:uuid:04a3daa6-ae06-449e-8103-e6a6f19b9cbe"/>
      <resource>
         <Device xmlns="http://hl7.org/fhir">
            <id value="1"/>
            <meta>
               <profile value="https://gematik.de/fhir/erp/StructureDefinition/GEM_ERP_PR_Device|1.4"/>
            </meta>
            <status value="active"/>
            <serialNumber value="1.17.0"/>
            <deviceName>
               <name value="E-Rezept Fachdienst"/>
               <type value="user-friendly-name"/>
            </deviceName>
            <version>
               <value value="1.17.0"/>
            </version>
            <contact>
               <system value="email"/>
               <value value="betrieb@gematik.de"/>
            </contact>
         </Device>
      </resource>
   </entry>
   <entry>
      <fullUrl value="urn:uuid:b1bace44-926a-4da5-a4f7-54ff1d4ca876"/>
      <resource>
         <Binary xmlns="http://hl7.org/fhir">
            <id value="b1bace44-926a-4da5-a4f7-54ff1d4ca876"/>
            <meta>
               <versionId value="1"/>
               <profile value="https://gematik.de/fhir/erp/StructureDefinition/GEM_ERP_PR_Digest|1.4"/>
            </meta>
            <contentType value="application/octet-stream"/>
            <data value="5a5rfK9LgqdWD9CHY1MoOfz+Sz1QUm6oTnIxo6QoQFs="/>
         </Binary>
      </resource>
   </entry>
   <signature>
      <type>
         <system value="urn:iso-astm:E1762-95:2013"/>
         <code value="1.2.840.10065.1.12.1.1"/>
      </type>
      <when value="2025-03-28T08:06:36.192+00:00"/>
      <who>
         <reference value="urn:uuid:04a3daa6-ae06-449e-8103-e6a6f19b9cbe"/>
      </who>
      <sigFormat value="application/pkcs7-mime"/>
      <data value=""/>
   </signature>
</Bundle>