{
  "resourceType": "Bundle",
  "id": "9b2a3432-eb78-4712-aa89-d4f5f18b677d",
  "meta": {
    "profile": [
      "https://gematik.de/fhir/StructureDefinition/ErxReceipt|1.1.1"
    ],
    "tag": [
      {
        "display": "Beispiel Quittung für erfolgreich durchlaufenen E-Rezept-Workflow = dispensiertes E-Rezept"
      }
    ]
  },
  "identifier": {
    "system": "https://gematik.de/fhir/NamingSystem/PrescriptionID",
    "value": "160.000.764.737.300.50"
  },
  "type": "document",
  "timestamp": "2022-03-30T10:40:00+00:00",
  "link": [
    {
      "relation": "self",
      "url": "https://erp-ref.zentral.erp.splitdns.ti-dienste.de/Task/160.000.764.737.300.50/$close/"
    }
  ],
  "entry": [
    {
      "fullUrl": "https://erp.zentral.erp.splitdns.ti-dienste.de/Composition/2d63978355-8925-46db-9c44-817bc64bcd40",
      "resource": {
        "resourceType": "Composition",
        "id": "2d63978355-8925-46db-9c44-817bc64bcd40",
        "meta": {
          "profile": [
            "https://gematik.de/fhir/StructureDefinition/ErxComposition|1.1.1"
          ]
        },
        "extension": [
          {
            "url": "https://gematik.de/fhir/StructureDefinition/BeneficiaryExtension",
            "valueIdentifier": {
              "system": "https://gematik.de/fhir/NamingSystem/TelematikID",
              "value": "606358757"
            }
          }
        ],
        "status": "final",
        "type": {
          "coding": [
            {
              "system": "https://gematik.de/fhir/CodeSystem/Documenttype",
              "code": "3",
              "display": "Receipt"
            }
          ]
        },
        "date": "2022-03-30T10:40:00.000+00:00",
        "author": [
          {
            "reference": "Device/1"
          }
        ],
        "title": "Quittung",
        "event": [
          {
            "period": {
              "start": "2022-03-30T10:20:00.000+00:00",
              "end": "2022-03-30T10:40:00.000+00:00"
            }
          }
        ],
        "section": [
          {
            "entry": [
              {
                "reference": "Binary/Prescription123",
                "type": "Binary"
              }
            ]
          }
        ]
      }
    },
    {
      "fullUrl": "https://erp.zentral.erp.splitdns.ti-dienste.de/Device/1",
      "resource": {
        "resourceType": "Device",
        "id": "1",
        "meta": {
          "profile": [
            "https://gematik.de/fhir/StructureDefinition/ErxDevice|1.1.1"
          ]
        },
        "status": "active",
        "serialNumber": "1.0.0",
        "deviceName": [
          {
            "name": "E-Rezept Fachdienst",
            "type": "user-friendly-name"
          }
        ],
        "version": [
          {
            "value": "1.0.0"
          }
        ],
        "contact": [
          {
            "system": "email",
            "value": "betrieb@gematik.de"
          }
        ]
      }
    },
    {
      "fullUrl": "https://erp.zentral.erp.splitdns.ti-dienste.de/Binary/Prescription123",
      "resource": {
        "resourceType": "Binary",
        "id": "Prescription123",
        "contentType": "application/octet-stream",
        "data": "Y2RjMTVjNThkMzlkMjllNDdjMTk1MjIzNDlkODRjMThiNTliYTZkMGFhZmI5NGYyZjM2NDFkNGJiZTk1ODhiMQ=="
      }
    }
  ],
  "signature": {
    "type": [
      {
        "system": "urn:iso-astm:E1762-95:2013",
        "code": "1.2.840.10065.1.12.1.1"
      }
    ],
    "when": "2022-03-30T10:40:00+00:00",
    "who": {
      "reference": "https://erp-ref.zentral.erp.splitdns.ti-dienste.de/Device/1"
    },
    "sigFormat": "application/pkcs7-mime",
    "data": "MIIIFQYJKoZIhvcNAQcCoIIIBjCCCAICAQExDzANBglghkgBZQMEAgEFADAL"
  }
}