{
  "resourceType" : "Bundle",
  "id" : "0310a994-9ff5-440b-aeb8-0dc84ec5b529",
  "type" : "collection",
  "timestamp" : "2024-02-08T18:06:48.015+00:00",
  "link" : [ {
    "relation" : "self",
    "url" : "https://erp-ref.zentral.erp.splitdns.ti-dienste.de/Task/160.000.226.119.772.56"
  } ],
  "entry" : [ {
    "fullUrl" : "https://erp-ref.zentral.erp.splitdns.ti-dienste.de/Task/160.000.226.119.772.56",
    "resource" : {
      "resourceType" : "Task",
      "id" : "160.000.226.119.772.56",
      "meta" : {
        "profile" : [ "https://gematik.de/fhir/erp/StructureDefinition/GEM_ERP_PR_Task|1.2" ]
      },
      "extension" : [ {
        "url" : "https://gematik.de/fhir/erp/StructureDefinition/GEM_ERP_EX_PrescriptionType",
        "valueCoding" : {
          "system" : "https://gematik.de/fhir/erp/CodeSystem/GEM_ERP_CS_FlowType",
          "code" : "160",
          "display" : "Muster 16 (Apothekenpflichtige Arzneimittel)"
        }
      }, {
        "url" : "https://gematik.de/fhir/erp/StructureDefinition/GEM_ERP_EX_ExpiryDate",
        "valueDate" : "2024-05-08"
      }, {
        "url" : "https://gematik.de/fhir/erp/StructureDefinition/GEM_ERP_EX_AcceptDate",
        "valueDate" : "2024-03-07"
      } ],
      "identifier" : [ {
        "use" : "official",
        "system" : "https://gematik.de/fhir/erp/NamingSystem/GEM_ERP_NS_PrescriptionId",
        "value" : "160.000.226.119.772.56"
      }, {
        "use" : "official",
        "system" : "https://gematik.de/fhir/erp/NamingSystem/GEM_ERP_NS_AccessCode",
        "value" : "36e310ec422932a437e914279b05423a81830ce1f6c3df10dae0d968e6cea7af"
      } ],
      "status" : "ready",
      "intent" : "order",
      "for" : {
        "identifier" : {
          "system" : "http://fhir.de/sid/gkv/kvid-10",
          "value" : "X110498565"
        }
      },
      "authoredOn" : "2024-02-08T18:06:47.141+00:00",
      "lastModified" : "2024-02-08T18:06:47.537+00:00",
      "performerType" : [ {
        "coding" : [ {
          "system" : "https://gematik.de/fhir/erp/CodeSystem/GEM_ERP_CS_OrganizationType",
          "code" : "urn:oid:1.2.276.0.76.4.54",
          "display" : "Öffentliche Apotheke"
        } ],
        "text" : "Öffentliche Apotheke"
      } ],
      "input" : [ {
        "type" : {
          "coding" : [ {
            "system" : "https://gematik.de/fhir/erp/CodeSystem/GEM_ERP_CS_DocumentType",
            "code" : "2"
          } ]
        },
        "valueReference" : {
          "reference" : "a05c507a-0d00-0000-0002-000000000000"
        }
      } ]
    }
  }, {
    "fullUrl" : "urn:uuid:a05c507a-0d00-0000-0002-000000000000",
    "resource" : {
      "resourceType" : "Bundle",
      "meta" : {
        "lastUpdated" : "2024-02-08T19:06:47.263+01:00",
        "profile" : [ "https://fhir.kbv.de/StructureDefinition/KBV_PR_ERP_Bundle|1.1.0" ]
      },
      "identifier" : {
        "system" : "https://gematik.de/fhir/erp/NamingSystem/GEM_ERP_NS_PrescriptionId",
        "value" : "160.000.226.119.772.56"
      },
      "type" : "document",
      "timestamp" : "2024-02-08T19:06:47.263+01:00",
      "entry" : [ {
        "fullUrl" : "https://pvs.gematik.de/fhir/Composition/ddc9d4f3-762f-4e34-a46a-f876a3de8dff",
        "resource" : {
          "resourceType" : "Composition",
          "id" : "ddc9d4f3-762f-4e34-a46a-f876a3de8dff",
          "meta" : {
            "profile" : [ "https://fhir.kbv.de/StructureDefinition/KBV_PR_ERP_Composition|1.1.0" ]
          },
          "extension" : [ {
            "url" : "https://fhir.kbv.de/StructureDefinition/KBV_EX_FOR_Legal_basis",
            "valueCoding" : {
              "system" : "https://fhir.kbv.de/CodeSystem/KBV_CS_SFHIR_KBV_STATUSKENNZEICHEN",
              "code" : "00"
            }
          } ],
          "status" : "final",
          "type" : {
            "coding" : [ {
              "system" : "https://fhir.kbv.de/CodeSystem/KBV_CS_SFHIR_KBV_FORMULAR_ART",
              "code" : "e16A"
            } ]
          },
          "subject" : {
            "reference" : "Patient/35459836-f16f-4e92-b4b5-af95fb83cc84"
          },
          "date" : "2024-02-08T19:06:47+01:00",
          "author" : [ {
            "reference" : "Practitioner/9ebca3b6-31b1-4615-9f1a-962c8df31a6a",
            "type" : "Practitioner"
          }, {
            "type" : "Device",
            "identifier" : {
              "system" : "https://fhir.kbv.de/NamingSystem/KBV_NS_FOR_Pruefnummer",
              "value" : "GEMATIK/410/2109/36/123"
            }
          } ],
          "title" : "elektronische Arzneimittelverordnung",
          "custodian" : {
            "reference" : "Organization/166f57eb-9898-4c8a-b619-eed96517a0be"
          },
          "section" : [ {
            "code" : {
              "coding" : [ {
                "system" : "https://fhir.kbv.de/CodeSystem/KBV_CS_ERP_Section_Type",
                "code" : "Coverage"
              } ]
            },
            "entry" : [ {
              "reference" : "Coverage/5e0c0389-f2d5-4bba-be7f-971f912543cf"
            } ]
          }, {
            "code" : {
              "coding" : [ {
                "system" : "https://fhir.kbv.de/CodeSystem/KBV_CS_ERP_Section_Type",
                "code" : "Prescription"
              } ]
            },
            "entry" : [ {
              "reference" : "MedicationRequest/ed04b07c-30e3-44a8-a5d2-b90e89dd2288"
            } ]
          } ]
        }
      }, {
        "fullUrl" : "https://pvs.gematik.de/fhir/Medication/9d39ec41-1121-40f3-ba0c-a179f46b718a",
        "resource" : {
          "resourceType" : "Medication",
          "id" : "9d39ec41-1121-40f3-ba0c-a179f46b718a",
          "meta" : {
            "profile" : [ "https://fhir.kbv.de/StructureDefinition/KBV_PR_ERP_Medication_PZN|1.1.0" ]
          },
          "extension" : [ {
            "url" : "https://fhir.kbv.de/StructureDefinition/KBV_EX_Base_Medication_Type",
            "valueCodeableConcept" : {
              "coding" : [ {
                "system" : "http://snomed.info/sct",
                "version" : "http://snomed.info/sct/900000000000207008/version/20220331",
                "code" : "763158003",
                "display" : "Medicinal product (product)"
              } ]
            }
          }, {
            "url" : "https://fhir.kbv.de/StructureDefinition/KBV_EX_ERP_Medication_Category",
            "valueCoding" : {
              "system" : "https://fhir.kbv.de/CodeSystem/KBV_CS_ERP_Medication_Category",
              "code" : "00"
            }
          }, {
            "url" : "https://fhir.kbv.de/StructureDefinition/KBV_EX_ERP_Medication_Vaccine",
            "valueBoolean" : false
          }, {
            "url" : "http://fhir.de/StructureDefinition/normgroesse",
            "valueCode" : "NB"
          } ],
          "code" : {
            "coding" : [ {
              "system" : "http://fhir.de/CodeSystem/ifa/pzn",
              "code" : "37914278"
            } ],
            "text" : "Ilopterproston"
          },
          "form" : {
            "coding" : [ {
              "system" : "https://fhir.kbv.de/CodeSystem/KBV_CS_SFHIR_KBV_DARREICHUNGSFORM",
              "code" : "TAB"
            } ]
          },
          "amount" : {
            "numerator" : {
              "extension" : [ {
                "url" : "https://fhir.kbv.de/StructureDefinition/KBV_EX_ERP_Medication_PackagingSize",
                "valueString" : "1"
              } ],
              "unit" : "Stk"
            },
            "denominator" : {
              "value" : 1
            }
          }
        }
      }, {
        "fullUrl" : "https://pvs.gematik.de/fhir/Patient/35459836-f16f-4e92-b4b5-af95fb83cc84",
        "resource" : {
          "resourceType" : "Patient",
          "id" : "35459836-f16f-4e92-b4b5-af95fb83cc84",
          "meta" : {
            "profile" : [ "https://fhir.kbv.de/StructureDefinition/KBV_PR_FOR_Patient|1.1.0" ]
          },
          "identifier" : [ {
            "type" : {
              "coding" : [ {
                "system" : "http://fhir.de/CodeSystem/identifier-type-de-basis",
                "code" : "GKV"
              } ]
            },
            "system" : "http://fhir.de/sid/gkv/kvid-10",
            "value" : "X110498565"
          } ],
          "name" : [ {
            "use" : "official",
            "family" : "Hüllmann",
            "_family" : {
              "extension" : [ {
                "url" : "http://hl7.org/fhir/StructureDefinition/humanname-own-name",
                "valueString" : "Hüllmann"
              } ]
            },
            "given" : [ "Sina" ]
          } ],
          "birthDate" : "1986-07-21",
          "address" : [ {
            "type" : "both",
            "line" : [ "Kleingansweg 62b" ],
            "_line" : [ {
              "extension" : [ {
                "url" : "http://hl7.org/fhir/StructureDefinition/iso21090-ADXP-houseNumber",
                "valueString" : "62b"
              }, {
                "url" : "http://hl7.org/fhir/StructureDefinition/iso21090-ADXP-streetName",
                "valueString" : "Kleingansweg"
              } ]
            } ],
            "city" : "Groß Julian",
            "postalCode" : "36222",
            "country" : "D"
          } ]
        }
      }, {
        "fullUrl" : "https://pvs.gematik.de/fhir/Organization/166f57eb-9898-4c8a-b619-eed96517a0be",
        "resource" : {
          "resourceType" : "Organization",
          "id" : "166f57eb-9898-4c8a-b619-eed96517a0be",
          "meta" : {
            "profile" : [ "https://fhir.kbv.de/StructureDefinition/KBV_PR_FOR_Organization|1.1.0" ]
          },
          "identifier" : [ {
            "type" : {
              "coding" : [ {
                "system" : "http://terminology.hl7.org/CodeSystem/v2-0203",
                "code" : "BSNR"
              } ]
            },
            "system" : "https://fhir.kbv.de/NamingSystem/KBV_NS_Base_BSNR",
            "value" : "032584845"
          } ],
          "name" : "Arztpraxis Schraßer",
          "telecom" : [ {
            "system" : "phone",
            "value" : "(05736) 6284866"
          }, {
            "system" : "email",
            "value" : "lene.soller@schuhaj.org"
          } ],
          "address" : [ {
            "type" : "both",
            "line" : [ "Pestalozzistr. 49c" ],
            "_line" : [ {
              "extension" : [ {
                "url" : "http://hl7.org/fhir/StructureDefinition/iso21090-ADXP-houseNumber",
                "valueString" : "49c"
              }, {
                "url" : "http://hl7.org/fhir/StructureDefinition/iso21090-ADXP-streetName",
                "valueString" : "Pestalozzistr."
              } ]
            } ],
            "city" : "Joannastadt",
            "postalCode" : "59066",
            "country" : "D"
          } ]
        }
      }, {
        "fullUrl" : "https://pvs.gematik.de/fhir/Coverage/5e0c0389-f2d5-4bba-be7f-971f912543cf",
        "resource" : {
          "resourceType" : "Coverage",
          "id" : "5e0c0389-f2d5-4bba-be7f-971f912543cf",
          "meta" : {
            "profile" : [ "https://fhir.kbv.de/StructureDefinition/KBV_PR_FOR_Coverage|1.1.0" ]
          },
          "extension" : [ {
            "url" : "http://fhir.de/StructureDefinition/gkv/besondere-personengruppe",
            "valueCoding" : {
              "system" : "https://fhir.kbv.de/CodeSystem/KBV_CS_SFHIR_KBV_PERSONENGRUPPE",
              "code" : "00"
            }
          }, {
            "url" : "http://fhir.de/StructureDefinition/gkv/dmp-kennzeichen",
            "valueCoding" : {
              "system" : "https://fhir.kbv.de/CodeSystem/KBV_CS_SFHIR_KBV_DMP",
              "code" : "00"
            }
          }, {
            "url" : "http://fhir.de/StructureDefinition/gkv/wop",
            "valueCoding" : {
              "system" : "https://fhir.kbv.de/CodeSystem/KBV_CS_SFHIR_ITA_WOP",
              "code" : "00"
            }
          }, {
            "url" : "http://fhir.de/StructureDefinition/gkv/versichertenart",
            "valueCoding" : {
              "system" : "https://fhir.kbv.de/CodeSystem/KBV_CS_SFHIR_KBV_VERSICHERTENSTATUS",
              "code" : "1"
            }
          } ],
          "status" : "active",
          "type" : {
            "coding" : [ {
              "system" : "http://fhir.de/CodeSystem/versicherungsart-de-basis",
              "code" : "GKV"
            } ]
          },
          "beneficiary" : {
            "reference" : "Patient/26f31e20-8a1a-4728-bb71-f483c71021b8"
          },
          "payor" : [ {
            "identifier" : {
              "system" : "http://fhir.de/sid/arge-ik/iknr",
              "value" : "104224634"
            },
            "display" : "BKK Deutsche Bank AG"
          } ]
        }
      }, {
        "fullUrl" : "https://pvs.gematik.de/fhir/Practitioner/9ebca3b6-31b1-4615-9f1a-962c8df31a6a",
        "resource" : {
          "resourceType" : "Practitioner",
          "id" : "9ebca3b6-31b1-4615-9f1a-962c8df31a6a",
          "meta" : {
            "profile" : [ "https://fhir.kbv.de/StructureDefinition/KBV_PR_FOR_Practitioner|1.1.0" ]
          },
          "identifier" : [ {
            "type" : {
              "coding" : [ {
                "system" : "http://terminology.hl7.org/CodeSystem/v2-0203",
                "code" : "LANR"
              } ]
            },
            "system" : "https://fhir.kbv.de/NamingSystem/KBV_NS_Base_ANR",
            "value" : "180405337"
          } ],
          "name" : [ {
            "use" : "official",
            "family" : "Schraßer",
            "_family" : {
              "extension" : [ {
                "url" : "http://hl7.org/fhir/StructureDefinition/humanname-own-name",
                "valueString" : "Schraßer"
              } ]
            },
            "given" : [ "Dr." ],
            "prefix" : [ "Dr." ],
            "_prefix" : [ {
              "extension" : [ {
                "url" : "http://hl7.org/fhir/StructureDefinition/iso21090-EN-qualifier",
                "valueCode" : "AC"
              } ]
            } ]
          } ],
          "qualification" : [ {
            "code" : {
              "coding" : [ {
                "system" : "https://fhir.kbv.de/CodeSystem/KBV_CS_FOR_Qualification_Type",
                "code" : "00"
              } ]
            }
          }, {
            "code" : {
              "coding" : [ {
                "system" : "https://fhir.kbv.de/CodeSystem/KBV_CS_FOR_Berufsbezeichnung",
                "code" : "Berufsbezeichnung"
              } ],
              "text" : "Super-Facharzt für alles Mögliche"
            }
          } ]
        }
      }, {
        "fullUrl" : "https://pvs.gematik.de/fhir/MedicationRequest/ed04b07c-30e3-44a8-a5d2-b90e89dd2288",
        "resource" : {
          "resourceType" : "MedicationRequest",
          "id" : "ed04b07c-30e3-44a8-a5d2-b90e89dd2288",
          "meta" : {
            "profile" : [ "https://fhir.kbv.de/StructureDefinition/KBV_PR_ERP_Prescription|1.1.0" ]
          },
          "extension" : [ {
            "url" : "https://fhir.kbv.de/StructureDefinition/KBV_EX_ERP_BVG",
            "valueBoolean" : false
          }, {
            "url" : "https://fhir.kbv.de/StructureDefinition/KBV_EX_ERP_EmergencyServicesFee",
            "valueBoolean" : false
          }, {
            "url" : "https://fhir.kbv.de/StructureDefinition/KBV_EX_ERP_Multiple_Prescription",
            "extension" : [ {
              "url" : "Kennzeichen",
              "valueBoolean" : false
            } ]
          }, {
            "url" : "https://fhir.kbv.de/StructureDefinition/KBV_EX_FOR_StatusCoPayment",
            "valueCoding" : {
              "system" : "https://fhir.kbv.de/CodeSystem/KBV_CS_FOR_StatusCoPayment",
              "code" : "2"
            }
          } ],
          "status" : "active",
          "intent" : "order",
          "medicationReference" : {
            "reference" : "Medication/9d39ec41-1121-40f3-ba0c-a179f46b718a"
          },
          "subject" : {
            "reference" : "Patient/35459836-f16f-4e92-b4b5-af95fb83cc84"
          },
          "authoredOn" : "2024-02-08",
          "requester" : {
            "reference" : "Practitioner/9ebca3b6-31b1-4615-9f1a-962c8df31a6a"
          },
          "insurance" : [ {
            "reference" : "Coverage/5e0c0389-f2d5-4bba-be7f-971f912543cf"
          } ],
          "dispenseRequest" : {
            "quantity" : {
              "value" : 1,
              "system" : "http://unitsofmeasure.org",
              "code" : "{Package}"
            }
          },
          "substitution" : {
            "allowedBoolean" : false
          }
        }
      } ],
      "signature" : {
        "type" : [ {
          "system" : "urn:iso-astm:E1762-95:2013",
          "code" : "1.2.840.10065.1.12.1.5"
        } ],
        "when" : "2024-02-08T18:06:48.015+00:00",
        "who" : {
          "reference" : "https://erp-ref.zentral.erp.splitdns.ti-dienste.de/Device/1"
        },
        "targetFormat" : "application/fhir+json",
        "sigFormat" : "application/jose",
        "data" : ""
      }
    }
  } ]
}