{
  "resourceType" : "Bundle",
  "id" : "8c2d9740-9985-41e2-9238-5c1227cdb033",
  "type" : "collection",
  "timestamp" : "2023-11-27T07:29:20.953+00:00",
  "link" : [ {
    "relation" : "self",
    "url" : "https://erp-test.zentral.erp.splitdns.ti-dienste.de/Task/160.000.006.420.723.51"
  } ],
  "entry" : [ {
    "fullUrl" : "https://erp-test.zentral.erp.splitdns.ti-dienste.de/Task/160.000.006.420.723.51",
    "resource" : {
      "resourceType" : "Task",
      "id" : "160.000.006.420.723.51",
      "meta" : {
        "profile" : [ "https://gematik.de/fhir/erp/StructureDefinition/GEM_ERP_PR_Task|1.2" ]
      },
      "extension" : [ {
        "url" : "https://gematik.de/fhir/erp/StructureDefinition/GEM_ERP_EX_PrescriptionType",
        "valueCoding" : {
          "system" : "https://gematik.de/fhir/erp/CodeSystem/GEM_ERP_CS_FlowType",
          "code" : "160",
          "display" : "Muster 16 (Apothekenpflichtige Arzneimittel)"
        }
      }, {
        "url" : "https://gematik.de/fhir/erp/StructureDefinition/GEM_ERP_EX_ExpiryDate",
        "valueDate" : "2024-02-27"
      }, {
        "url" : "https://gematik.de/fhir/erp/StructureDefinition/GEM_ERP_EX_AcceptDate",
        "valueDate" : "2023-12-25"
      } ],
      "identifier" : [ {
        "use" : "official",
        "system" : "https://gematik.de/fhir/erp/NamingSystem/GEM_ERP_NS_PrescriptionId",
        "value" : "160.000.006.420.723.51"
      }, {
        "use" : "official",
        "system" : "https://gematik.de/fhir/erp/NamingSystem/GEM_ERP_NS_AccessCode",
        "value" : "23a2ad9fdd775ceb1061d0cfca74062aff7d67db37481ff457ac97e1b4652946"
      } ],
      "status" : "ready",
      "intent" : "order",
      "for" : {
        "identifier" : {
          "system" : "http://fhir.de/sid/gkv/kvid-10",
          "value" : "X110498565"
        }
      },
      "authoredOn" : "2023-11-27T07:29:20.136+00:00",
      "lastModified" : "2023-11-27T07:29:20.550+00:00",
      "performerType" : [ {
        "coding" : [ {
          "system" : "https://gematik.de/fhir/erp/CodeSystem/GEM_ERP_CS_OrganizationType",
          "code" : "urn:oid:1.2.276.0.76.4.54",
          "display" : "Öffentliche Apotheke"
        } ],
        "text" : "Öffentliche Apotheke"
      } ],
      "input" : [ {
        "type" : {
          "coding" : [ {
            "system" : "https://gematik.de/fhir/erp/CodeSystem/GEM_ERP_CS_DocumentType",
            "code" : "2"
          } ]
        },
        "valueReference" : {
          "reference" : "a0f3f861-0000-0000-0002-000000000000"
        }
      } ]
    }
  }, {
    "fullUrl" : "urn:uuid:a0f3f861-0000-0000-0002-000000000000",
    "resource" : {
      "resourceType" : "Bundle",
      "meta" : {
        "lastUpdated" : "2023-11-27T08:29:20.242+01:00",
        "profile" : [ "https://fhir.kbv.de/StructureDefinition/KBV_PR_ERP_Bundle|1.1.0" ]
      },
      "identifier" : {
        "system" : "https://gematik.de/fhir/erp/NamingSystem/GEM_ERP_NS_PrescriptionId",
        "value" : "160.000.006.420.723.51"
      },
      "type" : "document",
      "timestamp" : "2023-11-27T08:29:20.242+01:00",
      "entry" : [ {
        "fullUrl" : "https://pvs.gematik.de/fhir/Composition/1090c65d-7b1b-4fbf-b3a4-4e2c1ab2bde2",
        "resource" : {
          "resourceType" : "Composition",
          "id" : "1090c65d-7b1b-4fbf-b3a4-4e2c1ab2bde2",
          "meta" : {
            "profile" : [ "https://fhir.kbv.de/StructureDefinition/KBV_PR_ERP_Composition|1.1.0" ]
          },
          "extension" : [ {
            "url" : "https://fhir.kbv.de/StructureDefinition/KBV_EX_FOR_Legal_basis",
            "valueCoding" : {
              "system" : "https://fhir.kbv.de/CodeSystem/KBV_CS_SFHIR_KBV_STATUSKENNZEICHEN",
              "code" : "00"
            }
          } ],
          "status" : "final",
          "type" : {
            "coding" : [ {
              "system" : "https://fhir.kbv.de/CodeSystem/KBV_CS_SFHIR_KBV_FORMULAR_ART",
              "code" : "e16A"
            } ]
          },
          "subject" : {
            "reference" : "Patient/14a99bb7-8983-4563-9e7d-95910bf77cec"
          },
          "date" : "2023-11-27T08:29:20+01:00",
          "author" : [ {
            "reference" : "Practitioner/38fbc5f9-e28e-49e5-9ba9-7e24273b8346",
            "type" : "Practitioner"
          }, {
            "type" : "Device",
            "identifier" : {
              "system" : "https://fhir.kbv.de/NamingSystem/KBV_NS_FOR_Pruefnummer",
              "value" : "GEMATIK/410/2109/36/123"
            }
          } ],
          "title" : "elektronische Arzneimittelverordnung",
          "custodian" : {
            "reference" : "Organization/61e9b17e-db65-4b83-b489-d49b0337502d"
          },
          "section" : [ {
            "code" : {
              "coding" : [ {
                "system" : "https://fhir.kbv.de/CodeSystem/KBV_CS_ERP_Section_Type",
                "code" : "Coverage"
              } ]
            },
            "entry" : [ {
              "reference" : "Coverage/b488e65c-8ade-4deb-91be-7f95ab03e72a"
            } ]
          }, {
            "code" : {
              "coding" : [ {
                "system" : "https://fhir.kbv.de/CodeSystem/KBV_CS_ERP_Section_Type",
                "code" : "Prescription"
              } ]
            },
            "entry" : [ {
              "reference" : "MedicationRequest/d473dfeb-ea77-4c37-a519-734dcec74662"
            } ]
          } ]
        }
      }, {
        "fullUrl" : "https://pvs.gematik.de/fhir/Medication/26302bf4-e3d9-45f5-baaa-f8f4d11a3eff",
        "resource" : {
          "resourceType" : "Medication",
          "id" : "26302bf4-e3d9-45f5-baaa-f8f4d11a3eff",
          "meta" : {
            "profile" : [ "https://fhir.kbv.de/StructureDefinition/KBV_PR_ERP_Medication_PZN|1.1.0" ]
          },
          "extension" : [ {
            "url" : "https://fhir.kbv.de/StructureDefinition/KBV_EX_Base_Medication_Type",
            "valueCodeableConcept" : {
              "coding" : [ {
                "system" : "http://snomed.info/sct",
                "version" : "http://snomed.info/sct/900000000000207008/version/20220331",
                "code" : "763158003",
                "display" : "Medicinal product (product)"
              } ]
            }
          }, {
            "url" : "https://fhir.kbv.de/StructureDefinition/KBV_EX_ERP_Medication_Category",
            "valueCoding" : {
              "system" : "https://fhir.kbv.de/CodeSystem/KBV_CS_ERP_Medication_Category",
              "code" : "00"
            }
          }, {
            "url" : "https://fhir.kbv.de/StructureDefinition/KBV_EX_ERP_Medication_Vaccine",
            "valueBoolean" : false
          }, {
            "url" : "http://fhir.de/StructureDefinition/normgroesse",
            "valueCode" : "NB"
          } ],
          "code" : {
            "coding" : [ {
              "system" : "http://fhir.de/CodeSystem/ifa/pzn",
              "code" : "99355820"
            } ],
            "text" : "Capabratal"
          },
          "form" : {
            "coding" : [ {
              "system" : "https://fhir.kbv.de/CodeSystem/KBV_CS_SFHIR_KBV_DARREICHUNGSFORM",
              "code" : "TAB"
            } ]
          },
          "amount" : {
            "numerator" : {
              "extension" : [ {
                "url" : "https://fhir.kbv.de/StructureDefinition/KBV_EX_ERP_Medication_PackagingSize",
                "valueString" : "1"
              } ],
              "unit" : "Stk"
            },
            "denominator" : {
              "value" : 1
            }
          }
        }
      }, {
        "fullUrl" : "https://pvs.gematik.de/fhir/Patient/14a99bb7-8983-4563-9e7d-95910bf77cec",
        "resource" : {
          "resourceType" : "Patient",
          "id" : "14a99bb7-8983-4563-9e7d-95910bf77cec",
          "meta" : {
            "profile" : [ "https://fhir.kbv.de/StructureDefinition/KBV_PR_FOR_Patient|1.1.0" ]
          },
          "identifier" : [ {
            "type" : {
              "coding" : [ {
                "system" : "http://fhir.de/CodeSystem/identifier-type-de-basis",
                "code" : "GKV"
              } ]
            },
            "system" : "http://fhir.de/sid/gkv/kvid-10",
            "value" : "X110498565"
          } ],
          "name" : [ {
            "use" : "official",
            "family" : "Hüllmann",
            "_family" : {
              "extension" : [ {
                "url" : "http://hl7.org/fhir/StructureDefinition/humanname-own-name",
                "valueString" : "Hüllmann"
              } ]
            },
            "given" : [ "Sina" ]
          } ],
          "birthDate" : "1984-05-27",
          "address" : [ {
            "type" : "both",
            "line" : [ "Altstadtstr. 30b" ],
            "_line" : [ {
              "extension" : [ {
                "url" : "http://hl7.org/fhir/StructureDefinition/iso21090-ADXP-houseNumber",
                "valueString" : "30b"
              }, {
                "url" : "http://hl7.org/fhir/StructureDefinition/iso21090-ADXP-streetName",
                "valueString" : "Altstadtstr."
              } ]
            } ],
            "city" : "Bad Jasmina",
            "postalCode" : "62706",
            "country" : "D"
          } ]
        }
      }, {
        "fullUrl" : "https://pvs.gematik.de/fhir/Organization/61e9b17e-db65-4b83-b489-d49b0337502d",
        "resource" : {
          "resourceType" : "Organization",
          "id" : "61e9b17e-db65-4b83-b489-d49b0337502d",
          "meta" : {
            "profile" : [ "https://fhir.kbv.de/StructureDefinition/KBV_PR_FOR_Organization|1.1.0" ]
          },
          "identifier" : [ {
            "type" : {
              "coding" : [ {
                "system" : "http://terminology.hl7.org/CodeSystem/v2-0203",
                "code" : "BSNR"
              } ]
            },
            "system" : "https://fhir.kbv.de/NamingSystem/KBV_NS_Base_BSNR",
            "value" : "382567909"
          } ],
          "name" : "Arztpraxis Schraßer",
          "telecom" : [ {
            "system" : "phone",
            "value" : "+49-163-9755336"
          }, {
            "system" : "email",
            "value" : "josef.ostwald@jacobs.org"
          } ],
          "address" : [ {
            "type" : "both",
            "line" : [ "Torstr. 91" ],
            "_line" : [ {
              "extension" : [ {
                "url" : "http://hl7.org/fhir/StructureDefinition/iso21090-ADXP-houseNumber",
                "valueString" : "91"
              }, {
                "url" : "http://hl7.org/fhir/StructureDefinition/iso21090-ADXP-streetName",
                "valueString" : "Torstr."
              } ]
            } ],
            "city" : "Blassneckheim",
            "postalCode" : "19879",
            "country" : "D"
          } ]
        }
      }, {
        "fullUrl" : "https://pvs.gematik.de/fhir/Coverage/b488e65c-8ade-4deb-91be-7f95ab03e72a",
        "resource" : {
          "resourceType" : "Coverage",
          "id" : "b488e65c-8ade-4deb-91be-7f95ab03e72a",
          "meta" : {
            "profile" : [ "https://fhir.kbv.de/StructureDefinition/KBV_PR_FOR_Coverage|1.1.0" ]
          },
          "extension" : [ {
            "url" : "http://fhir.de/StructureDefinition/gkv/besondere-personengruppe",
            "valueCoding" : {
              "system" : "https://fhir.kbv.de/CodeSystem/KBV_CS_SFHIR_KBV_PERSONENGRUPPE",
              "code" : "00"
            }
          }, {
            "url" : "http://fhir.de/StructureDefinition/gkv/dmp-kennzeichen",
            "valueCoding" : {
              "system" : "https://fhir.kbv.de/CodeSystem/KBV_CS_SFHIR_KBV_DMP",
              "code" : "00"
            }
          }, {
            "url" : "http://fhir.de/StructureDefinition/gkv/wop",
            "valueCoding" : {
              "system" : "https://fhir.kbv.de/CodeSystem/KBV_CS_SFHIR_ITA_WOP",
              "code" : "52"
            }
          }, {
            "url" : "http://fhir.de/StructureDefinition/gkv/versichertenart",
            "valueCoding" : {
              "system" : "https://fhir.kbv.de/CodeSystem/KBV_CS_SFHIR_KBV_VERSICHERTENSTATUS",
              "code" : "1"
            }
          } ],
          "status" : "active",
          "type" : {
            "coding" : [ {
              "system" : "http://fhir.de/CodeSystem/versicherungsart-de-basis",
              "code" : "GKV"
            } ]
          },
          "beneficiary" : {
            "reference" : "Patient/d462b33d-0a66-49a0-bdcc-fb33cdf15140"
          },
          "payor" : [ {
            "identifier" : {
              "system" : "http://fhir.de/sid/arge-ik/iknr",
              "value" : "108018007"
            },
            "display" : "AOK Baden‐Württemberg"
          } ]
        }
      }, {
        "fullUrl" : "https://pvs.gematik.de/fhir/Practitioner/38fbc5f9-e28e-49e5-9ba9-7e24273b8346",
        "resource" : {
          "resourceType" : "Practitioner",
          "id" : "38fbc5f9-e28e-49e5-9ba9-7e24273b8346",
          "meta" : {
            "profile" : [ "https://fhir.kbv.de/StructureDefinition/KBV_PR_FOR_Practitioner|1.1.0" ]
          },
          "identifier" : [ {
            "type" : {
              "coding" : [ {
                "system" : "http://terminology.hl7.org/CodeSystem/v2-0203",
                "code" : "LANR"
              } ]
            },
            "system" : "https://fhir.kbv.de/NamingSystem/KBV_NS_Base_ANR",
            "value" : "231145143"
          } ],
          "name" : [ {
            "use" : "official",
            "family" : "Schraßer",
            "_family" : {
              "extension" : [ {
                "url" : "http://hl7.org/fhir/StructureDefinition/humanname-own-name",
                "valueString" : "Schraßer"
              } ]
            },
            "given" : [ "Dr." ],
            "prefix" : [ "Dr." ],
            "_prefix" : [ {
              "extension" : [ {
                "url" : "http://hl7.org/fhir/StructureDefinition/iso21090-EN-qualifier",
                "valueCode" : "AC"
              } ]
            } ]
          } ],
          "qualification" : [ {
            "code" : {
              "coding" : [ {
                "system" : "https://fhir.kbv.de/CodeSystem/KBV_CS_FOR_Qualification_Type",
                "code" : "00"
              } ]
            }
          }, {
            "code" : {
              "coding" : [ {
                "system" : "https://fhir.kbv.de/CodeSystem/KBV_CS_FOR_Berufsbezeichnung",
                "code" : "Berufsbezeichnung"
              } ],
              "text" : "Super-Facharzt für alles Mögliche"
            }
          } ]
        }
      }, {
        "fullUrl" : "https://pvs.gematik.de/fhir/MedicationRequest/d473dfeb-ea77-4c37-a519-734dcec74662",
        "resource" : {
          "resourceType" : "MedicationRequest",
          "id" : "d473dfeb-ea77-4c37-a519-734dcec74662",
          "meta" : {
            "profile" : [ "https://fhir.kbv.de/StructureDefinition/KBV_PR_ERP_Prescription|1.1.0" ]
          },
          "extension" : [ {
            "url" : "https://fhir.kbv.de/StructureDefinition/KBV_EX_ERP_BVG",
            "valueBoolean" : false
          }, {
            "url" : "https://fhir.kbv.de/StructureDefinition/KBV_EX_ERP_EmergencyServicesFee",
            "valueBoolean" : false
          }, {
            "url" : "https://fhir.kbv.de/StructureDefinition/KBV_EX_ERP_Multiple_Prescription",
            "extension" : [ {
              "url" : "Kennzeichen",
              "valueBoolean" : false
            } ]
          }, {
            "url" : "https://fhir.kbv.de/StructureDefinition/KBV_EX_FOR_StatusCoPayment",
            "valueCoding" : {
              "system" : "https://fhir.kbv.de/CodeSystem/KBV_CS_FOR_StatusCoPayment",
              "code" : "0"
            }
          } ],
          "status" : "active",
          "intent" : "order",
          "medicationReference" : {
            "reference" : "Medication/26302bf4-e3d9-45f5-baaa-f8f4d11a3eff"
          },
          "subject" : {
            "reference" : "Patient/14a99bb7-8983-4563-9e7d-95910bf77cec"
          },
          "authoredOn" : "2023-11-27",
          "requester" : {
            "reference" : "Practitioner/38fbc5f9-e28e-49e5-9ba9-7e24273b8346"
          },
          "insurance" : [ {
            "reference" : "Coverage/b488e65c-8ade-4deb-91be-7f95ab03e72a"
          } ],
          "dosageInstruction" : [ {
            "extension" : [ {
              "url" : "https://fhir.kbv.de/StructureDefinition/KBV_EX_ERP_DosageFlag",
              "valueBoolean" : true
            } ],
            "text" : "2-2-2-3-0"
          } ],
          "dispenseRequest" : {
            "quantity" : {
              "value" : 1,
              "system" : "http://unitsofmeasure.org",
              "code" : "{Package}"
            }
          },
          "substitution" : {
            "allowedBoolean" : false
          }
        }
      } ],
      "signature" : {
        "type" : [ {
          "system" : "urn:iso-astm:E1762-95:2013",
          "code" : "1.2.840.10065.1.12.1.5"
        } ],
        "when" : "2023-11-27T07:29:20.953+00:00",
        "who" : {
          "reference" : "https://erp-test.zentral.erp.splitdns.ti-dienste.de/Device/1"
        },
        "targetFormat" : "application/fhir+json",
        "sigFormat" : "application/jose",
        "data" : ""
      }
    }
  } ]
}