<Bundle xmlns="http://hl7.org/fhir">
   <id value="a019784a-0e00-0000-0003-000000000000"/>
   <meta>
      <profile value="https://gematik.de/fhir/erp/StructureDefinition/GEM_ERP_PR_Bundle|1.4"/>
   </meta>
   <identifier>
      <system value="https://gematik.de/fhir/erp/NamingSystem/GEM_ERP_NS_PrescriptionId"/>
      <value value="160.000.239.761.433.52"/>
   </identifier>
   <type value="document"/>
   <timestamp value="2025-03-28T08:06:38.582+00:00"/>
   <link>
      <relation value="self"/>
      <url value="https://erp-ref.zentral.erp.splitdns.ti-dienste.de/Task/160.000.239.761.433.52/$close/"/>
   </link>
   <entry>
      <fullUrl value="urn:uuid:cebadf55-7de3-4f61-a3de-0520ea8d3f78"/>
      <resource>
         <Composition xmlns="http://hl7.org/fhir">
            <id value="cebadf55-7de3-4f61-a3de-0520ea8d3f78"/>
            <meta>
               <profile value="https://gematik.de/fhir/erp/StructureDefinition/GEM_ERP_PR_Composition|1.4"/>
            </meta>
            <extension url="https://gematik.de/fhir/erp/StructureDefinition/GEM_ERP_EX_Beneficiary">
               <valueIdentifier>
                  <system value="https://gematik.de/fhir/sid/telematik-id"/>
                  <value value="3-SMC-B-Testkarte--883110000163973"/>
               </valueIdentifier>
            </extension>
            <status value="final"/>
            <type>
               <coding>
                  <system value="https://gematik.de/fhir/erp/CodeSystem/GEM_ERP_CS_DocumentType"/>
                  <code value="3"/>
                  <display value="Receipt"/>
               </coding>
            </type>
            <date value="2025-03-28T08:06:38.569+00:00"/>
            <author>
               <reference value="urn:uuid:d3a080de-ecb0-4946-9b88-24b928d1a82c"/>
            </author>
            <title value="Quittung"/>
            <event>
               <period>
                  <start value="2025-03-28T08:06:38.178+00:00"/>
                  <end value="2025-03-28T08:06:38.569+00:00"/>
               </period>
            </event>
            <section>
               <entry>
                  <reference value="urn:uuid:eabb20c8-90ad-48f7-85c0-1a80ee4ca23d"/>
               </entry>
            </section>
         </Composition>
      </resource>
   </entry>
   <entry>
      <fullUrl value="urn:uuid:d3a080de-ecb0-4946-9b88-24b928d1a82c"/>
      <resource>
         <Device xmlns="http://hl7.org/fhir">
            <id value="1"/>
            <meta>
               <profile value="https://gematik.de/fhir/erp/StructureDefinition/GEM_ERP_PR_Device|1.4"/>
            </meta>
            <status value="active"/>
            <serialNumber value="1.17.0"/>
            <deviceName>
               <name value="E-Rezept Fachdienst"/>
               <type value="user-friendly-name"/>
            </deviceName>
            <version>
               <value value="1.17.0"/>
            </version>
            <contact>
               <system value="email"/>
               <value value="betrieb@gematik.de"/>
            </contact>
         </Device>
      </resource>
   </entry>
   <entry>
      <fullUrl value="urn:uuid:eabb20c8-90ad-48f7-85c0-1a80ee4ca23d"/>
      <resource>
         <Binary xmlns="http://hl7.org/fhir">
            <id value="eabb20c8-90ad-48f7-85c0-1a80ee4ca23d"/>
            <meta>
               <versionId value="1"/>
               <profile value="https://gematik.de/fhir/erp/StructureDefinition/GEM_ERP_PR_Digest|1.4"/>
            </meta>
            <contentType value="application/octet-stream"/>
            <data value="eRgSf69YfNVj2QaFp9iuUhFDVxKPKqE0lphBi1EgOQI="/>
         </Binary>
      </resource>
   </entry>
   <signature>
      <type>
         <system value="urn:iso-astm:E1762-95:2013"/>
         <code value="1.2.840.10065.1.12.1.1"/>
      </type>
      <when value="2025-03-28T08:06:38.584+00:00"/>
      <who>
         <reference value="urn:uuid:d3a080de-ecb0-4946-9b88-24b928d1a82c"/>
      </who>
      <sigFormat value="application/pkcs7-mime"/>
      <data value=""/>
   </signature>
</Bundle>