{
  "resourceType" : "Bundle",
  "id" : "4e202949-8546-4490-8f28-7e33d4154cea",
  "type" : "searchset",
  "timestamp" : "2024-02-08T18:01:07.733+00:00",
  "total" : 3,
  "link" : [ {
    "relation" : "self",
    "url" : "https://erp-ref.zentral.erp.splitdns.ti-dienste.de/Communication?received=eqNULL&_sort=-sent"
  } ],
  "entry" : [ {
    "fullUrl" : "https://erp-ref.zentral.erp.splitdns.ti-dienste.de/Communication/01ebbac0-7188-8e50-6e3b-72e216371e1d",
    "resource" : {
      "resourceType" : "Communication",
      "id" : "01ebbac0-7188-8e50-6e3b-72e216371e1d",
      "meta" : {
        "profile" : [ "https://gematik.de/fhir/erp/StructureDefinition/GEM_ERP_PR_Communication_Reply|1.4" ]
      },
      "basedOn" : [ {
        "reference" : "Task/160.000.226.119.741.52"
      } ],
      "status" : "unknown",
      "sent" : "2024-02-08T18:01:06.194+00:00",
      "received" : "2024-02-08T18:01:07.722+00:00",
      "recipient" : [ {
        "identifier" : {
          "system" : "http://fhir.de/sid/gkv/kvid-10",
          "value" : "X110498565"
        }
      } ],
      "sender" : {
        "identifier" : {
          "system" : "https://gematik.de/fhir/sid/telematik-id",
          "value" : "3-SMC-B-Testkarte-883110000116873"
        }
      },
      "payload" : [ {
        "extension" : [ {
          "url" : "https://gematik.de/fhir/erp/StructureDefinition/GEM_ERP_EX_AvailabilityState",
          "valueCoding" : {
            "system" : "https://gematik.de/fhir/erp/CodeSystem/GEM_ERP_CS_AvailabilityStatus",
            "code" : "30"
          }
        }, {
          "url" : "https://gematik.de/fhir/erp/StructureDefinition/GEM_ERP_EX_SupplyOptionsType",
          "extension" : [ {
            "url" : "onPremise",
            "valueBoolean" : true
          }, {
            "url" : "delivery",
            "valueBoolean" : false
          }, {
            "url" : "shipment",
            "valueBoolean" : false
          } ]
        } ],
        "contentString" : "{\"version\":1,\"supplyOptionsType\":\"delivery\",\"info_text\":\"Think on it, Chani; the princess will have the name, yet she'll live as less than a concubine - never to know a moment of tenderness from the man to whom she's bound. While we, Chani, we who carry the name of concubine - history will call us wives.\"}"
      } ]
    },
    "search" : {
      "mode" : "match"
    }
  }, {
    "fullUrl" : "https://erp-ref.zentral.erp.splitdns.ti-dienste.de/Communication/01ebb2e5-9d3a-ea58-8049-6ad6923e0d8b",
    "resource" : {
      "resourceType" : "Communication",
      "id" : "01ebb2e5-9d3a-ea58-8049-6ad6923e0d8b",
      "meta" : {
        "profile" : [ "https://gematik.de/fhir/erp/StructureDefinition/GEM_ERP_PR_Communication_InfoReq|1.4" ]
      },
      "contained" : [ {
        "resourceType" : "Medication",
        "id" : "da2cccb8-0aeb-4395-acc0-218aa92ee49d",
        "meta" : {
          "profile" : [ "https://fhir.kbv.de/StructureDefinition/KBV_PR_ERP_Medication_PZN|1.1.0" ]
        },
        "extension" : [ {
          "url" : "https://fhir.kbv.de/StructureDefinition/KBV_EX_Base_Medication_Type",
          "valueCodeableConcept" : {
            "coding" : [ {
              "system" : "http://snomed.info/sct",
              "version" : "http://snomed.info/sct/900000000000207008/version/20220331",
              "code" : "763158003",
              "display" : "Medicinal product (product)"
            } ]
          }
        }, {
          "url" : "https://fhir.kbv.de/StructureDefinition/KBV_EX_ERP_Medication_Category",
          "valueCoding" : {
            "system" : "https://fhir.kbv.de/CodeSystem/KBV_CS_ERP_Medication_Category",
            "code" : "00"
          }
        }, {
          "url" : "https://fhir.kbv.de/StructureDefinition/KBV_EX_ERP_Medication_Vaccine",
          "valueBoolean" : false
        }, {
          "url" : "http://fhir.de/StructureDefinition/normgroesse",
          "valueCode" : "NB"
        } ],
        "code" : {
          "coding" : [ {
            "system" : "http://fhir.de/CodeSystem/ifa/pzn",
            "code" : "12345678"
          } ],
          "text" : "Schmerzmittel"
        },
        "form" : {
          "coding" : [ {
            "system" : "https://fhir.kbv.de/CodeSystem/KBV_CS_SFHIR_KBV_DARREICHUNGSFORM",
            "code" : "TAB"
          } ]
        },
        "amount" : {
          "numerator" : {
            "extension" : [ {
              "url" : "https://fhir.kbv.de/StructureDefinition/KBV_EX_ERP_Medication_PackagingSize",
              "valueString" : "1"
            } ],
            "unit" : "Stk"
          },
          "denominator" : {
            "value" : 1
          }
        }
      } ],
      "basedOn" : [ {
        "reference" : "Task/160.000.210.284.799.98"
      } ],
      "status" : "unknown",
      "about" : [ {
        "reference" : "#da2cccb8-0aeb-4395-acc0-218aa92ee49d"
      } ],
      "sent" : "2023-10-31T19:00:20.071+00:00",
      "recipient" : [ {
        "identifier" : {
          "system" : "https://gematik.de/fhir/sid/telematik-id",
          "value" : "1-2-ARZT-BerndClaudius01"
        }
      } ],
      "sender" : {
        "identifier" : {
          "system" : "http://fhir.de/sid/gkv/kvid-10",
          "value" : "X110498565"
        }
      },
      "payload" : [ {
        "extension" : [ {
          "url" : "https://gematik.de/fhir/erp/StructureDefinition/GEM_ERP_EX_InsuranceProvider",
          "valueIdentifier" : {
            "system" : "http://fhir.de/sid/arge-ik/iknr",
            "value" : "109008837"
          }
        }, {
          "url" : "https://gematik.de/fhir/erp/StructureDefinition/GEM_ERP_EX_SubstitutionAllowedType",
          "valueBoolean" : true
        }, {
          "url" : "https://gematik.de/fhir/erp/StructureDefinition/GEM_ERP_EX_PrescriptionType",
          "valueCoding" : {
            "system" : "https://gematik.de/fhir/erp/CodeSystem/GEM_ERP_CS_FlowType",
            "code" : "160",
            "display" : "Muster 16 (Apothekenpflichtige Arzneimittel)"
          }
        } ],
        "contentString" : "Pardon me for breathing, which I never do anyway so I don't know why I bother to say it, Oh God, I'm so depressed."
      } ]
    },
    "search" : {
      "mode" : "match"
    }
  }, {
    "fullUrl" : "https://erp-ref.zentral.erp.splitdns.ti-dienste.de/Communication/01ebb2d1-7e13-5020-daff-54f6f5301f1e",
    "resource" : {
      "resourceType" : "Communication",
      "id" : "01ebb2d1-7e13-5020-daff-54f6f5301f1e",
      "meta" : {
        "profile" : [ "https://gematik.de/fhir/erp/StructureDefinition/GEM_ERP_PR_Communication_InfoReq|1.4" ]
      },
      "contained" : [ {
        "resourceType" : "Medication",
        "id" : "2c8551e4-e497-4a41-a5c2-23efb1d53de5",
        "meta" : {
          "profile" : [ "https://fhir.kbv.de/StructureDefinition/KBV_PR_ERP_Medication_PZN|1.1.0" ]
        },
        "extension" : [ {
          "url" : "https://fhir.kbv.de/StructureDefinition/KBV_EX_Base_Medication_Type",
          "valueCodeableConcept" : {
            "coding" : [ {
              "system" : "http://snomed.info/sct",
              "version" : "http://snomed.info/sct/900000000000207008/version/20220331",
              "code" : "763158003",
              "display" : "Medicinal product (product)"
            } ]
          }
        }, {
          "url" : "https://fhir.kbv.de/StructureDefinition/KBV_EX_ERP_Medication_Category",
          "valueCoding" : {
            "system" : "https://fhir.kbv.de/CodeSystem/KBV_CS_ERP_Medication_Category",
            "code" : "00"
          }
        }, {
          "url" : "https://fhir.kbv.de/StructureDefinition/KBV_EX_ERP_Medication_Vaccine",
          "valueBoolean" : false
        }, {
          "url" : "http://fhir.de/StructureDefinition/normgroesse",
          "valueCode" : "NB"
        } ],
        "code" : {
          "coding" : [ {
            "system" : "http://fhir.de/CodeSystem/ifa/pzn",
            "code" : "12345678"
          } ],
          "text" : "Schmerzmittel"
        },
        "form" : {
          "coding" : [ {
            "system" : "https://fhir.kbv.de/CodeSystem/KBV_CS_SFHIR_KBV_DARREICHUNGSFORM",
            "code" : "TAB"
          } ]
        },
        "amount" : {
          "numerator" : {
            "extension" : [ {
              "url" : "https://fhir.kbv.de/StructureDefinition/KBV_EX_ERP_Medication_PackagingSize",
              "valueString" : "1"
            } ],
            "unit" : "Stk"
          },
          "denominator" : {
            "value" : 1
          }
        }
      } ],
      "basedOn" : [ {
        "reference" : "Task/160.000.210.283.565.17"
      } ],
      "status" : "unknown",
      "about" : [ {
        "reference" : "#2c8551e4-e497-4a41-a5c2-23efb1d53de5"
      } ],
      "sent" : "2023-10-30T18:59:58.036+00:00",
      "recipient" : [ {
        "identifier" : {
          "system" : "https://gematik.de/fhir/sid/telematik-id",
          "value" : "1-2-ARZT-BerndClaudius01"
        }
      } ],
      "sender" : {
        "identifier" : {
          "system" : "http://fhir.de/sid/gkv/kvid-10",
          "value" : "X110498565"
        }
      },
      "payload" : [ {
        "extension" : [ {
          "url" : "https://gematik.de/fhir/erp/StructureDefinition/GEM_ERP_EX_InsuranceProvider",
          "valueIdentifier" : {
            "system" : "http://fhir.de/sid/arge-ik/iknr",
            "value" : "107536171"
          }
        }, {
          "url" : "https://gematik.de/fhir/erp/StructureDefinition/GEM_ERP_EX_SubstitutionAllowedType",
          "valueBoolean" : true
        }, {
          "url" : "https://gematik.de/fhir/erp/StructureDefinition/GEM_ERP_EX_PrescriptionType",
          "valueCoding" : {
            "system" : "https://gematik.de/fhir/erp/CodeSystem/GEM_ERP_CS_FlowType",
            "code" : "160",
            "display" : "Muster 16 (Apothekenpflichtige Arzneimittel)"
          }
        } ],
        "contentString" : "And then of course I've got this terrible pain in all the diodes down my left side."
      } ]
    },
    "search" : {
      "mode" : "match"
    }
  } ]
}