{
  "resourceType": "Bundle",
  "id": "96aba267-fd2a-4133-b847-deaf750544de",
  "type": "collection",
  "timestamp": "2025-03-28T08:05:03.920+00:00",
  "link": [ {
    "relation": "self",
    "url": "https://erp-ref.zentral.erp.splitdns.ti-dienste.de/Task/169.000.011.663.668.65"
  } ],
  "entry": [ {
    "fullUrl": "https://erp-ref.zentral.erp.splitdns.ti-dienste.de/Task/169.000.011.663.668.65",
    "resource": {
      "resourceType": "Task",
      "id": "169.000.011.663.668.65",
      "meta": {
        "profile": [ "https://gematik.de/fhir/erp/StructureDefinition/GEM_ERP_PR_Task|1.4" ]
      },
      "extension": [ {
        "url": "https://gematik.de/fhir/erp/StructureDefinition/GEM_ERP_EX_PrescriptionType",
        "valueCoding": {
          "system": "https://gematik.de/fhir/erp/CodeSystem/GEM_ERP_CS_FlowType",
          "code": "169",
          "display": "Muster 16 (Direkte Zuweisung)"
        }
      }, {
        "url": "https://gematik.de/fhir/erp/StructureDefinition/GEM_ERP_EX_ExpiryDate",
        "valueDate": "2025-06-28"
      }, {
        "url": "https://gematik.de/fhir/erp/StructureDefinition/GEM_ERP_EX_AcceptDate",
        "valueDate": "2025-04-25"
      } ],
      "identifier": [ {
        "use": "official",
        "system": "https://gematik.de/fhir/erp/NamingSystem/GEM_ERP_NS_PrescriptionId",
        "value": "169.000.011.663.668.65"
      } ],
      "status": "ready",
      "intent": "order",
      "for": {
        "identifier": {
          "system": "http://fhir.de/sid/gkv/kvid-10",
          "value": "X110614233"
        }
      },
      "authoredOn": "2025-03-28T08:05:03.279+00:00",
      "lastModified": "2025-03-28T08:05:03.525+00:00",
      "performerType": [ {
        "coding": [ {
          "system": "https://gematik.de/fhir/erp/CodeSystem/GEM_ERP_CS_OrganizationType",
          "code": "urn:oid:1.2.276.0.76.4.54",
          "display": "Öffentliche Apotheke"
        } ],
        "text": "Öffentliche Apotheke"
      } ],
      "input": [ {
        "type": {
          "coding": [ {
            "system": "https://gematik.de/fhir/erp/CodeSystem/GEM_ERP_CS_DocumentType",
            "code": "2"
          } ]
        },
        "valueReference": {
          "reference": "a934f9b1-0000-0000-0002-000000000000"
        }
      } ]
    }
  }, {
    "fullUrl": "urn:uuid:a934f9b1-0000-0000-0002-000000000000",
    "resource": {
      "resourceType": "Bundle",
      "id": "a934f9b1-0000-0000-0002-000000000000",
      "meta": {
        "profile": [ "https://fhir.kbv.de/StructureDefinition/KBV_PR_ERP_Bundle|1.1.0" ]
      },
      "identifier": {
        "system": "https://gematik.de/fhir/erp/NamingSystem/GEM_ERP_NS_PrescriptionId",
        "value": "169.000.011.663.668.65"
      },
      "type": "document",
      "timestamp": "2025-03-28T09:05:03.360+01:00",
      "entry": [ {
        "fullUrl": "https://pvs.gematik.de/fhir/Composition/f61b1f78-91c9-4484-a6ab-7c544ef6720a",
        "resource": {
          "resourceType": "Composition",
          "id": "f61b1f78-91c9-4484-a6ab-7c544ef6720a",
          "meta": {
            "profile": [ "https://fhir.kbv.de/StructureDefinition/KBV_PR_ERP_Composition|1.1.0" ]
          },
          "extension": [ {
            "url": "https://fhir.kbv.de/StructureDefinition/KBV_EX_FOR_Legal_basis",
            "valueCoding": {
              "system": "https://fhir.kbv.de/CodeSystem/KBV_CS_SFHIR_KBV_STATUSKENNZEICHEN",
              "code": "00"
            }
          } ],
          "status": "final",
          "type": {
            "coding": [ {
              "system": "https://fhir.kbv.de/CodeSystem/KBV_CS_SFHIR_KBV_FORMULAR_ART",
              "code": "e16A"
            } ]
          },
          "subject": {
            "reference": "Patient/7f05e218-efeb-4991-b43d-f2ad0831517c"
          },
          "date": "2025-03-28T09:05:03+01:00",
          "author": [ {
            "type": "Device",
            "identifier": {
              "system": "https://fhir.kbv.de/NamingSystem/KBV_NS_FOR_Pruefnummer",
              "value": "GEMATIK/410/2109/36/123"
            }
          }, {
            "reference": "Practitioner/8475202d-6967-445d-a354-a57f00732c36",
            "type": "Practitioner"
          } ],
          "title": "elektronische Arzneimittelverordnung",
          "custodian": {
            "reference": "Organization/f15f3f7a-741a-4281-a772-e825d50df5a0"
          },
          "section": [ {
            "code": {
              "coding": [ {
                "system": "https://fhir.kbv.de/CodeSystem/KBV_CS_ERP_Section_Type",
                "code": "Coverage"
              } ]
            },
            "entry": [ {
              "reference": "Coverage/d33c2cd5-38e7-49b2-a0ad-a73eb85acf50"
            } ]
          }, {
            "code": {
              "coding": [ {
                "system": "https://fhir.kbv.de/CodeSystem/KBV_CS_ERP_Section_Type",
                "code": "Prescription"
              } ]
            },
            "entry": [ {
              "reference": "MedicationRequest/ed4b200e-ef26-40a1-a07d-ecb1881a7f52"
            } ]
          } ]
        }
      }, {
        "fullUrl": "https://pvs.gematik.de/fhir/Coverage/d33c2cd5-38e7-49b2-a0ad-a73eb85acf50",
        "resource": {
          "resourceType": "Coverage",
          "id": "d33c2cd5-38e7-49b2-a0ad-a73eb85acf50",
          "meta": {
            "profile": [ "https://fhir.kbv.de/StructureDefinition/KBV_PR_FOR_Coverage|1.1.0" ]
          },
          "extension": [ {
            "url": "http://fhir.de/StructureDefinition/gkv/besondere-personengruppe",
            "valueCoding": {
              "system": "https://fhir.kbv.de/CodeSystem/KBV_CS_SFHIR_KBV_PERSONENGRUPPE",
              "code": "00"
            }
          }, {
            "url": "http://fhir.de/StructureDefinition/gkv/dmp-kennzeichen",
            "valueCoding": {
              "system": "https://fhir.kbv.de/CodeSystem/KBV_CS_SFHIR_KBV_DMP",
              "code": "00"
            }
          }, {
            "url": "http://fhir.de/StructureDefinition/gkv/wop",
            "valueCoding": {
              "system": "https://fhir.kbv.de/CodeSystem/KBV_CS_SFHIR_ITA_WOP",
              "code": "61"
            }
          }, {
            "url": "http://fhir.de/StructureDefinition/gkv/versichertenart",
            "valueCoding": {
              "system": "https://fhir.kbv.de/CodeSystem/KBV_CS_SFHIR_KBV_VERSICHERTENSTATUS",
              "code": "1"
            }
          } ],
          "status": "active",
          "type": {
            "coding": [ {
              "system": "http://fhir.de/CodeSystem/versicherungsart-de-basis",
              "code": "GKV"
            } ]
          },
          "beneficiary": {
            "reference": "Patient/ae1800c9-1aeb-4209-b116-ca0d1846da2b"
          },
          "payor": [ {
            "identifier": {
              "system": "http://fhir.de/sid/arge-ik/iknr",
              "value": "105928809"
            },
            "display": "BKK der Thüringer Energieversorgung"
          } ]
        }
      }, {
        "fullUrl": "https://pvs.gematik.de/fhir/Patient/7f05e218-efeb-4991-b43d-f2ad0831517c",
        "resource": {
          "resourceType": "Patient",
          "id": "7f05e218-efeb-4991-b43d-f2ad0831517c",
          "meta": {
            "profile": [ "https://fhir.kbv.de/StructureDefinition/KBV_PR_FOR_Patient|1.1.0" ]
          },
          "identifier": [ {
            "type": {
              "coding": [ {
                "system": "http://fhir.de/CodeSystem/identifier-type-de-basis",
                "code": "GKV"
              } ]
            },
            "system": "http://fhir.de/sid/gkv/kvid-10",
            "value": "X110614233"
          } ],
          "name": [ {
            "use": "official",
            "family": "Hüllmann",
            "_family": {
              "extension": [ {
                "url": "http://hl7.org/fhir/StructureDefinition/humanname-own-name",
                "valueString": "Hüllmann"
              } ]
            },
            "given": [ "Sina" ]
          } ],
          "birthDate": "1981-03-25",
          "address": [ {
            "type": "both",
            "line": [ "Blankenburg 21a" ],
            "_line": [ {
              "extension": [ {
                "url": "http://hl7.org/fhir/StructureDefinition/iso21090-ADXP-houseNumber",
                "valueString": "21a"
              }, {
                "url": "http://hl7.org/fhir/StructureDefinition/iso21090-ADXP-streetName",
                "valueString": "Blankenburg"
              } ]
            } ],
            "city": "Neu Julienbrunn",
            "postalCode": "12140",
            "country": "D"
          } ]
        }
      }, {
        "fullUrl": "https://pvs.gematik.de/fhir/Practitioner/8475202d-6967-445d-a354-a57f00732c36",
        "resource": {
          "resourceType": "Practitioner",
          "id": "8475202d-6967-445d-a354-a57f00732c36",
          "meta": {
            "profile": [ "https://fhir.kbv.de/StructureDefinition/KBV_PR_FOR_Practitioner|1.1.0" ]
          },
          "identifier": [ {
            "type": {
              "coding": [ {
                "system": "http://terminology.hl7.org/CodeSystem/v2-0203",
                "code": "LANR"
              } ]
            },
            "system": "https://fhir.kbv.de/NamingSystem/KBV_NS_Base_ANR",
            "value": "404018290"
          } ],
          "name": [ {
            "use": "official",
            "family": "Schraßer",
            "_family": {
              "extension": [ {
                "url": "http://hl7.org/fhir/StructureDefinition/humanname-own-name",
                "valueString": "Schraßer"
              } ]
            },
            "given": [ "Dr." ],
            "prefix": [ "Dr." ],
            "_prefix": [ {
              "extension": [ {
                "url": "http://hl7.org/fhir/StructureDefinition/iso21090-EN-qualifier",
                "valueCode": "AC"
              } ]
            } ]
          } ],
          "qualification": [ {
            "code": {
              "coding": [ {
                "system": "https://fhir.kbv.de/CodeSystem/KBV_CS_FOR_Qualification_Type",
                "code": "00"
              } ]
            }
          }, {
            "code": {
              "coding": [ {
                "system": "https://fhir.kbv.de/CodeSystem/KBV_CS_FOR_Berufsbezeichnung",
                "code": "Berufsbezeichnung"
              } ],
              "text": "Super-Facharzt für alles Mögliche"
            }
          } ]
        }
      }, {
        "fullUrl": "https://pvs.gematik.de/fhir/Organization/f15f3f7a-741a-4281-a772-e825d50df5a0",
        "resource": {
          "resourceType": "Organization",
          "id": "f15f3f7a-741a-4281-a772-e825d50df5a0",
          "meta": {
            "profile": [ "https://fhir.kbv.de/StructureDefinition/KBV_PR_FOR_Organization|1.1.0" ]
          },
          "identifier": [ {
            "type": {
              "coding": [ {
                "system": "http://terminology.hl7.org/CodeSystem/v2-0203",
                "code": "BSNR"
              } ]
            },
            "system": "https://fhir.kbv.de/NamingSystem/KBV_NS_Base_BSNR",
            "value": "781360336"
          } ],
          "name": "Arztpraxis Schraßer",
          "telecom": [ {
            "system": "phone",
            "value": "(0190) 421898233"
          }, {
            "system": "email",
            "value": "ibrahim.hudak@slotta.ch"
          } ],
          "address": [ {
            "type": "both",
            "line": [ "Prießnitzstr. 4" ],
            "_line": [ {
              "extension": [ {
                "url": "http://hl7.org/fhir/StructureDefinition/iso21090-ADXP-houseNumber",
                "valueString": "4"
              }, {
                "url": "http://hl7.org/fhir/StructureDefinition/iso21090-ADXP-streetName",
                "valueString": "Prießnitzstr."
              } ]
            } ],
            "city": "Neu Liambrunn",
            "postalCode": "86592",
            "country": "D"
          } ]
        }
      }, {
        "fullUrl": "https://pvs.gematik.de/fhir/Medication/024eedc2-2569-41be-990e-4abc8f4043b5",
        "resource": {
          "resourceType": "Medication",
          "id": "024eedc2-2569-41be-990e-4abc8f4043b5",
          "meta": {
            "profile": [ "https://fhir.kbv.de/StructureDefinition/KBV_PR_ERP_Medication_PZN|1.1.0" ]
          },
          "extension": [ {
            "url": "https://fhir.kbv.de/StructureDefinition/KBV_EX_Base_Medication_Type",
            "valueCodeableConcept": {
              "coding": [ {
                "system": "http://snomed.info/sct",
                "version": "http://snomed.info/sct/900000000000207008/version/20220331",
                "code": "763158003",
                "display": "Medicinal product (product)"
              } ]
            }
          }, {
            "url": "https://fhir.kbv.de/StructureDefinition/KBV_EX_ERP_Medication_Category",
            "valueCoding": {
              "system": "https://fhir.kbv.de/CodeSystem/KBV_CS_ERP_Medication_Category",
              "code": "00"
            }
          }, {
            "url": "https://fhir.kbv.de/StructureDefinition/KBV_EX_ERP_Medication_Vaccine",
            "valueBoolean": false
          }, {
            "url": "http://fhir.de/StructureDefinition/normgroesse",
            "valueCode": "NB"
          } ],
          "code": {
            "coding": [ {
              "system": "http://fhir.de/CodeSystem/ifa/pzn",
              "code": "50667985"
            } ],
            "text": "Zytostatika"
          },
          "form": {
            "coding": [ {
              "system": "https://fhir.kbv.de/CodeSystem/KBV_CS_SFHIR_KBV_DARREICHUNGSFORM",
              "code": "TAB"
            } ]
          },
          "amount": {
            "numerator": {
              "extension": [ {
                "url": "https://fhir.kbv.de/StructureDefinition/KBV_EX_ERP_Medication_PackagingSize",
                "valueString": "1"
              } ],
              "unit": "Stk"
            },
            "denominator": {
              "value": 1
            }
          }
        }
      }, {
        "fullUrl": "https://pvs.gematik.de/fhir/MedicationRequest/ed4b200e-ef26-40a1-a07d-ecb1881a7f52",
        "resource": {
          "resourceType": "MedicationRequest",
          "id": "ed4b200e-ef26-40a1-a07d-ecb1881a7f52",
          "meta": {
            "profile": [ "https://fhir.kbv.de/StructureDefinition/KBV_PR_ERP_Prescription|1.1.0" ]
          },
          "extension": [ {
            "url": "https://fhir.kbv.de/StructureDefinition/KBV_EX_ERP_BVG",
            "valueBoolean": false
          }, {
            "url": "https://fhir.kbv.de/StructureDefinition/KBV_EX_ERP_EmergencyServicesFee",
            "valueBoolean": false
          }, {
            "url": "https://fhir.kbv.de/StructureDefinition/KBV_EX_ERP_Multiple_Prescription",
            "extension": [ {
              "url": "Kennzeichen",
              "valueBoolean": false
            } ]
          }, {
            "url": "https://fhir.kbv.de/StructureDefinition/KBV_EX_FOR_StatusCoPayment",
            "valueCoding": {
              "system": "https://fhir.kbv.de/CodeSystem/KBV_CS_FOR_StatusCoPayment",
              "code": "1"
            }
          } ],
          "status": "active",
          "intent": "order",
          "medicationReference": {
            "reference": "Medication/024eedc2-2569-41be-990e-4abc8f4043b5"
          },
          "subject": {
            "reference": "Patient/7f05e218-efeb-4991-b43d-f2ad0831517c"
          },
          "authoredOn": "2025-03-28",
          "requester": {
            "reference": "Practitioner/8475202d-6967-445d-a354-a57f00732c36"
          },
          "insurance": [ {
            "reference": "Coverage/d33c2cd5-38e7-49b2-a0ad-a73eb85acf50"
          } ],
          "dosageInstruction": [ {
            "extension": [ {
              "url": "https://fhir.kbv.de/StructureDefinition/KBV_EX_ERP_DosageFlag",
              "valueBoolean": true
            } ],
            "text": "1-1-0-3-0-2-2"
          } ],
          "dispenseRequest": {
            "quantity": {
              "value": 1,
              "system": "http://unitsofmeasure.org",
              "code": "{Package}"
            }
          },
          "substitution": {
            "allowedBoolean": false
          }
        }
      } ],
      "signature": {
        "type": [ {
          "system": "urn:iso-astm:E1762-95:2013",
          "code": "1.2.840.10065.1.12.1.5"
        } ],
        "when": "2025-03-28T08:05:03.920+00:00",
        "who": {
          "reference": "https://erp-ref.zentral.erp.splitdns.ti-dienste.de/Device/1"
        },
        "targetFormat": "application/fhir+json",
        "sigFormat": "application/jose",
        "data": ""
      }
    }
  } ]
}