<Bundle xmlns="http://hl7.org/fhir">
	<id value="29c7ea2b-ff82-4786-b71e-88e167711ec9" />
	<meta>
		<lastUpdated value="2025-03-28T09:09:20.136+01:00" />
		<profile value="http://fhir.abda.de/eRezeptAbgabedaten/StructureDefinition/DAV-PKV-PR-ERP-AbgabedatenBundle|1.3" />
	</meta>
	<identifier>
		<system value="https://gematik.de/fhir/erp/NamingSystem/GEM_ERP_NS_PrescriptionId" />
		<value value="200.000.002.425.336.33" />
	</identifier>
	<type value="document" />
	<timestamp value="2025-03-28T09:09:20.136+01:00" />
	<entry>
		<fullUrl value="urn:uuid:6eebb20c-cc0e-4092-b68c-7a7e05eb20a8" />
		<resource>
			<Composition xmlns="http://hl7.org/fhir">
				<id value="6eebb20c-cc0e-4092-b68c-7a7e05eb20a8" />
				<meta>
					<profile value="http://fhir.abda.de/eRezeptAbgabedaten/StructureDefinition/DAV-PKV-PR-ERP-AbgabedatenComposition|1.3" />
				</meta>
				<status value="final" />
				<type>
					<coding>
						<system value="http://fhir.abda.de/eRezeptAbgabedaten/CodeSystem/DAV-CS-ERP-CompositionTypes" />
						<code value="ERezeptAbgabedaten" />
					</coding>
				</type>
				<date value="2025-03-28T09:09:20+01:00" />
				<author>
					<reference value="urn:uuid:94bf70d0-d543-4c30-8391-80836d414705" />
				</author>
				<title value="ERezeptAbgabedaten" />
				<section>
					<title value="Apotheke" />
					<entry>
						<reference value="urn:uuid:94bf70d0-d543-4c30-8391-80836d414705" />
					</entry>
				</section>
				<section>
					<title value="Abgabeinformationen" />
					<entry>
						<reference value="urn:uuid:e98cbf80-f962-438f-b58e-a69bacf92dc5" />
					</entry>
				</section>
			</Composition>
		</resource>
	</entry>
	<entry>
		<fullUrl value="urn:uuid:94bf70d0-d543-4c30-8391-80836d414705" />
		<resource>
			<Organization xmlns="http://hl7.org/fhir">
				<id value="94bf70d0-d543-4c30-8391-80836d414705" />
				<meta>
					<profile value="http://fhir.abda.de/eRezeptAbgabedaten/StructureDefinition/DAV-PKV-PR-ERP-Apotheke|1.3" />
				</meta>
				<identifier>
					<system value="http://fhir.de/sid/arge-ik/iknr" />
					<value value="458173585" />
				</identifier>
				<name value="Apotheke Douglas Furr" />
				<address>
					<type value="physical" />
					<line value="Linienstr. 59">
						<extension url="http://hl7.org/fhir/StructureDefinition/iso21090-ADXP-houseNumber">
							<valueString value="59" />
						</extension>
						<extension url="http://hl7.org/fhir/StructureDefinition/iso21090-ADXP-streetName">
							<valueString value="Linienstr." />
						</extension>
					</line>
					<city value="Bad Jim" />
					<postalCode value="60904" />
					<country value="NEP" />
				</address>
			</Organization>
		</resource>
	</entry>
	<entry>
		<fullUrl value="urn:uuid:e42231ef-bf54-46fa-9e47-452248638dd0" />
		<resource>
			<Invoice xmlns="http://hl7.org/fhir">
				<id value="e42231ef-bf54-46fa-9e47-452248638dd0" />
				<meta>
					<profile value="http://fhir.abda.de/eRezeptAbgabedaten/StructureDefinition/DAV-PKV-PR-ERP-Abrechnungszeilen|1.3" />
				</meta>
				<status value="issued" />
				<type>
					<coding>
						<system value="http://fhir.abda.de/eRezeptAbgabedaten/CodeSystem/DAV-CS-ERP-InvoiceTyp" />
						<code value="Abrechnungszeilen" />
					</coding>
				</type>
				<lineItem>
					<sequence value="1" />
					<chargeItemCodeableConcept>
						<coding>
							<system value="http://fhir.de/CodeSystem/ifa/pzn" />
							<code value="59987711" />
						</coding>
						<text value="ANGOCIN® 40 mg" />
					</chargeItemCodeableConcept>
					<priceComponent>
						<extension url="http://fhir.abda.de/eRezeptAbgabedaten/StructureDefinition/DAV-EX-ERP-KostenVersicherter">
							<extension url="Kategorie">
								<valueCodeableConcept>
									<coding>
										<system value="http://fhir.abda.de/eRezeptAbgabedaten/CodeSystem/DAV-PKV-CS-ERP-KostenVersicherterKategorie" />
										<code value="0" />
									</coding>
								</valueCodeableConcept>
							</extension>
							<extension url="Kostenbetrag">
								<valueMoney>
									<value value="68.69" />
									<currency value="EUR" />
								</valueMoney>
							</extension>
						</extension>
						<extension url="http://fhir.abda.de/eRezeptAbgabedaten/StructureDefinition/DAV-EX-ERP-MwStSatz">
							<valueDecimal value="23.61" />
						</extension>
						<type value="informational" />
						<factor value="1" />
						<amount>
							<value value="90.78" />
							<currency value="EUR" />
						</amount>
					</priceComponent>
				</lineItem>
				<lineItem>
					<sequence value="2" />
					<chargeItemCodeableConcept>
						<coding>
							<system value="http://fhir.de/CodeSystem/ifa/pzn" />
							<code value="84035417" />
						</coding>
						<text value="orthomol chondroplus Filmtabletten" />
					</chargeItemCodeableConcept>
					<priceComponent>
						<extension url="http://fhir.abda.de/eRezeptAbgabedaten/StructureDefinition/DAV-EX-ERP-KostenVersicherter">
							<extension url="Kategorie">
								<valueCodeableConcept>
									<coding>
										<system value="http://fhir.abda.de/eRezeptAbgabedaten/CodeSystem/DAV-PKV-CS-ERP-KostenVersicherterKategorie" />
										<code value="0" />
									</coding>
								</valueCodeableConcept>
							</extension>
							<extension url="Kostenbetrag">
								<valueMoney>
									<value value="130.67" />
									<currency value="EUR" />
								</valueMoney>
							</extension>
						</extension>
						<extension url="http://fhir.abda.de/eRezeptAbgabedaten/StructureDefinition/DAV-EX-ERP-MwStSatz">
							<valueDecimal value="23.61" />
						</extension>
						<type value="informational" />
						<factor value="1" />
						<amount>
							<value value="511.80" />
							<currency value="EUR" />
						</amount>
					</priceComponent>
				</lineItem>
				<lineItem>
					<sequence value="3" />
					<chargeItemCodeableConcept>
						<coding>
							<system value="http://fhir.de/CodeSystem/ifa/pzn" />
							<code value="12573787" />
						</coding>
						<text value="Ketozolin® 2% Granulat 40 mg" />
					</chargeItemCodeableConcept>
					<priceComponent>
						<extension url="http://fhir.abda.de/eRezeptAbgabedaten/StructureDefinition/DAV-EX-ERP-KostenVersicherter">
							<extension url="Kategorie">
								<valueCodeableConcept>
									<coding>
										<system value="http://fhir.abda.de/eRezeptAbgabedaten/CodeSystem/DAV-PKV-CS-ERP-KostenVersicherterKategorie" />
										<code value="0" />
									</coding>
								</valueCodeableConcept>
							</extension>
							<extension url="Kostenbetrag">
								<valueMoney>
									<value value="411.60" />
									<currency value="EUR" />
								</valueMoney>
							</extension>
						</extension>
						<extension url="http://fhir.abda.de/eRezeptAbgabedaten/StructureDefinition/DAV-EX-ERP-MwStSatz">
							<valueDecimal value="23.61" />
						</extension>
						<type value="informational" />
						<factor value="1" />
						<amount>
							<value value="481.46" />
							<currency value="EUR" />
						</amount>
					</priceComponent>
				</lineItem>
				<lineItem>
					<sequence value="4" />
					<chargeItemCodeableConcept>
						<coding>
							<system value="http://fhir.de/CodeSystem/ifa/pzn" />
							<code value="89207403" />
						</coding>
						<text value="Aciclostad® Globuli 350 mg" />
					</chargeItemCodeableConcept>
					<priceComponent>
						<extension url="http://fhir.abda.de/eRezeptAbgabedaten/StructureDefinition/DAV-EX-ERP-KostenVersicherter">
							<extension url="Kategorie">
								<valueCodeableConcept>
									<coding>
										<system value="http://fhir.abda.de/eRezeptAbgabedaten/CodeSystem/DAV-PKV-CS-ERP-KostenVersicherterKategorie" />
										<code value="0" />
									</coding>
								</valueCodeableConcept>
							</extension>
							<extension url="Kostenbetrag">
								<valueMoney>
									<value value="12.14" />
									<currency value="EUR" />
								</valueMoney>
							</extension>
						</extension>
						<extension url="http://fhir.abda.de/eRezeptAbgabedaten/StructureDefinition/DAV-EX-ERP-MwStSatz">
							<valueDecimal value="23.61" />
						</extension>
						<type value="informational" />
						<factor value="1" />
						<amount>
							<value value="13.21" />
							<currency value="EUR" />
						</amount>
					</priceComponent>
				</lineItem>
				<totalGross>
					<extension url="http://fhir.abda.de/eRezeptAbgabedaten/StructureDefinition/DAV-EX-ERP-Gesamtzuzahlung">
						<valueMoney>
							<value value="623.10" />
							<currency value="EUR" />
						</valueMoney>
					</extension>
					<value value="1097.25" />
					<currency value="EUR" />
				</totalGross>
			</Invoice>
		</resource>
	</entry>
	<entry>
		<fullUrl value="urn:uuid:e98cbf80-f962-438f-b58e-a69bacf92dc5" />
		<resource>
			<MedicationDispense xmlns="http://hl7.org/fhir">
				<id value="e98cbf80-f962-438f-b58e-a69bacf92dc5" />
				<meta>
					<profile value="http://fhir.abda.de/eRezeptAbgabedaten/StructureDefinition/DAV-PKV-PR-ERP-Abgabeinformationen|1.3" />
				</meta>
				<extension url="http://fhir.abda.de/eRezeptAbgabedaten/StructureDefinition/DAV-PKV-EX-ERP-AbrechnungsTyp">
					<valueCodeableConcept>
						<coding>
							<system value="http://fhir.abda.de/eRezeptAbgabedaten/CodeSystem/DAV-PKV-CS-ERP-AbrechnungsTyp" />
							<code value="1" />
						</coding>
					</valueCodeableConcept>
				</extension>
				<extension url="http://fhir.abda.de/eRezeptAbgabedaten/StructureDefinition/DAV-EX-ERP-Abrechnungszeilen">
					<valueReference>
						<reference value="urn:uuid:e42231ef-bf54-46fa-9e47-452248638dd0" />
					</valueReference>
				</extension>
				<status value="completed" />
				<medicationCodeableConcept>
					<coding>
						<system value="http://terminology.hl7.org/CodeSystem/data-absent-reason" />
						<code value="not-applicable" />
					</coding>
				</medicationCodeableConcept>
				<performer>
					<actor>
						<reference value="urn:uuid:94bf70d0-d543-4c30-8391-80836d414705" />
					</actor>
				</performer>
				<authorizingPrescription>
					<identifier>
						<system value="https://gematik.de/fhir/erp/NamingSystem/GEM_ERP_NS_PrescriptionId" />
						<value value="200.000.002.425.336.33" />
					</identifier>
				</authorizingPrescription>
				<type>
					<coding>
						<system value="http://fhir.abda.de/eRezeptAbgabedaten/CodeSystem/DAV-CS-ERP-MedicationDispenseTyp" />
						<code value="Abgabeinformationen" />
					</coding>
				</type>
				<whenHandedOver value="2025-03-28" />
			</MedicationDispense>
		</resource>
	</entry>
</Bundle>
