{
  "resourceType": "Bundle",
  "id": "ff8fe79e-2d23-4d4d-8e5b-9c097b59f187",
  "meta": {
    "profile": [
      "https://fhir.gkvsv.de/StructureDefinition/GKVSV_PR_TA7_Rechnung_Bundle|1.4"
    ],
    "tag": [
      {
        "display": "Beispiel der TA7/eAbrechnungsdaten."
      },
      {
        "display": "ACHTUNG! Der fachlich korrekte Inhalt der Beispielinstanz kann nicht gewährleistet werden. Wir sind jederzeit dankbar für Hinweise auf Fehler oder für Verbesserungsvorschläge."
      }
    ]
  },
  "identifier": {
    "extension": [
      {
        "url": "https://fhir.gkvsv.de/StructureDefinition/GKVSV_EX_ERP_TA7_Dateinummer",
        "valueString": "00061"
      }
    ],
    "system": "https://fhir.gkvsv.de/NamingSystem/GKVSV_NS_Dateiname",
    "value": "B00FHR24061"
  },
  "type": "document",
  "timestamp": "2024-12-10T10:00:00+00:00",
  "entry": [
    {
      "fullUrl": "urn:uuid:c72563e0-c727-4102-a806-1a0cbedcf239",
      "resource": {
        "resourceType": "Composition",
        "id": "c72563e0-c727-4102-a806-1a0cbedcf239",
        "meta": {
          "profile": [
            "https://fhir.gkvsv.de/StructureDefinition/GKVSV_PR_TA7_Rechnung_Composition|1.4"
          ]
        },
        "extension": [
          {
            "url": "https://fhir.gkvsv.de/StructureDefinition/GKVSV_EX_TA7_IK_Empfaenger",
            "valueIdentifier": {
              "system": "http://fhir.de/sid/arge-ik/iknr",
              "value": "107436557"
            }
          },
          {
            "url": "https://fhir.gkvsv.de/StructureDefinition/GKVSV_EX_TA7_IK_Kostentraeger",
            "valueIdentifier": {
              "system": "http://fhir.de/sid/arge-ik/iknr",
              "value": "121191241"
            }
          }
        ],
        "identifier": {
          "system": "https://fhir.gkvsv.de/NamingSystem/GKVSV_NS_Rechnungsnummer",
          "value": "121191241-05-100823"
        },
        "status": "final",
        "type": {
          "coding": [
            {
              "system": "https://fhir.gkvsv.de/CodeSystem/GKVSV_CS_ERP_Rechnungsart",
              "code": "6"
            }
          ]
        },
        "date": "2024-11-30",
        "_date": {
          "extension": [
            {
              "url": "https://fhir.gkvsv.de/StructureDefinition/GKVSV_EX_ERP_TA7_Rechnungsdatum",
              "valueDateTime": "2024-12-10"
            }
          ]
        },
        "author": [
          {
            "identifier": {
              "system": "http://fhir.de/sid/arge-ik/iknr",
              "value": "987654321"
            }
          }
        ],
        "title": "elektronische Rechnung",
        "section": [
          {
            "code": {
              "coding": [
                {
                  "system": "https://fhir.gkvsv.de/CodeSystem/GKVSV_CS_ERP_TA7",
                  "code": "LR"
                }
              ]
            },
            "entry": [
              {
                "reference": "urn:uuid:234822d1-50e1-417c-8cbf-4a825ece5b5a"
              }
            ]
          },
          {
            "code": {
              "coding": [
                {
                  "system": "https://fhir.gkvsv.de/CodeSystem/GKVSV_CS_ERP_TA7",
                  "code": "RB",
                  "display": "Rezept-Bundle"
                }
              ]
            },
            "entry": [
              {
                "reference": "urn:uuid:4d521ac4-089f-4eb8-af62-089184ae3517"
              }
            ]
          }
        ]
      }
    },
    {
      "fullUrl": "urn:uuid:234822d1-50e1-417c-8cbf-4a825ece5b5a",
      "resource": {
        "resourceType": "List",
        "id": "234822d1-50e1-417c-8cbf-4a825ece5b5a",
        "meta": {
          "profile": [
            "https://fhir.gkvsv.de/StructureDefinition/GKVSV_PR_TA7_Rechnung_List|1.4"
          ]
        },
        "status": "current",
        "mode": "working",
        "entry": [
          {
            "item": {
              "identifier": {
                "system": "https://fhir.gkvsv.de/NamingSystem/GKVSV_NS_Dateiname",
                "value": "B00FHR24061"
              }
            }
          }
        ]
      }
    },
    {
      "fullUrl": "urn:uuid:4d521ac4-089f-4eb8-af62-089184ae3517",
      "resource": {
        "resourceType": "Bundle",
        "id": "4d521ac4-089f-4eb8-af62-089184ae3517",
        "meta": {
          "profile": [
            "https://fhir.gkvsv.de/StructureDefinition/GKVSV_PR_TA7_RezeptBundle|1.4"
          ]
        },
        "type": "collection",
        "entry": [
          {
            "link": [
              {
                "relation": "item",
                "url": "https://fhir.kbv.de/StructureDefinition/KBV_PR_ERP_Bundle"
              }
            ],
            "fullUrl": "urn:uuid:b90df913-2c11-40d1-b030-ba9b8952c5c9",
            "resource": {
              "resourceType": "Binary",
              "id": "b90df913-2c11-40d1-b030-ba9b8952c5c9",
              "meta": {
                "profile": [
                  "https://fhir.gkvsv.de/StructureDefinition/GKVSV_PR_Binary|1.4"
                ]
              },
              "contentType": "application/pkcs7-mime",
              "data": "VmVyb3JkbnVuZ3NkYXRlbiBCZWlzcGllbCBFcnN0ZWxsdW5nIEJlaXNwaWVsIGVBYnJlY2hudW5nc2RhdGVu"
            }
          },
          {
            "link": [
              {
                "relation": "item",
                "url": "https://gematik.de/fhir/StructureDefinition/ErxReceipt"
              }
            ],
            "fullUrl": "urn:uuid:35ea5ddd-796d-4a30-9b0e-91adf593e688",
            "resource": {
              "resourceType": "Binary",
              "id": "35ea5ddd-796d-4a30-9b0e-91adf593e688",
              "meta": {
                "profile": [
                  "https://fhir.gkvsv.de/StructureDefinition/GKVSV_PR_Binary|1.4"
                ]
              },
              "contentType": "application/pkcs7-mime",
              "data": "UXVpdHR1bmdzLUJlaXNwaWVsIEVyc3RlbGx1bmcgQmVpc3BpZWwgZUFicmVjaG51bmdzZGF0ZW4="
            }
          },
          {
            "link": [
              {
                "relation": "item",
                "url": "http://fhir.abda.de/eRezeptAbgabedaten/StructureDefinition/DAV-PR-ERP-AbgabedatenBundle"
              }
            ],
            "fullUrl": "urn:uuid:1e687ede-6b80-4bc4-93c7-a831194ccb66",
            "resource": {
              "resourceType": "Binary",
              "id": "1e687ede-6b80-4bc4-93c7-a831194ccb66",
              "meta": {
                "profile": [
                  "https://fhir.gkvsv.de/StructureDefinition/GKVSV_PR_Binary|1.4"
                ]
              },
              "contentType": "application/pkcs7-mime",
              "data": "ZUFiZ2FiZWRhdGVuIEJlaXNwaWVsIEVyc3RlbGx1bmcgQmVpc3BpZWwgZUFicmVjaG51bmdzZGF0ZW4="
            }
          },
          {
            "link": [
              {
                "relation": "item",
                "url": "https://fhir.gkvsv.de/StructureDefinition/GKVSV_PR_ERP_eAbrechnungsdaten"
              }
            ],
            "fullUrl": "urn:uuid:034a0ded-cd92-4597-aeaa-d6082742eafd",
            "resource": {
              "resourceType": "Invoice",
              "id": "034a0ded-cd92-4597-aeaa-d6082742eafd",
              "meta": {
                "profile": [
                  "https://fhir.gkvsv.de/StructureDefinition/GKVSV_PR_ERP_eAbrechnungsdaten|1.4"
                ]
              },
              "extension": [
                {
                  "url": "https://fhir.gkvsv.de/StructureDefinition/GKVSV_EX_ERP_Irrlaeufer",
                  "valueBoolean": false
                }
              ],
              "identifier": [
                {
                  "system": "https://gematik.de/fhir/erp/NamingSystem/GEM_ERP_NS_PrescriptionId",
                  "value": "160.100.000.000.020.79"
                },
                {
                  "system": "https://fhir.gkvsv.de/NamingSystem/GKVSV_NS_Belegnummer",
                  "value": "2105000000613456789"
                }
              ],
              "status": "issued",
              "issuer": {
                "extension": [
                  {
                    "url": "https://fhir.gkvsv.de/StructureDefinition/GKVSV_EX_ERP_LE_Sitz",
                    "valueCoding": {
                      "system": "https://fhir.gkvsv.de/CodeSystem/GKVSV_CS_ERP_Leistungserbringer_Sitz",
                      "code": "1"
                    }
                  }
                ],
                "identifier": {
                  "type": {
                    "coding": [
                      {
                        "system": "https://fhir.gkvsv.de/CodeSystem/GKVSV_CS_ERP_Leistungserbringertyp",
                        "code": "A"
                      }
                    ]
                  },
                  "system": "http://fhir.de/sid/arge-ik/iknr",
                  "value": "308412345"
                }
              },
              "lineItem": [
                {
                  "extension": [
                    {
                      "url": "https://fhir.gkvsv.de/StructureDefinition/GKVSV_EX_ERP_Positionstyp",
                      "valueCodeableConcept": {
                        "coding": [
                          {
                            "system": "https://fhir.gkvsv.de/CodeSystem/GKVSV_CS_ERP_Positionstyp",
                            "code": "1",
                            "display": "übrige Position"
                          }
                        ]
                      }
                    },
                    {
                      "url": "https://fhir.gkvsv.de/StructureDefinition/GKVSV_EX_ERP_VAT_VALUE",
                      "valueMoney": {
                        "value": 6.44,
                        "currency": "EUR"
                      }
                    },
                    {
                      "url": "https://fhir.gkvsv.de/StructureDefinition/GKVSV_EX_ERP_Import",
                      "valueCodeableConcept": {
                        "coding": [
                          {
                            "system": "https://fhir.gkvsv.de/CodeSystem/GKVSV_CS_ERP_Import",
                            "code": "0"
                          }
                        ]
                      }
                    }
                  ],
                  "sequence": 1,
                  "chargeItemCodeableConcept": {
                    "coding": [
                      {
                        "system": "http://terminology.hl7.org/CodeSystem/v3-NullFlavor",
                        "code": "UNC"
                      }
                    ]
                  },
                  "priceComponent": [
                    {
                      "type": "deduction",
                      "code": {
                        "coding": [
                          {
                            "system": "https://fhir.gkvsv.de/CodeSystem/GKVSV_CS_ERP_ZuAbschlagKey",
                            "code": "R001"
                          }
                        ]
                      },
                      "amount": {
                        "value": -1.77,
                        "currency": "EUR"
                      }
                    }
                  ]
                }
              ]
            }
          }
        ]
      }
    }
  ]
}