{
  "resourceType": "Bundle",
  "id": "78bfe860-c284-486a-b110-1a02fb7cc06f",
  "type": "collection",
  "timestamp": "2023-04-21T07:05:09.447+00:00",
  "link": [
    {
      "relation": "self",
      "url": "https://erp-dev.zentral.erp.splitdns.ti-dienste.de/Task/160.000.040.327.747.66"
    }
  ],
  "entry": [
    {
      "fullUrl": "https://erp-dev.zentral.erp.splitdns.ti-dienste.de/Task/160.000.040.327.747.66",
      "resource": {
        "resourceType": "Task",
        "id": "160.000.040.327.747.66",
        "meta": {
          "profile": [
            "https://gematik.de/fhir/erp/StructureDefinition/GEM_ERP_PR_Task|1.2"
          ]
        },
        "extension": [
          {
            "url": "https://gematik.de/fhir/erp/StructureDefinition/GEM_ERP_EX_PrescriptionType",
            "valueCoding": {
              "system": "https://gematik.de/fhir/erp/CodeSystem/GEM_ERP_CS_FlowType",
              "code": "160",
              "display": "Muster 16 (Apothekenpflichtige Arzneimittel)"
            }
          },
          {
            "url": "https://gematik.de/fhir/erp/StructureDefinition/GEM_ERP_EX_ExpiryDate",
            "valueDate": "2023-07-21"
          },
          {
            "url": "https://gematik.de/fhir/erp/StructureDefinition/GEM_ERP_EX_AcceptDate",
            "valueDate": "2023-05-19"
          }
        ],
        "identifier": [
          {
            "use": "official",
            "system": "https://gematik.de/fhir/erp/NamingSystem/GEM_ERP_NS_PrescriptionId",
            "value": "160.000.040.327.747.66"
          },
          {
            "use": "official",
            "system": "https://gematik.de/fhir/erp/NamingSystem/GEM_ERP_NS_AccessCode",
            "value": "311ffbca1acb05aa4411e9bcf02960be392cfcb666772862bd6fc5085d2de28e"
          }
        ],
        "status": "ready",
        "intent": "order",
        "for": {
          "identifier": {
            "system": "http://fhir.de/sid/gkv/kvid-10",
            "value": "X110498565"
          }
        },
        "authoredOn": "2023-04-21T07:05:06.427+00:00",
        "lastModified": "2023-04-21T07:05:06.820+00:00",
        "performerType": [
          {
            "coding": [
              {
                "system": "https://gematik.de/fhir/erp/CodeSystem/GEM_ERP_CS_OrganizationType",
                "code": "urn:oid:1.2.276.0.76.4.54",
                "display": "Öffentliche Apotheke"
              }
            ],
            "text": "Öffentliche Apotheke"
          }
        ],
        "input": [
          {
            "type": {
              "coding": [
                {
                  "system": "https://gematik.de/fhir/erp/CodeSystem/GEM_ERP_CS_DocumentType",
                  "code": "2"
                }
              ]
            },
            "valueReference": {
              "reference": "a0435a67-0200-0000-0002-000000000000"
            }
          }
        ]
      }
    },
    {
      "fullUrl": "urn:uuid:a0435a67-0200-0000-0002-000000000000",
      "resource": {
        "resourceType": "Bundle",
        "meta": {
          "lastUpdated": "2023-04-21T09:05:05.949+02:00",
          "profile": [
            "https://fhir.kbv.de/StructureDefinition/KBV_PR_ERP_Bundle|1.1.0"
          ]
        },
        "identifier": {
          "system": "https://gematik.de/fhir/erp/NamingSystem/GEM_ERP_NS_PrescriptionId",
          "value": "160.000.040.327.747.66"
        },
        "type": "document",
        "timestamp": "2023-04-21T09:05:05.949+02:00",
        "entry": [
          {
            "fullUrl": "https://pvs.gematik.de/fhir/Composition/28819f5a-5e00-47ed-986e-843655349bb8",
            "resource": {
              "resourceType": "Composition",
              "id": "28819f5a-5e00-47ed-986e-843655349bb8",
              "meta": {
                "profile": [
                  "https://fhir.kbv.de/StructureDefinition/KBV_PR_ERP_Composition|1.1.0"
                ]
              },
              "extension": [
                {
                  "url": "https://fhir.kbv.de/StructureDefinition/KBV_EX_FOR_Legal_basis",
                  "valueCoding": {
                    "system": "https://fhir.kbv.de/CodeSystem/KBV_CS_SFHIR_KBV_STATUSKENNZEICHEN",
                    "code": "00"
                  }
                }
              ],
              "status": "final",
              "type": {
                "coding": [
                  {
                    "system": "https://fhir.kbv.de/CodeSystem/KBV_CS_SFHIR_KBV_FORMULAR_ART",
                    "code": "e16A"
                  }
                ]
              },
              "subject": {
                "reference": "Patient/bb1598e2-8799-4dd7-b8d3-fa301d7a4ba8"
              },
              "date": "2023-04-21T09:05:05+02:00",
              "author": [
                {
                  "reference": "Practitioner/93449984-d113-42d8-ac18-5061d253692e",
                  "type": "Practitioner"
                },
                {
                  "type": "Device",
                  "identifier": {
                    "system": "https://fhir.kbv.de/NamingSystem/KBV_NS_FOR_Pruefnummer",
                    "value": "GEMATIK/410/2109/36/123"
                  }
                }
              ],
              "title": "elektronische Arzneimittelverordnung",
              "custodian": {
                "reference": "Organization/85ca2204-5104-4fe5-a444-c7502e430a0a"
              },
              "section": [
                {
                  "code": {
                    "coding": [
                      {
                        "system": "https://fhir.kbv.de/CodeSystem/KBV_CS_ERP_Section_Type",
                        "code": "Coverage"
                      }
                    ]
                  },
                  "entry": [
                    {
                      "reference": "Coverage/d2934f51-84e5-481b-8502-af246766d6a3"
                    }
                  ]
                },
                {
                  "code": {
                    "coding": [
                      {
                        "system": "https://fhir.kbv.de/CodeSystem/KBV_CS_ERP_Section_Type",
                        "code": "Prescription"
                      }
                    ]
                  },
                  "entry": [
                    {
                      "reference": "MedicationRequest/f36c9949-5837-409f-8f4d-2619f6eac24f"
                    }
                  ]
                }
              ]
            }
          },
          {
            "fullUrl": "https://pvs.gematik.de/fhir/MedicationRequest/f36c9949-5837-409f-8f4d-2619f6eac24f",
            "resource": {
              "resourceType": "MedicationRequest",
              "id": "f36c9949-5837-409f-8f4d-2619f6eac24f",
              "meta": {
                "profile": [
                  "https://fhir.kbv.de/StructureDefinition/KBV_PR_ERP_Prescription|1.1.0"
                ]
              },
              "extension": [
                {
                  "url": "https://fhir.kbv.de/StructureDefinition/KBV_EX_ERP_BVG",
                  "valueBoolean": false
                },
                {
                  "url": "https://fhir.kbv.de/StructureDefinition/KBV_EX_ERP_EmergencyServicesFee",
                  "valueBoolean": false
                },
                {
                  "url": "https://fhir.kbv.de/StructureDefinition/KBV_EX_ERP_Multiple_Prescription",
                  "extension": [
                    {
                      "url": "Kennzeichen",
                      "valueBoolean": false
                    }
                  ]
                },
                {
                  "url": "https://fhir.kbv.de/StructureDefinition/KBV_EX_FOR_StatusCoPayment",
                  "valueCoding": {
                    "system": "https://fhir.kbv.de/CodeSystem/KBV_CS_FOR_StatusCoPayment",
                    "code": "0"
                  }
                }
              ],
              "status": "active",
              "intent": "order",
              "medicationReference": {
                "reference": "Medication/526c9d93-f532-4d3a-9692-7eec21e2cd37"
              },
              "subject": {
                "reference": "Patient/bb1598e2-8799-4dd7-b8d3-fa301d7a4ba8"
              },
              "authoredOn": "2023-04-21",
              "requester": {
                "reference": "Practitioner/93449984-d113-42d8-ac18-5061d253692e"
              },
              "insurance": [
                {
                  "reference": "Coverage/d2934f51-84e5-481b-8502-af246766d6a3"
                }
              ],
              "dosageInstruction": [
                {
                  "extension": [
                    {
                      "url": "https://fhir.kbv.de/StructureDefinition/KBV_EX_ERP_DosageFlag",
                      "valueBoolean": true
                    }
                  ],
                  "text": "1-0-0-0"
                }
              ],
              "dispenseRequest": {
                "quantity": {
                  "value": 1,
                  "system": "http://unitsofmeasure.org",
                  "code": "{Package}"
                }
              },
              "substitution": {
                "allowedBoolean": true
              }
            }
          },
          {
            "fullUrl": "https://pvs.gematik.de/fhir/Medication/526c9d93-f532-4d3a-9692-7eec21e2cd37",
            "resource": {
              "resourceType": "Medication",
              "id": "526c9d93-f532-4d3a-9692-7eec21e2cd37",
              "meta": {
                "profile": [
                  "https://fhir.kbv.de/StructureDefinition/KBV_PR_ERP_Medication_PZN|1.1.0"
                ]
              },
              "extension": [
                {
                  "url": "https://fhir.kbv.de/StructureDefinition/KBV_EX_Base_Medication_Type",
                  "valueCodeableConcept": {
                    "coding": [
                      {
                        "system": "http://snomed.info/sct",
                        "version": "http://snomed.info/sct/900000000000207008/version/20220331",
                        "code": "763158003",
                        "display": "Medicinal product (product)"
                      }
                    ]
                  }
                },
                {
                  "url": "https://fhir.kbv.de/StructureDefinition/KBV_EX_ERP_Medication_Category",
                  "valueCoding": {
                    "system": "https://fhir.kbv.de/CodeSystem/KBV_CS_ERP_Medication_Category",
                    "code": "00"
                  }
                },
                {
                  "url": "https://fhir.kbv.de/StructureDefinition/KBV_EX_ERP_Medication_Vaccine",
                  "valueBoolean": false
                },
                {
                  "url": "http://fhir.de/StructureDefinition/normgroesse",
                  "valueCode": "NB"
                }
              ],
              "code": {
                "coding": [
                  {
                    "system": "http://fhir.de/CodeSystem/ifa/pzn",
                    "code": "12345678"
                  }
                ],
                "text": "Schmerzmittel"
              },
              "form": {
                "coding": [
                  {
                    "system": "https://fhir.kbv.de/CodeSystem/KBV_CS_SFHIR_KBV_DARREICHUNGSFORM",
                    "code": "TAB"
                  }
                ]
              },
              "amount": {
                "numerator": {
                  "extension": [
                    {
                      "url": "https://fhir.kbv.de/StructureDefinition/KBV_EX_ERP_Medication_PackagingSize",
                      "valueString": "1"
                    }
                  ],
                  "unit": "Stk"
                },
                "denominator": {
                  "value": 1
                }
              }
            }
          },
          {
            "fullUrl": "https://pvs.gematik.de/fhir/Patient/bb1598e2-8799-4dd7-b8d3-fa301d7a4ba8",
            "resource": {
              "resourceType": "Patient",
              "id": "bb1598e2-8799-4dd7-b8d3-fa301d7a4ba8",
              "meta": {
                "profile": [
                  "https://fhir.kbv.de/StructureDefinition/KBV_PR_FOR_Patient|1.1.0"
                ]
              },
              "identifier": [
                {
                  "type": {
                    "coding": [
                      {
                        "system": "http://fhir.de/CodeSystem/identifier-type-de-basis",
                        "code": "GKV"
                      }
                    ]
                  },
                  "system": "http://fhir.de/sid/gkv/kvid-10",
                  "value": "X110498565"
                }
              ],
              "name": [
                {
                  "use": "official",
                  "family": "Hüllmann",
                  "_family": {
                    "extension": [
                      {
                        "url": "http://hl7.org/fhir/StructureDefinition/humanname-own-name",
                        "valueString": "Hüllmann"
                      }
                    ]
                  },
                  "given": ["Sina"]
                }
              ],
              "birthDate": "1983-03-16",
              "address": [
                {
                  "type": "both",
                  "line": ["Aldegundisstr. 738"],
                  "_line": [
                    {
                      "extension": [
                        {
                          "url": "http://hl7.org/fhir/StructureDefinition/iso21090-ADXP-houseNumber",
                          "valueString": "738"
                        },
                        {
                          "url": "http://hl7.org/fhir/StructureDefinition/iso21090-ADXP-streetName",
                          "valueString": "Aldegundisstr."
                        }
                      ]
                    }
                  ],
                  "city": "Lillianscheid",
                  "postalCode": "44906",
                  "country": "D"
                }
              ]
            }
          },
          {
            "fullUrl": "https://pvs.gematik.de/fhir/Organization/85ca2204-5104-4fe5-a444-c7502e430a0a",
            "resource": {
              "resourceType": "Organization",
              "id": "85ca2204-5104-4fe5-a444-c7502e430a0a",
              "meta": {
                "profile": [
                  "https://fhir.kbv.de/StructureDefinition/KBV_PR_FOR_Organization|1.1.0"
                ]
              },
              "identifier": [
                {
                  "type": {
                    "coding": [
                      {
                        "system": "http://terminology.hl7.org/CodeSystem/v2-0203",
                        "code": "BSNR"
                      }
                    ]
                  },
                  "system": "https://fhir.kbv.de/NamingSystem/KBV_NS_Base_BSNR",
                  "value": "469985065"
                }
              ],
              "name": "Arztpraxis Schraßer",
              "telecom": [
                {
                  "system": "phone",
                  "value": "(0902) 820140732"
                },
                {
                  "system": "email",
                  "value": "thalea.göhler@hodea.name"
                }
              ],
              "address": [
                {
                  "type": "both",
                  "line": ["Wuppertalstr. 10b"],
                  "_line": [
                    {
                      "extension": [
                        {
                          "url": "http://hl7.org/fhir/StructureDefinition/iso21090-ADXP-houseNumber",
                          "valueString": "10b"
                        },
                        {
                          "url": "http://hl7.org/fhir/StructureDefinition/iso21090-ADXP-streetName",
                          "valueString": "Wuppertalstr."
                        }
                      ]
                    }
                  ],
                  "city": "Inkaheim",
                  "postalCode": "77116",
                  "country": "D"
                }
              ]
            }
          },
          {
            "fullUrl": "https://pvs.gematik.de/fhir/Coverage/d2934f51-84e5-481b-8502-af246766d6a3",
            "resource": {
              "resourceType": "Coverage",
              "id": "d2934f51-84e5-481b-8502-af246766d6a3",
              "meta": {
                "profile": [
                  "https://fhir.kbv.de/StructureDefinition/KBV_PR_FOR_Coverage|1.1.0"
                ]
              },
              "extension": [
                {
                  "url": "http://fhir.de/StructureDefinition/gkv/besondere-personengruppe",
                  "valueCoding": {
                    "system": "https://fhir.kbv.de/CodeSystem/KBV_CS_SFHIR_KBV_PERSONENGRUPPE",
                    "code": "00"
                  }
                },
                {
                  "url": "http://fhir.de/StructureDefinition/gkv/dmp-kennzeichen",
                  "valueCoding": {
                    "system": "https://fhir.kbv.de/CodeSystem/KBV_CS_SFHIR_KBV_DMP",
                    "code": "00"
                  }
                },
                {
                  "url": "http://fhir.de/StructureDefinition/gkv/wop",
                  "valueCoding": {
                    "system": "https://fhir.kbv.de/CodeSystem/KBV_CS_SFHIR_ITA_WOP",
                    "code": "72"
                  }
                },
                {
                  "url": "http://fhir.de/StructureDefinition/gkv/versichertenart",
                  "valueCoding": {
                    "system": "https://fhir.kbv.de/CodeSystem/KBV_CS_SFHIR_KBV_VERSICHERTENSTATUS",
                    "code": "1"
                  }
                }
              ],
              "status": "active",
              "type": {
                "coding": [
                  {
                    "system": "http://fhir.de/CodeSystem/versicherungsart-de-basis",
                    "code": "GKV"
                  }
                ]
              },
              "beneficiary": {
                "reference": "Patient/1a364d6e-e620-4fac-85b5-56e78172561f"
              },
              "payor": [
                {
                  "identifier": {
                    "system": "http://fhir.de/sid/arge-ik/iknr",
                    "value": "577826188"
                  },
                  "display": "KOA Bremen"
                }
              ]
            }
          },
          {
            "fullUrl": "https://pvs.gematik.de/fhir/Practitioner/93449984-d113-42d8-ac18-5061d253692e",
            "resource": {
              "resourceType": "Practitioner",
              "id": "93449984-d113-42d8-ac18-5061d253692e",
              "meta": {
                "profile": [
                  "https://fhir.kbv.de/StructureDefinition/KBV_PR_FOR_Practitioner|1.1.0"
                ]
              },
              "identifier": [
                {
                  "type": {
                    "coding": [
                      {
                        "system": "http://terminology.hl7.org/CodeSystem/v2-0203",
                        "code": "LANR"
                      }
                    ]
                  },
                  "system": "https://fhir.kbv.de/NamingSystem/KBV_NS_Base_ANR",
                  "value": "850523325"
                }
              ],
              "name": [
                {
                  "use": "official",
                  "family": "Schraßer",
                  "_family": {
                    "extension": [
                      {
                        "url": "http://hl7.org/fhir/StructureDefinition/humanname-own-name",
                        "valueString": "Schraßer"
                      }
                    ]
                  },
                  "given": ["Dr."],
                  "prefix": ["Dr."],
                  "_prefix": [
                    {
                      "extension": [
                        {
                          "url": "http://hl7.org/fhir/StructureDefinition/iso21090-EN-qualifier",
                          "valueCode": "AC"
                        }
                      ]
                    }
                  ]
                }
              ],
              "qualification": [
                {
                  "code": {
                    "coding": [
                      {
                        "system": "https://fhir.kbv.de/CodeSystem/KBV_CS_FOR_Qualification_Type",
                        "code": "00"
                      }
                    ]
                  }
                },
                {
                  "code": {
                    "coding": [
                      {
                        "system": "https://fhir.kbv.de/CodeSystem/KBV_CS_FOR_Berufsbezeichnung",
                        "code": "Berufsbezeichnung"
                      }
                    ],
                    "text": "Super-Facharzt für alles Mögliche"
                  }
                }
              ]
            }
          }
        ],
        "signature": {
          "type": [
            {
              "system": "urn:iso-astm:E1762-95:2013",
              "code": "1.2.840.10065.1.12.1.5"
            }
          ],
          "when": "2023-04-21T07:05:09.447+00:00",
          "who": {
            "reference": "https://erp-dev.zentral.erp.splitdns.ti-dienste.de/Device/1"
          },
          "targetFormat": "application/fhir+json",
          "sigFormat": "application/jose",
          "data": ""
        }
      }
    }
  ]
}
