{
  "resourceType": "Bundle",
  "id": "Response-Apotheker-GETChargeItemById",
  "meta": {
    "lastUpdated": "2021-09-02T11:38:42.557+00:00"
  },
  "type": "searchset",
  "total": 2,
  "entry": [
    {
      "fullUrl": "https://prescriptionserver.telematik/ChargeItem/abc825bc-bc30-45f8-b109-1b343fff5c45",
      "resource": {
        "resourceType": "ChargeItem",
        "id": "Apotheker-ChargeItem-abc825bc-bc30-45f8-b109-1b343fff5c45",
        "meta": {
          "profile": [
            "https://gematik.de/fhir/erpchrg/StructureDefinition/GEM_ERPCHRG_PR_ChargeItem|1.0"
          ]
        },
        "extension": [
          {
            "extension": [
              {
                "url": "insuranceProvider",
                "valueBoolean": false
              },
              {
                "url": "subsidy",
                "valueBoolean": false
              },
              {
                "url": "taxOffice",
                "valueBoolean": false
              }
            ],
            "url": "https://gematik.de/fhir/erpchrg/StructureDefinition/GEM_ERPCHRG_EX_MarkingFlag"
          }
        ],
        "identifier": [
          {
            "system": "https://gematik.de/fhir/erp/NamingSystem/GEM_ERP_NS_PrescriptionId",
            "value": "200.086.824.605.539.20"
          }
        ],
        "status": "billable",
        "code": {
          "coding": [
            {
              "system": "http://terminology.hl7.org/CodeSystem/data-absent-reason",
              "code": "not-applicable"
            }
          ]
        },
        "subject": {
          "identifier": {
            "system": "http://fhir.de/sid/pkv/kvid-10",
            "value": "X234567890"
          }
        },
        "enterer": {
          "identifier": {
            "system": "https://gematik.de/fhir/sid/telematik-id",
            "value": "3-SMC-B-Testkarte-883110000095957"
          }
        },
        "enteredDate": "2021-06-01T07:13:00+05:00",
        "supportingInformation": [
          {
            "reference": "Bundle/f548dde3-a319-486b-8624-6176ff41ad90",
            "display": "http://fhir.abda.de/eRezeptAbgabedaten/StructureDefinition/DAV-PKV-PR-ERP-AbgabedatenBundle"
          }
        ]
      }
    },
    {
      "fullUrl": "https://prescriptionserver.telematik/Bundle/f548dde3-a319-486b-8624-6176ff41ad90",
      "resource": {
        "resourceType": "Bundle",
        "id": "f548dde3-a319-486b-8624-6176ff41ad90",
        "meta": {
          "profile": [
            "http://fhir.abda.de/eRezeptAbgabedaten/StructureDefinition/DAV-PKV-PR-ERP-AbgabedatenBundle|1.1"
          ],
          "tag": [
            {
              "display": "Beispiel RezeptAbgabedatenPKV Bundle (FAM + Noctu + Rezeptänderung)"
            }
          ]
        },
        "identifier": {
          "system": "https://gematik.de/fhir/erp/NamingSystem/GEM_ERP_NS_PrescriptionId",
          "value": "200.086.824.605.539.20"
        },
        "type": "document",
        "timestamp": "2022-03-25T23:40:00+00:00",
        "entry": [
          {
            "fullUrl": "urn:uuid:4dc5f425-b9b6-4e39-9166-42668ead6c86",
            "resource": {
              "resourceType": "Composition",
              "id": "4dc5f425-b9b6-4e39-9166-42668ead6c86",
              "meta": {
                "profile": [
                  "http://fhir.abda.de/eRezeptAbgabedaten/StructureDefinition/DAV-PKV-PR-ERP-AbgabedatenComposition|1.1"
                ]
              },
              "status": "final",
              "type": {
                "coding": [
                  {
                    "system": "http://fhir.abda.de/eRezeptAbgabedaten/CodeSystem/DAV-CS-ERP-CompositionTypes",
                    "code": "ERezeptAbgabedaten"
                  }
                ]
              },
              "date": "2022-03-25T23:40:00Z",
              "author": [
                {
                  "reference": "urn:uuid:1fa57d53-812b-4cab-a42e-94a12481108a"
                }
              ],
              "title": "ERezeptAbgabedaten",
              "section": [
                {
                  "title": "Abgabeinformationen",
                  "entry": [
                    {
                      "reference": "urn:uuid:37a647b8-cb89-491a-af0f-f9bffc2b386c"
                    }
                  ]
                },
                {
                  "title": "Apotheke",
                  "entry": [
                    {
                      "reference": "urn:uuid:1fa57d53-812b-4cab-a42e-94a12481108a"
                    }
                  ]
                }
              ]
            }
          },
          {
            "fullUrl": "urn:uuid:1fa57d53-812b-4cab-a42e-94a12481108a",
            "resource": {
              "resourceType": "Organization",
              "id": "1fa57d53-812b-4cab-a42e-94a12481108a",
              "meta": {
                "profile": [
                  "http://fhir.abda.de/eRezeptAbgabedaten/StructureDefinition/DAV-PKV-PR-ERP-Apotheke|1.1"
                ]
              },
              "identifier": [
                {
                  "system": "http://fhir.de/sid/arge-ik/iknr",
                  "value": "123456789"
                }
              ],
              "name": "Adler-Apotheke",
              "address": [
                {
                  "type": "physical",
                  "line": [
                    "Taunusstraße 89"
                  ],
                  "_line": [
                    {
                      "extension": [
                        {
                          "url": "http://hl7.org/fhir/StructureDefinition/iso21090-ADXP-streetName",
                          "valueString": "Taunusstraße"
                        },
                        {
                          "url": "http://hl7.org/fhir/StructureDefinition/iso21090-ADXP-houseNumber",
                          "valueString": "89"
                        }
                      ]
                    }
                  ],
                  "city": "Langen",
                  "postalCode": "63225",
                  "country": "D"
                }
              ]
            }
          },
          {
            "fullUrl": "urn:uuid:37a647b8-cb89-491a-af0f-f9bffc2b386c",
            "resource": {
              "resourceType": "MedicationDispense",
              "id": "37a647b8-cb89-491a-af0f-f9bffc2b386c",
              "meta": {
                "profile": [
                  "http://fhir.abda.de/eRezeptAbgabedaten/StructureDefinition/DAV-PKV-PR-ERP-Abgabeinformationen|1.1"
                ]
              },
              "extension": [
                {
                  "url": "http://fhir.abda.de/eRezeptAbgabedaten/StructureDefinition/DAV-EX-ERP-Abrechnungszeilen",
                  "valueReference": {
                    "reference": "urn:uuid:8a99bfa5-f7aa-4741-99d8-f1abbd301ae1"
                  }
                },
                {
                  "url": "http://fhir.abda.de/eRezeptAbgabedaten/StructureDefinition/DAV-PKV-EX-ERP-AbrechnungsTyp",
                  "valueCodeableConcept": {
                    "coding": [
                      {
                        "system": "http://fhir.abda.de/eRezeptAbgabedaten/CodeSystem/DAV-PKV-CS-ERP-AbrechnungsTyp",
                        "code": "1"
                      }
                    ]
                  }
                }
              ],
              "status": "completed",
              "medicationCodeableConcept": {
                "coding": [
                  {
                    "system": "http://terminology.hl7.org/CodeSystem/data-absent-reason",
                    "code": "not-applicable"
                  }
                ]
              },
              "performer": [
                {
                  "actor": {
                    "reference": "urn:uuid:1fa57d53-812b-4cab-a42e-94a12481108a"
                  }
                }
              ],
              "authorizingPrescription": [
                {
                  "identifier": {
                    "system": "https://gematik.de/fhir/erp/NamingSystem/GEM_ERP_NS_PrescriptionId",
                    "value": "200.086.824.605.539.20"
                  }
                }
              ],
              "type": {
                "coding": [
                  {
                    "system": "http://fhir.abda.de/eRezeptAbgabedaten/CodeSystem/DAV-CS-ERP-MedicationDispenseTyp",
                    "code": "Abgabeinformationen"
                  }
                ]
              },
              "whenHandedOver": "2022-03-25",
              "substitution": {
                "extension": [
                  {
                    "extension": [
                      {
                        "url": "ArtRezeptaenderung",
                        "valueCodeableConcept": {
                          "coding": [
                            {
                              "system": "http://fhir.abda.de/eRezeptAbgabedaten/CodeSystem/DAV-PKV-CS-ERP-ArtRezeptaenderung",
                              "code": "21"
                            }
                          ]
                        }
                      },
                      {
                        "url": "RueckspracheArzt",
                        "valueCodeableConcept": {
                          "coding": [
                            {
                              "system": "http://fhir.abda.de/eRezeptAbgabedaten/CodeSystem/DAV-CS-ERP-RueckspracheArzt",
                              "code": "2"
                            }
                          ]
                        }
                      }
                    ],
                    "url": "http://fhir.abda.de/eRezeptAbgabedaten/StructureDefinition/DAV-EX-ERP-Rezeptaenderung"
                  }
                ],
                "wasSubstituted": true
              }
            }
          },
          {
            "fullUrl": "urn:uuid:8a99bfa5-f7aa-4741-99d8-f1abbd301ae1",
            "resource": {
              "resourceType": "Invoice",
              "id": "8a99bfa5-f7aa-4741-99d8-f1abbd301ae1",
              "meta": {
                "profile": [
                  "http://fhir.abda.de/eRezeptAbgabedaten/StructureDefinition/DAV-PKV-PR-ERP-Abrechnungszeilen|1.1"
                ]
              },
              "status": "issued",
              "type": {
                "coding": [
                  {
                    "system": "http://fhir.abda.de/eRezeptAbgabedaten/CodeSystem/DAV-CS-ERP-InvoiceTyp",
                    "code": "Abrechnungszeilen"
                  }
                ]
              },
              "lineItem": [
                {
                  "sequence": 1,
                  "chargeItemCodeableConcept": {
                    "coding": [
                      {
                        "system": "http://fhir.de/CodeSystem/ifa/pzn",
                        "code": "11514676"
                      }
                    ]
                  },
                  "priceComponent": [
                    {
                      "extension": [
                        {
                          "url": "http://fhir.abda.de/eRezeptAbgabedaten/StructureDefinition/DAV-EX-ERP-MwStSatz",
                          "valueDecimal": 19.00
                        },
                        {
                          "extension": [
                            {
                              "url": "Kategorie",
                              "valueCodeableConcept": {
                                "coding": [
                                  {
                                    "system": "http://fhir.abda.de/eRezeptAbgabedaten/CodeSystem/DAV-PKV-CS-ERP-KostenVersicherterKategorie",
                                    "code": "0"
                                  }
                                ]
                              }
                            },
                            {
                              "url": "Kostenbetrag",
                              "valueMoney": {
                                "value": 0,
                                "currency": "EUR"
                              }
                            }
                          ],
                          "url": "http://fhir.abda.de/eRezeptAbgabedaten/StructureDefinition/DAV-EX-ERP-KostenVersicherter"
                        }
                      ],
                      "type": "informational",
                      "factor": 2,
                      "amount": {
                        "value": 48.98,
                        "currency": "EUR"
                      }
                    }
                  ]
                },
                {
                  "extension": [
                    {
                      "extension": [
                        {
                          "extension": [
                            {
                              "url": "Gruppe",
                              "valueCodeableConcept": {
                                "coding": [
                                  {
                                    "system": "http://fhir.abda.de/eRezeptAbgabedaten/CodeSystem/DAV-CS-ERP-ZusatzattributGruppe",
                                    "code": "11"
                                  }
                                ]
                              }
                            },
                            {
                              "url": "DatumUhrzeit",
                              "valueDateTime": "2022-03-25T23:30:00.0Z"
                            },
                            {
                              "url": "Schluessel",
                              "valueBoolean": true
                            }
                          ],
                          "url": "ZusatzattributAbgabeNoctu"
                        }
                      ],
                      "url": "http://fhir.abda.de/eRezeptAbgabedaten/StructureDefinition/DAV-EX-ERP-Zusatzattribute"
                    }
                  ],
                  "sequence": 2,
                  "chargeItemCodeableConcept": {
                    "coding": [
                      {
                        "system": "http://fhir.de/CodeSystem/ifa/pzn",
                        "code": "02567018"
                      }
                    ]
                  },
                  "priceComponent": [
                    {
                      "extension": [
                        {
                          "url": "http://fhir.abda.de/eRezeptAbgabedaten/StructureDefinition/DAV-EX-ERP-MwStSatz",
                          "valueDecimal": 19.00
                        },
                        {
                          "extension": [
                            {
                              "url": "Kategorie",
                              "valueCodeableConcept": {
                                "coding": [
                                  {
                                    "system": "http://fhir.abda.de/eRezeptAbgabedaten/CodeSystem/DAV-PKV-CS-ERP-KostenVersicherterKategorie",
                                    "code": "0"
                                  }
                                ]
                              }
                            },
                            {
                              "url": "Kostenbetrag",
                              "valueMoney": {
                                "value": 0,
                                "currency": "EUR"
                              }
                            }
                          ],
                          "url": "http://fhir.abda.de/eRezeptAbgabedaten/StructureDefinition/DAV-EX-ERP-KostenVersicherter"
                        }
                      ],
                      "type": "informational",
                      "factor": 1,
                      "amount": {
                        "value": 2.50,
                        "currency": "EUR"
                      }
                    }
                  ]
                }
              ],
              "totalGross": {
                "extension": [
                  {
                    "url": "http://fhir.abda.de/eRezeptAbgabedaten/StructureDefinition/DAV-EX-ERP-Gesamtzuzahlung",
                    "valueMoney": {
                      "value": 0,
                      "currency": "EUR"
                    }
                  }
                ],
                "value": 51.48,
                "currency": "EUR"
              }
            }
          }
        ],
        "signature": {
          "type": [
            {
              "system": "urn:iso-astm:E1762-95:2013",
              "code": "1.2.840.10065.1.12.1.1"
            }
          ],
          "when": "2022-03-18T15:28:00+00:00",
          "who": {
            "reference": "https://pharmacy-konn/Device/1"
          },
          "onBehalfOf": {
            "identifier": {
              "system": "https://gematik.de/fhir/sid/telematik-id",
              "value": "3-SMC-B-Testkarte-883110000129070"
            }
          },
          "sigFormat": "application/pkcs7-mime",
          "data": "dGhpcyBibG9iIGlzIHNuaXBwZWQ="
        }
      }
    }
  ]
}