<Bundle xmlns="http://hl7.org/fhir"><id value="e0fda188-caf2-45cf-a8ea-1aacb1b489d1"/><meta><lastUpdated value="2023-11-27T08:40:49.058+01:00"/><profile value="http://fhir.abda.de/eRezeptAbgabedaten/StructureDefinition/DAV-PKV-PR-ERP-AbgabedatenBundle|1.2"/></meta><identifier><system value="https://gematik.de/fhir/erp/NamingSystem/GEM_ERP_NS_PrescriptionId"/><value value="200.000.000.042.803.90"/></identifier><type value="document"/><timestamp value="2023-11-27T08:40:49.058+01:00"/><entry><fullUrl value="urn:uuid:e8d77807-fd6b-41f3-9b15-d7bea5d56421"/><resource><Composition xmlns="http://hl7.org/fhir"><id value="e8d77807-fd6b-41f3-9b15-d7bea5d56421"/><meta><profile value="http://fhir.abda.de/eRezeptAbgabedaten/StructureDefinition/DAV-PKV-PR-ERP-AbgabedatenComposition|1.2"/></meta><status value="final"/><type><coding><system value="http://fhir.abda.de/eRezeptAbgabedaten/CodeSystem/DAV-CS-ERP-CompositionTypes"/><code value="ERezeptAbgabedaten"/></coding></type><date value="2023-11-27T08:40:49+01:00"/><author><reference value="urn:uuid:7240b1a8-561d-4e17-a28b-5c990756f4eb"/></author><title value="ERezeptAbgabedaten"/><section><title value="Apotheke"/><entry><reference value="urn:uuid:7240b1a8-561d-4e17-a28b-5c990756f4eb"/></entry></section><section><title value="Abgabeinformationen"/><entry><reference value="urn:uuid:85cd6dd1-f994-43dc-aab0-561ae3202f43"/></entry></section></Composition></resource></entry><entry><fullUrl value="urn:uuid:7240b1a8-561d-4e17-a28b-5c990756f4eb"/><resource><Organization xmlns="http://hl7.org/fhir"><id value="7240b1a8-561d-4e17-a28b-5c990756f4eb"/><meta><profile value="http://fhir.abda.de/eRezeptAbgabedaten/StructureDefinition/DAV-PKV-PR-ERP-Apotheke|1.2"/></meta><identifier><system value="http://fhir.de/sid/arge-ik/iknr"/><value value="087478263"/></identifier><name value="Apotheke Mabel Syrup"/><address><type value="physical"/><line value="Knochenbergsweg 69b"><extension url="http://hl7.org/fhir/StructureDefinition/iso21090-ADXP-houseNumber"><valueString value="69b"/></extension><extension url="http://hl7.org/fhir/StructureDefinition/iso21090-ADXP-streetName"><valueString value="Knochenbergsweg"/></extension></line><city value="Süd Elia"/><postalCode value="16754"/><country value="D"/></address></Organization></resource></entry><entry><fullUrl value="urn:uuid:321107c7-5d15-438e-9ab6-a2715a040199"/><resource><Invoice xmlns="http://hl7.org/fhir"><id value="321107c7-5d15-438e-9ab6-a2715a040199"/><meta><profile value="http://fhir.abda.de/eRezeptAbgabedaten/StructureDefinition/DAV-PKV-PR-ERP-Abrechnungszeilen|1.2"/></meta><status value="issued"/><type><coding><system value="http://fhir.abda.de/eRezeptAbgabedaten/CodeSystem/DAV-CS-ERP-InvoiceTyp"/><code value="Abrechnungszeilen"/></coding></type><lineItem><sequence value="1"/><chargeItemCodeableConcept><coding><system value="http://fhir.de/CodeSystem/ifa/pzn"/><code value="01230943"/></coding><text value="Hemamipa"/></chargeItemCodeableConcept><priceComponent><extension url="http://fhir.abda.de/eRezeptAbgabedaten/StructureDefinition/DAV-EX-ERP-KostenVersicherter"><extension url="Kategorie"><valueCodeableConcept><coding><system value="http://fhir.abda.de/eRezeptAbgabedaten/CodeSystem/DAV-PKV-CS-ERP-KostenVersicherterKategorie"/><code value="0"/></coding></valueCodeableConcept></extension><extension url="Kostenbetrag"><valueMoney><value value="427.05"/><currency value="EUR"/></valueMoney></extension></extension><extension url="http://fhir.abda.de/eRezeptAbgabedaten/StructureDefinition/DAV-EX-ERP-MwStSatz"><valueDecimal value="27.62"/></extension><type value="informational"/><factor value="1"/><amount><value value="1714.58"/><currency value="EUR"/></amount></priceComponent></lineItem><lineItem><sequence value="2"/><chargeItemCodeableConcept><coding><system value="http://fhir.de/CodeSystem/ifa/pzn"/><code value="77968781"/></coding><text value="Fomvomilsäure"/></chargeItemCodeableConcept><priceComponent><extension url="http://fhir.abda.de/eRezeptAbgabedaten/StructureDefinition/DAV-EX-ERP-KostenVersicherter"><extension url="Kategorie"><valueCodeableConcept><coding><system value="http://fhir.abda.de/eRezeptAbgabedaten/CodeSystem/DAV-PKV-CS-ERP-KostenVersicherterKategorie"/><code value="0"/></coding></valueCodeableConcept></extension><extension url="Kostenbetrag"><valueMoney><value value="97.67"/><currency value="EUR"/></valueMoney></extension></extension><extension url="http://fhir.abda.de/eRezeptAbgabedaten/StructureDefinition/DAV-EX-ERP-MwStSatz"><valueDecimal value="27.62"/></extension><type value="informational"/><factor value="1"/><amount><value value="148.03"/><currency value="EUR"/></amount></priceComponent></lineItem><totalGross><extension url="http://fhir.abda.de/eRezeptAbgabedaten/StructureDefinition/DAV-EX-ERP-Gesamtzuzahlung"><valueMoney><value value="524.72"/><currency value="EUR"/></valueMoney></extension><value value="1862.61"/><currency value="EUR"/></totalGross></Invoice></resource></entry><entry><fullUrl value="urn:uuid:85cd6dd1-f994-43dc-aab0-561ae3202f43"/><resource><MedicationDispense xmlns="http://hl7.org/fhir"><id value="85cd6dd1-f994-43dc-aab0-561ae3202f43"/><meta><profile value="http://fhir.abda.de/eRezeptAbgabedaten/StructureDefinition/DAV-PKV-PR-ERP-Abgabeinformationen|1.2"/></meta><extension url="http://fhir.abda.de/eRezeptAbgabedaten/StructureDefinition/DAV-PKV-EX-ERP-AbrechnungsTyp"><valueCodeableConcept><coding><system value="http://fhir.abda.de/eRezeptAbgabedaten/CodeSystem/DAV-PKV-CS-ERP-AbrechnungsTyp"/><code value="1"/></coding></valueCodeableConcept></extension><extension url="http://fhir.abda.de/eRezeptAbgabedaten/StructureDefinition/DAV-EX-ERP-Abrechnungszeilen"><valueReference><reference value="urn:uuid:321107c7-5d15-438e-9ab6-a2715a040199"/></valueReference></extension><status value="completed"/><medicationCodeableConcept><coding><system value="http://terminology.hl7.org/CodeSystem/data-absent-reason"/><code value="not-applicable"/></coding></medicationCodeableConcept><performer><actor><reference value="urn:uuid:7240b1a8-561d-4e17-a28b-5c990756f4eb"/></actor></performer><authorizingPrescription><identifier><system value="https://gematik.de/fhir/erp/NamingSystem/GEM_ERP_NS_PrescriptionId"/><value value="200.000.000.042.803.90"/></identifier></authorizingPrescription><type><coding><system value="http://fhir.abda.de/eRezeptAbgabedaten/CodeSystem/DAV-CS-ERP-MedicationDispenseTyp"/><code value="Abgabeinformationen"/></coding></type><whenHandedOver value="2023-11-27"/></MedicationDispense></resource></entry></Bundle>