<Bundle xmlns="http://hl7.org/fhir">
   <id value="8cc4cb7b-6e00-451c-9942-8b10476eb055"/>
   <type value="collection"/>
   <timestamp value="2023-11-27T07:40:52.032+00:00"/>
   <entry>
      <fullUrl value="https://erp-test.zentral.erp.splitdns.ti-dienste.de/ChargeItem/200.000.000.042.803.90"/>
      <resource>
         <ChargeItem xmlns="http://hl7.org/fhir">
            <id value="200.000.000.042.803.90"/>
            <meta>
               <profile value="https://gematik.de/fhir/erpchrg/StructureDefinition/GEM_ERPCHRG_PR_ChargeItem|1.0"/>
            </meta>
            <identifier>
               <system value="https://gematik.de/fhir/erp/NamingSystem/GEM_ERP_NS_PrescriptionId"/>
               <value value="200.000.000.042.803.90"/>
            </identifier>
            <status value="billable"/>
            <code>
               <coding>
                  <system value="http://terminology.hl7.org/CodeSystem/data-absent-reason"/>
                  <code value="not-applicable"/>
               </coding>
            </code>
            <subject>
               <identifier>
                  <system value="http://fhir.de/sid/pkv/kvid-10"/>
                  <value value="X110465770"/>
               </identifier>
            </subject>
            <enterer>
               <identifier>
                  <system value="https://gematik.de/fhir/sid/telematik-id"/>
                  <value value="3-SMC-B-Testkarte-883110000116873"/>
               </identifier>
            </enterer>
            <enteredDate value="2023-11-27T07:40:50.675+00:00"/>
            <supportingInformation>
               <reference value="urn:uuid:c833a700-0000-0000-0001-000000000000"/>
               <display value="https://fhir.kbv.de/StructureDefinition/KBV_PR_ERP_Bundle"/>
            </supportingInformation>
            <supportingInformation>
               <reference value="urn:uuid:c833a700-0000-0000-0004-000000000000"/>
               <display value="http://fhir.abda.de/eRezeptAbgabedaten/StructureDefinition/DAV-PKV-PR-ERP-AbgabedatenBundle"/>
            </supportingInformation>
            <supportingInformation>
               <reference value="urn:uuid:c833a700-0000-0000-0003-000000000000"/>
               <display value="https://gematik.de/fhir/erp/StructureDefinition/GEM_ERP_PR_Bundle"/>
            </supportingInformation>
         </ChargeItem>
      </resource>
   </entry>
   <entry>
      <fullUrl value="urn:uuid:c833a700-0000-0000-0001-000000000000"/>
      <resource>
         <Bundle xmlns="http://hl7.org/fhir">
            <id value="eb4d5f5f-d79e-475d-95d6-22a1ac33905e"/>
            <meta>
               <lastUpdated value="2023-11-27T08:40:46.172+01:00"/>
               <profile value="https://fhir.kbv.de/StructureDefinition/KBV_PR_ERP_Bundle|1.1.0"/>
            </meta>
            <identifier>
               <system value="https://gematik.de/fhir/erp/NamingSystem/GEM_ERP_NS_PrescriptionId"/>
               <value value="200.000.000.042.803.90"/>
            </identifier>
            <type value="document"/>
            <timestamp value="2023-11-27T08:40:46.172+01:00"/>
            <entry>
               <fullUrl value="https://pvs.gematik.de/fhir/Composition/6213a69a-d777-436f-9b94-c5989056a835"/>
               <resource>
                  <Composition xmlns="http://hl7.org/fhir">
                     <id value="6213a69a-d777-436f-9b94-c5989056a835"/>
                     <meta>
                        <profile value="https://fhir.kbv.de/StructureDefinition/KBV_PR_ERP_Composition|1.1.0"/>
                     </meta>
                     <extension url="https://fhir.kbv.de/StructureDefinition/KBV_EX_FOR_Legal_basis">
                        <valueCoding>
                           <system value="https://fhir.kbv.de/CodeSystem/KBV_CS_SFHIR_KBV_STATUSKENNZEICHEN"/>
                           <code value="00"/>
                        </valueCoding>
                     </extension>
                     <status value="final"/>
                     <type>
                        <coding>
                           <system value="https://fhir.kbv.de/CodeSystem/KBV_CS_SFHIR_KBV_FORMULAR_ART"/>
                           <code value="e16A"/>
                        </coding>
                     </type>
                     <subject>
                        <reference value="Patient/931ed3c4-ae63-45e4-9255-1780addfff14"/>
                     </subject>
                     <date value="2023-11-27T08:40:46+01:00"/>
                     <author>
                        <reference value="Practitioner/3abb4ad4-b875-4307-9988-b896773592a6"/>
                        <type value="Practitioner"/>
                     </author>
                     <author>
                        <type value="Device"/>
                        <identifier>
                           <system value="https://fhir.kbv.de/NamingSystem/KBV_NS_FOR_Pruefnummer"/>
                           <value value="GEMATIK/410/2109/36/123"/>
                        </identifier>
                     </author>
                     <title value="elektronische Arzneimittelverordnung"/>
                     <custodian>
                        <reference value="Organization/b48e07fe-a789-4238-86da-365497563554"/>
                     </custodian>
                     <section>
                        <code>
                           <coding>
                              <system value="https://fhir.kbv.de/CodeSystem/KBV_CS_ERP_Section_Type"/>
                              <code value="Coverage"/>
                           </coding>
                        </code>
                        <entry>
                           <reference value="Coverage/5013d5b0-8fb2-4bc6-a9ed-bb64ee886737"/>
                        </entry>
                     </section>
                     <section>
                        <code>
                           <coding>
                              <system value="https://fhir.kbv.de/CodeSystem/KBV_CS_ERP_Section_Type"/>
                              <code value="Prescription"/>
                           </coding>
                        </code>
                        <entry>
                           <reference value="MedicationRequest/032df42f-02d5-40d0-ad09-7b4e9e819f7b"/>
                        </entry>
                     </section>
                  </Composition>
               </resource>
            </entry>
            <entry>
               <fullUrl value="https://pvs.gematik.de/fhir/Medication/5419997f-462f-48cd-8859-bfba50428736"/>
               <resource>
                  <Medication xmlns="http://hl7.org/fhir">
                     <id value="5419997f-462f-48cd-8859-bfba50428736"/>
                     <meta>
                        <profile value="https://fhir.kbv.de/StructureDefinition/KBV_PR_ERP_Medication_PZN|1.1.0"/>
                     </meta>
                     <extension url="https://fhir.kbv.de/StructureDefinition/KBV_EX_Base_Medication_Type">
                        <valueCodeableConcept>
                           <coding>
                              <system value="http://snomed.info/sct"/>
                              <version value="http://snomed.info/sct/900000000000207008/version/20220331"/>
                              <code value="763158003"/>
                              <display value="Medicinal product (product)"/>
                           </coding>
                        </valueCodeableConcept>
                     </extension>
                     <extension url="https://fhir.kbv.de/StructureDefinition/KBV_EX_ERP_Medication_Category">
                        <valueCoding>
                           <system value="https://fhir.kbv.de/CodeSystem/KBV_CS_ERP_Medication_Category"/>
                           <code value="00"/>
                        </valueCoding>
                     </extension>
                     <extension url="https://fhir.kbv.de/StructureDefinition/KBV_EX_ERP_Medication_Vaccine">
                        <valueBoolean value="false"/>
                     </extension>
                     <extension url="http://fhir.de/StructureDefinition/normgroesse">
                        <valueCode value="NB"/>
                     </extension>
                     <code>
                        <coding>
                           <system value="http://fhir.de/CodeSystem/ifa/pzn"/>
                           <code value="52871690"/>
                        </coding>
                        <text value="Schmerzmittel"/>
                     </code>
                     <form>
                        <coding>
                           <system value="https://fhir.kbv.de/CodeSystem/KBV_CS_SFHIR_KBV_DARREICHUNGSFORM"/>
                           <code value="TAB"/>
                        </coding>
                     </form>
                     <amount>
                        <numerator>
                           <extension url="https://fhir.kbv.de/StructureDefinition/KBV_EX_ERP_Medication_PackagingSize">
                              <valueString value="1"/>
                           </extension>
                           <unit value="Stk"/>
                        </numerator>
                        <denominator>
                           <value value="1"/>
                        </denominator>
                     </amount>
                  </Medication>
               </resource>
            </entry>
            <entry>
               <fullUrl value="https://pvs.gematik.de/fhir/Patient/931ed3c4-ae63-45e4-9255-1780addfff14"/>
               <resource>
                  <Patient xmlns="http://hl7.org/fhir">
                     <id value="931ed3c4-ae63-45e4-9255-1780addfff14"/>
                     <meta>
                        <profile value="https://fhir.kbv.de/StructureDefinition/KBV_PR_FOR_Patient|1.1.0"/>
                     </meta>
                     <identifier>
                        <type>
                           <coding>
                              <system value="http://fhir.de/CodeSystem/identifier-type-de-basis"/>
                              <code value="PKV"/>
                           </coding>
                        </type>
                        <system value="http://fhir.de/sid/pkv/kvid-10"/>
                        <value value="X110465770"/>
                     </identifier>
                     <name>
                        <use value="official"/>
                        <family value="Angermänn">
                           <extension url="http://hl7.org/fhir/StructureDefinition/humanname-own-name">
                              <valueString value="Angermänn"/>
                           </extension>
                        </family>
                        <given value="Günther"/>
                     </name>
                     <birthDate value="1971-01-23"/>
                     <address>
                        <type value="both"/>
                        <line value="Franz-Esser-Str. 86b">
                           <extension url="http://hl7.org/fhir/StructureDefinition/iso21090-ADXP-houseNumber">
                              <valueString value="86b"/>
                           </extension>
                           <extension url="http://hl7.org/fhir/StructureDefinition/iso21090-ADXP-streetName">
                              <valueString value="Franz-Esser-Str."/>
                           </extension>
                        </line>
                        <city value="Jakobstadt"/>
                        <postalCode value="89653"/>
                        <country value="D"/>
                     </address>
                  </Patient>
               </resource>
            </entry>
            <entry>
               <fullUrl value="https://pvs.gematik.de/fhir/Organization/b48e07fe-a789-4238-86da-365497563554"/>
               <resource>
                  <Organization xmlns="http://hl7.org/fhir">
                     <id value="b48e07fe-a789-4238-86da-365497563554"/>
                     <meta>
                        <profile value="https://fhir.kbv.de/StructureDefinition/KBV_PR_FOR_Organization|1.1.0"/>
                     </meta>
                     <identifier>
                        <type>
                           <coding>
                              <system value="http://terminology.hl7.org/CodeSystem/v2-0203"/>
                              <code value="BSNR"/>
                           </coding>
                        </type>
                        <system value="https://fhir.kbv.de/NamingSystem/KBV_NS_Base_BSNR"/>
                        <value value="476792365"/>
                     </identifier>
                     <name value="Arztpraxis Schraßer"/>
                     <telecom>
                        <system value="phone"/>
                        <value value="(0978) 423450326"/>
                     </telecom>
                     <telecom>
                        <system value="email"/>
                        <value value="eileen.gerdel@huebel.net"/>
                     </telecom>
                     <address>
                        <type value="both"/>
                        <line value="Röttgerweg 07">
                           <extension url="http://hl7.org/fhir/StructureDefinition/iso21090-ADXP-houseNumber">
                              <valueString value="07"/>
                           </extension>
                           <extension url="http://hl7.org/fhir/StructureDefinition/iso21090-ADXP-streetName">
                              <valueString value="Röttgerweg"/>
                           </extension>
                        </line>
                        <city value="Klein Mircohagen"/>
                        <postalCode value="23125"/>
                        <country value="D"/>
                     </address>
                  </Organization>
               </resource>
            </entry>
            <entry>
               <fullUrl value="https://pvs.gematik.de/fhir/Coverage/5013d5b0-8fb2-4bc6-a9ed-bb64ee886737"/>
               <resource>
                  <Coverage xmlns="http://hl7.org/fhir">
                     <id value="5013d5b0-8fb2-4bc6-a9ed-bb64ee886737"/>
                     <meta>
                        <profile value="https://fhir.kbv.de/StructureDefinition/KBV_PR_FOR_Coverage|1.1.0"/>
                     </meta>
                     <extension url="http://fhir.de/StructureDefinition/gkv/besondere-personengruppe">
                        <valueCoding>
                           <system value="https://fhir.kbv.de/CodeSystem/KBV_CS_SFHIR_KBV_PERSONENGRUPPE"/>
                           <code value="00"/>
                        </valueCoding>
                     </extension>
                     <extension url="http://fhir.de/StructureDefinition/gkv/dmp-kennzeichen">
                        <valueCoding>
                           <system value="https://fhir.kbv.de/CodeSystem/KBV_CS_SFHIR_KBV_DMP"/>
                           <code value="00"/>
                        </valueCoding>
                     </extension>
                     <extension url="http://fhir.de/StructureDefinition/gkv/wop">
                        <valueCoding>
                           <system value="https://fhir.kbv.de/CodeSystem/KBV_CS_SFHIR_ITA_WOP"/>
                           <code value="60"/>
                        </valueCoding>
                     </extension>
                     <extension url="http://fhir.de/StructureDefinition/gkv/versichertenart">
                        <valueCoding>
                           <system value="https://fhir.kbv.de/CodeSystem/KBV_CS_SFHIR_KBV_VERSICHERTENSTATUS"/>
                           <code value="1"/>
                        </valueCoding>
                     </extension>
                     <status value="active"/>
                     <type>
                        <coding>
                           <system value="http://fhir.de/CodeSystem/versicherungsart-de-basis"/>
                           <code value="PKV"/>
                        </coding>
                     </type>
                     <beneficiary>
                        <reference value="Patient/cae147e4-6faa-4a8b-a43f-fe0a208d748a"/>
                     </beneficiary>
                     <payor>
                        <identifier>
                           <system value="http://fhir.de/sid/arge-ik/iknr"/>
                           <value value="168140186"/>
                        </identifier>
                        <display value="HanseMerkur"/>
                     </payor>
                  </Coverage>
               </resource>
            </entry>
            <entry>
               <fullUrl value="https://pvs.gematik.de/fhir/Practitioner/3abb4ad4-b875-4307-9988-b896773592a6"/>
               <resource>
                  <Practitioner xmlns="http://hl7.org/fhir">
                     <id value="3abb4ad4-b875-4307-9988-b896773592a6"/>
                     <meta>
                        <profile value="https://fhir.kbv.de/StructureDefinition/KBV_PR_FOR_Practitioner|1.1.0"/>
                     </meta>
                     <identifier>
                        <type>
                           <coding>
                              <system value="http://terminology.hl7.org/CodeSystem/v2-0203"/>
                              <code value="LANR"/>
                           </coding>
                        </type>
                        <system value="https://fhir.kbv.de/NamingSystem/KBV_NS_Base_ANR"/>
                        <value value="894166495"/>
                     </identifier>
                     <name>
                        <use value="official"/>
                        <family value="Schraßer">
                           <extension url="http://hl7.org/fhir/StructureDefinition/humanname-own-name">
                              <valueString value="Schraßer"/>
                           </extension>
                        </family>
                        <given value="Dr."/>
                        <prefix value="Dr.">
                           <extension url="http://hl7.org/fhir/StructureDefinition/iso21090-EN-qualifier">
                              <valueCode value="AC"/>
                           </extension>
                        </prefix>
                     </name>
                     <qualification>
                        <code>
                           <coding>
                              <system value="https://fhir.kbv.de/CodeSystem/KBV_CS_FOR_Qualification_Type"/>
                              <code value="00"/>
                           </coding>
                        </code>
                     </qualification>
                     <qualification>
                        <code>
                           <coding>
                              <system value="https://fhir.kbv.de/CodeSystem/KBV_CS_FOR_Berufsbezeichnung"/>
                              <code value="Berufsbezeichnung"/>
                           </coding>
                           <text value="Super-Facharzt für alles Mögliche"/>
                        </code>
                     </qualification>
                  </Practitioner>
               </resource>
            </entry>
            <entry>
               <fullUrl value="https://pvs.gematik.de/fhir/MedicationRequest/032df42f-02d5-40d0-ad09-7b4e9e819f7b"/>
               <resource>
                  <MedicationRequest xmlns="http://hl7.org/fhir">
                     <id value="032df42f-02d5-40d0-ad09-7b4e9e819f7b"/>
                     <meta>
                        <profile value="https://fhir.kbv.de/StructureDefinition/KBV_PR_ERP_Prescription|1.1.0"/>
                     </meta>
                     <extension url="https://fhir.kbv.de/StructureDefinition/KBV_EX_ERP_BVG">
                        <valueBoolean value="false"/>
                     </extension>
                     <extension url="https://fhir.kbv.de/StructureDefinition/KBV_EX_ERP_EmergencyServicesFee">
                        <valueBoolean value="false"/>
                     </extension>
                     <extension url="https://fhir.kbv.de/StructureDefinition/KBV_EX_ERP_Multiple_Prescription">
                        <extension url="Kennzeichen">
                           <valueBoolean value="false"/>
                        </extension>
                     </extension>
                     <extension url="https://fhir.kbv.de/StructureDefinition/KBV_EX_FOR_StatusCoPayment">
                        <valueCoding>
                           <system value="https://fhir.kbv.de/CodeSystem/KBV_CS_FOR_StatusCoPayment"/>
                           <code value="1"/>
                        </valueCoding>
                     </extension>
                     <status value="active"/>
                     <intent value="order"/>
                     <medicationReference>
                        <reference value="Medication/5419997f-462f-48cd-8859-bfba50428736"/>
                     </medicationReference>
                     <subject>
                        <reference value="Patient/931ed3c4-ae63-45e4-9255-1780addfff14"/>
                     </subject>
                     <authoredOn value="2023-11-27"/>
                     <requester>
                        <reference value="Practitioner/3abb4ad4-b875-4307-9988-b896773592a6"/>
                     </requester>
                     <insurance>
                        <reference value="Coverage/5013d5b0-8fb2-4bc6-a9ed-bb64ee886737"/>
                     </insurance>
                     <dosageInstruction>
                        <extension url="https://fhir.kbv.de/StructureDefinition/KBV_EX_ERP_DosageFlag">
                           <valueBoolean value="true"/>
                        </extension>
                        <text value="3-2-1-1-0-1"/>
                     </dosageInstruction>
                     <dispenseRequest>
                        <quantity>
                           <value value="1"/>
                           <system value="http://unitsofmeasure.org"/>
                           <code value="{Package}"/>
                        </quantity>
                     </dispenseRequest>
                     <substitution>
                        <allowedBoolean value="false"/>
                     </substitution>
                  </MedicationRequest>
               </resource>
            </entry>
            <signature>
               <type>
                  <system value="urn:iso-astm:E1762-95:2013"/>
                  <code value="1.2.840.10065.1.12.1.1"/>
               </type>
               <when value="2023-11-27T07:40:46.000+00:00"/>
               <who>
                  <display value="Arzt"/>
               </who>
               <sigFormat value="application/pkcs7-mime"/>
               <data value=""/>
            </signature>
         </Bundle>
      </resource>
   </entry>
   <entry>
      <fullUrl value="urn:uuid:c833a700-0000-0000-0004-000000000000"/>
      <resource>
         <Bundle xmlns="http://hl7.org/fhir">
            <id value="e0fda188-caf2-45cf-a8ea-1aacb1b489d1"/>
            <meta>
               <lastUpdated value="2023-11-27T08:40:49.058+01:00"/>
               <profile value="http://fhir.abda.de/eRezeptAbgabedaten/StructureDefinition/DAV-PKV-PR-ERP-AbgabedatenBundle|1.2"/>
            </meta>
            <identifier>
               <system value="https://gematik.de/fhir/erp/NamingSystem/GEM_ERP_NS_PrescriptionId"/>
               <value value="200.000.000.042.803.90"/>
            </identifier>
            <type value="document"/>
            <timestamp value="2023-11-27T08:40:49.058+01:00"/>
            <entry>
               <fullUrl value="urn:uuid:e8d77807-fd6b-41f3-9b15-d7bea5d56421"/>
               <resource>
                  <Composition xmlns="http://hl7.org/fhir">
                     <meta>
                        <profile value="http://fhir.abda.de/eRezeptAbgabedaten/StructureDefinition/DAV-PKV-PR-ERP-AbgabedatenComposition|1.2"/>
                     </meta>
                     <status value="final"/>
                     <type>
                        <coding>
                           <system value="http://fhir.abda.de/eRezeptAbgabedaten/CodeSystem/DAV-CS-ERP-CompositionTypes"/>
                           <code value="ERezeptAbgabedaten"/>
                        </coding>
                     </type>
                     <date value="2023-11-27T08:40:49+01:00"/>
                     <author>
                        <reference value="urn:uuid:7240b1a8-561d-4e17-a28b-5c990756f4eb"/>
                     </author>
                     <title value="ERezeptAbgabedaten"/>
                     <section>
                        <title value="Apotheke"/>
                        <entry>
                           <reference value="urn:uuid:7240b1a8-561d-4e17-a28b-5c990756f4eb"/>
                        </entry>
                     </section>
                     <section>
                        <title value="Abgabeinformationen"/>
                        <entry>
                           <reference value="urn:uuid:85cd6dd1-f994-43dc-aab0-561ae3202f43"/>
                        </entry>
                     </section>
                  </Composition>
               </resource>
            </entry>
            <entry>
               <fullUrl value="urn:uuid:7240b1a8-561d-4e17-a28b-5c990756f4eb"/>
               <resource>
                  <Organization xmlns="http://hl7.org/fhir">
                     <meta>
                        <profile value="http://fhir.abda.de/eRezeptAbgabedaten/StructureDefinition/DAV-PKV-PR-ERP-Apotheke|1.2"/>
                     </meta>
                     <identifier>
                        <system value="http://fhir.de/sid/arge-ik/iknr"/>
                        <value value="087478263"/>
                     </identifier>
                     <name value="Apotheke Mabel Syrup"/>
                     <address>
                        <type value="physical"/>
                        <line value="Knochenbergsweg 69b">
                           <extension url="http://hl7.org/fhir/StructureDefinition/iso21090-ADXP-houseNumber">
                              <valueString value="69b"/>
                           </extension>
                           <extension url="http://hl7.org/fhir/StructureDefinition/iso21090-ADXP-streetName">
                              <valueString value="Knochenbergsweg"/>
                           </extension>
                        </line>
                        <city value="Süd Elia"/>
                        <postalCode value="16754"/>
                        <country value="D"/>
                     </address>
                  </Organization>
               </resource>
            </entry>
            <entry>
               <fullUrl value="urn:uuid:321107c7-5d15-438e-9ab6-a2715a040199"/>
               <resource>
                  <Invoice xmlns="http://hl7.org/fhir">
                     <meta>
                        <profile value="http://fhir.abda.de/eRezeptAbgabedaten/StructureDefinition/DAV-PKV-PR-ERP-Abrechnungszeilen|1.2"/>
                     </meta>
                     <status value="issued"/>
                     <type>
                        <coding>
                           <system value="http://fhir.abda.de/eRezeptAbgabedaten/CodeSystem/DAV-CS-ERP-InvoiceTyp"/>
                           <code value="Abrechnungszeilen"/>
                        </coding>
                     </type>
                     <lineItem>
                        <sequence value="1"/>
                        <chargeItemCodeableConcept>
                           <coding>
                              <system value="http://fhir.de/CodeSystem/ifa/pzn"/>
                              <code value="01230943"/>
                           </coding>
                           <text value="Hemamipa"/>
                        </chargeItemCodeableConcept>
                        <priceComponent>
                           <extension url="http://fhir.abda.de/eRezeptAbgabedaten/StructureDefinition/DAV-EX-ERP-KostenVersicherter">
                              <extension url="Kategorie">
                                 <valueCodeableConcept>
                                    <coding>
                                       <system value="http://fhir.abda.de/eRezeptAbgabedaten/CodeSystem/DAV-PKV-CS-ERP-KostenVersicherterKategorie"/>
                                       <code value="0"/>
                                    </coding>
                                 </valueCodeableConcept>
                              </extension>
                              <extension url="Kostenbetrag">
                                 <valueMoney>
                                    <value value="427.05"/>
                                    <currency value="EUR"/>
                                 </valueMoney>
                              </extension>
                           </extension>
                           <extension url="http://fhir.abda.de/eRezeptAbgabedaten/StructureDefinition/DAV-EX-ERP-MwStSatz">
                              <valueDecimal value="27.62"/>
                           </extension>
                           <type value="informational"/>
                           <factor value="1"/>
                           <amount>
                              <value value="1714.58"/>
                              <currency value="EUR"/>
                           </amount>
                        </priceComponent>
                     </lineItem>
                     <lineItem>
                        <sequence value="2"/>
                        <chargeItemCodeableConcept>
                           <coding>
                              <system value="http://fhir.de/CodeSystem/ifa/pzn"/>
                              <code value="77968781"/>
                           </coding>
                           <text value="Fomvomilsäure"/>
                        </chargeItemCodeableConcept>
                        <priceComponent>
                           <extension url="http://fhir.abda.de/eRezeptAbgabedaten/StructureDefinition/DAV-EX-ERP-KostenVersicherter">
                              <extension url="Kategorie">
                                 <valueCodeableConcept>
                                    <coding>
                                       <system value="http://fhir.abda.de/eRezeptAbgabedaten/CodeSystem/DAV-PKV-CS-ERP-KostenVersicherterKategorie"/>
                                       <code value="0"/>
                                    </coding>
                                 </valueCodeableConcept>
                              </extension>
                              <extension url="Kostenbetrag">
                                 <valueMoney>
                                    <value value="97.67"/>
                                    <currency value="EUR"/>
                                 </valueMoney>
                              </extension>
                           </extension>
                           <extension url="http://fhir.abda.de/eRezeptAbgabedaten/StructureDefinition/DAV-EX-ERP-MwStSatz">
                              <valueDecimal value="27.62"/>
                           </extension>
                           <type value="informational"/>
                           <factor value="1"/>
                           <amount>
                              <value value="148.03"/>
                              <currency value="EUR"/>
                           </amount>
                        </priceComponent>
                     </lineItem>
                     <totalGross>
                        <extension url="http://fhir.abda.de/eRezeptAbgabedaten/StructureDefinition/DAV-EX-ERP-Gesamtzuzahlung">
                           <valueMoney>
                              <value value="524.72"/>
                              <currency value="EUR"/>
                           </valueMoney>
                        </extension>
                        <value value="1862.61"/>
                        <currency value="EUR"/>
                     </totalGross>
                  </Invoice>
               </resource>
            </entry>
            <entry>
               <fullUrl value="urn:uuid:85cd6dd1-f994-43dc-aab0-561ae3202f43"/>
               <resource>
                  <MedicationDispense xmlns="http://hl7.org/fhir">
                     <meta>
                        <profile value="http://fhir.abda.de/eRezeptAbgabedaten/StructureDefinition/DAV-PKV-PR-ERP-Abgabeinformationen|1.2"/>
                     </meta>
                     <extension url="http://fhir.abda.de/eRezeptAbgabedaten/StructureDefinition/DAV-PKV-EX-ERP-AbrechnungsTyp">
                        <valueCodeableConcept>
                           <coding>
                              <system value="http://fhir.abda.de/eRezeptAbgabedaten/CodeSystem/DAV-PKV-CS-ERP-AbrechnungsTyp"/>
                              <code value="1"/>
                           </coding>
                        </valueCodeableConcept>
                     </extension>
                     <extension url="http://fhir.abda.de/eRezeptAbgabedaten/StructureDefinition/DAV-EX-ERP-Abrechnungszeilen">
                        <valueReference>
                           <reference value="urn:uuid:321107c7-5d15-438e-9ab6-a2715a040199"/>
                        </valueReference>
                     </extension>
                     <status value="completed"/>
                     <medicationCodeableConcept>
                        <coding>
                           <system value="http://terminology.hl7.org/CodeSystem/data-absent-reason"/>
                           <code value="not-applicable"/>
                        </coding>
                     </medicationCodeableConcept>
                     <performer>
                        <actor>
                           <reference value="urn:uuid:7240b1a8-561d-4e17-a28b-5c990756f4eb"/>
                        </actor>
                     </performer>
                     <authorizingPrescription>
                        <identifier>
                           <system value="https://gematik.de/fhir/erp/NamingSystem/GEM_ERP_NS_PrescriptionId"/>
                           <value value="200.000.000.042.803.90"/>
                        </identifier>
                     </authorizingPrescription>
                     <type>
                        <coding>
                           <system value="http://fhir.abda.de/eRezeptAbgabedaten/CodeSystem/DAV-CS-ERP-MedicationDispenseTyp"/>
                           <code value="Abgabeinformationen"/>
                        </coding>
                     </type>
                     <whenHandedOver value="2023-11-27"/>
                  </MedicationDispense>
               </resource>
            </entry>
            <signature>
               <type>
                  <system value="urn:iso-astm:E1762-95:2013"/>
                  <code value="1.2.840.10065.1.12.1.1"/>
               </type>
               <when value="2023-11-27T07:40:50.000+00:00"/>
               <who>
                  <display value="Apotheke"/>
               </who>
               <sigFormat value="application/pkcs7-mime"/>
               <data value=""/>
            </signature>
         </Bundle>
      </resource>
   </entry>
</Bundle>