<Bundle xmlns="http://hl7.org/fhir">
   <id value="c7cd64a9-3f44-4288-8060-61e72300ad7b"/>
   <type value="collection"/>
   <timestamp value="2023-04-18T06:42:59.457+00:00"/>
   <entry>
      <fullUrl value="https://erp-dev.zentral.erp.splitdns.ti-dienste.de/ChargeItem/200.000.001.943.765.28"/>
      <resource>
         <ChargeItem xmlns="http://hl7.org/fhir">
            <id value="200.000.001.943.765.28"/>
            <meta>
               <profile value="https://gematik.de/fhir/erpchrg/StructureDefinition/GEM_ERPCHRG_PR_ChargeItem|1.0"/>
            </meta>
            <identifier>
               <system value="https://gematik.de/fhir/erp/NamingSystem/GEM_ERP_NS_PrescriptionId"/>
               <value value="200.000.001.943.765.28"/>
            </identifier>
            <status value="billable"/>
            <code>
               <coding>
                  <system value="http://terminology.hl7.org/CodeSystem/data-absent-reason"/>
                  <code value="not-applicable"/>
               </coding>
            </code>
            <subject>
               <identifier>
                  <system value="http://fhir.de/sid/pkv/kvid-10"/>
                  <value value="X110465770"/>
               </identifier>
            </subject>
            <enterer>
               <identifier>
                  <system value="https://gematik.de/fhir/sid/telematik-id"/>
                  <value value="3-SMC-B-Testkarte-883110000116873"/>
               </identifier>
            </enterer>
            <enteredDate value="2023-04-18T06:42:56.120+00:00"/>
            <supportingInformation>
               <reference value="urn:uuid:c8d5a81d-0000-0000-0001-000000000000"/>
               <display value="https://fhir.kbv.de/StructureDefinition/KBV_PR_ERP_Bundle"/>
            </supportingInformation>
            <supportingInformation>
               <reference value="urn:uuid:c8d5a81d-0000-0000-0004-000000000000"/>
               <display value="http://fhir.abda.de/eRezeptAbgabedaten/StructureDefinition/DAV-PKV-PR-ERP-AbgabedatenBundle"/>
            </supportingInformation>
            <supportingInformation>
               <reference value="urn:uuid:c8d5a81d-0000-0000-0003-000000000000"/>
               <display value="https://gematik.de/fhir/erp/StructureDefinition/GEM_ERP_PR_Bundle"/>
            </supportingInformation>
         </ChargeItem>
      </resource>
   </entry>
   <entry>
      <fullUrl value="urn:uuid:c8d5a81d-0000-0000-0001-000000000000"/>
      <resource>
         <Bundle xmlns="http://hl7.org/fhir">
            <id value="34ec019d-addb-452e-8668-5c2489cbaf16"/>
            <meta>
               <lastUpdated value="2023-04-18T08:42:50.410+02:00"/>
               <profile value="https://fhir.kbv.de/StructureDefinition/KBV_PR_ERP_Bundle|1.1.0"/>
            </meta>
            <identifier>
               <system value="https://gematik.de/fhir/erp/NamingSystem/GEM_ERP_NS_PrescriptionId"/>
               <value value="200.000.001.943.765.28"/>
            </identifier>
            <type value="document"/>
            <timestamp value="2023-04-18T08:42:50.410+02:00"/>
            <entry>
               <fullUrl value="https://pvs.gematik.de/fhir/Composition/e79fc5f3-f11d-4754-9c46-bb359b6de5ba"/>
               <resource>
                  <Composition xmlns="http://hl7.org/fhir">
                     <id value="e79fc5f3-f11d-4754-9c46-bb359b6de5ba"/>
                     <meta>
                        <profile value="https://fhir.kbv.de/StructureDefinition/KBV_PR_ERP_Composition|1.1.0"/>
                     </meta>
                     <extension url="https://fhir.kbv.de/StructureDefinition/KBV_EX_FOR_Legal_basis">
                        <valueCoding>
                           <system value="https://fhir.kbv.de/CodeSystem/KBV_CS_SFHIR_KBV_STATUSKENNZEICHEN"/>
                           <code value="00"/>
                        </valueCoding>
                     </extension>
                     <status value="final"/>
                     <type>
                        <coding>
                           <system value="https://fhir.kbv.de/CodeSystem/KBV_CS_SFHIR_KBV_FORMULAR_ART"/>
                           <code value="e16A"/>
                        </coding>
                     </type>
                     <subject>
                        <reference value="Patient/85d2e428-75c1-45c6-96d5-5a94620704a6"/>
                     </subject>
                     <date value="2023-04-18T08:42:50+02:00"/>
                     <author>
                        <reference value="Practitioner/4bfacdd2-ef06-4446-959e-b97e306b7255"/>
                        <type value="Practitioner"/>
                     </author>
                     <author>
                        <type value="Device"/>
                        <identifier>
                           <system value="https://fhir.kbv.de/NamingSystem/KBV_NS_FOR_Pruefnummer"/>
                           <value value="GEMATIK/410/2109/36/123"/>
                        </identifier>
                     </author>
                     <title value="elektronische Arzneimittelverordnung"/>
                     <custodian>
                        <reference value="Organization/235e32d5-d984-4aa0-ab96-777a65b6a9d7"/>
                     </custodian>
                     <section>
                        <code>
                           <coding>
                              <system value="https://fhir.kbv.de/CodeSystem/KBV_CS_ERP_Section_Type"/>
                              <code value="Coverage"/>
                           </coding>
                        </code>
                        <entry>
                           <reference value="Coverage/bbe9c8a6-a6ce-4721-b07d-7e32ddd27735"/>
                        </entry>
                     </section>
                     <section>
                        <code>
                           <coding>
                              <system value="https://fhir.kbv.de/CodeSystem/KBV_CS_ERP_Section_Type"/>
                              <code value="Prescription"/>
                           </coding>
                        </code>
                        <entry>
                           <reference value="MedicationRequest/d3a65df5-87d9-4a4b-a8ef-a762e82012b6"/>
                        </entry>
                     </section>
                  </Composition>
               </resource>
            </entry>
            <entry>
               <fullUrl value="https://pvs.gematik.de/fhir/MedicationRequest/d3a65df5-87d9-4a4b-a8ef-a762e82012b6"/>
               <resource>
                  <MedicationRequest xmlns="http://hl7.org/fhir">
                     <id value="d3a65df5-87d9-4a4b-a8ef-a762e82012b6"/>
                     <meta>
                        <profile value="https://fhir.kbv.de/StructureDefinition/KBV_PR_ERP_Prescription|1.1.0"/>
                     </meta>
                     <extension url="https://fhir.kbv.de/StructureDefinition/KBV_EX_ERP_BVG">
                        <valueBoolean value="false"/>
                     </extension>
                     <extension url="https://fhir.kbv.de/StructureDefinition/KBV_EX_ERP_EmergencyServicesFee">
                        <valueBoolean value="false"/>
                     </extension>
                     <extension url="https://fhir.kbv.de/StructureDefinition/KBV_EX_ERP_Multiple_Prescription">
                        <extension url="Kennzeichen">
                           <valueBoolean value="false"/>
                        </extension>
                     </extension>
                     <extension url="https://fhir.kbv.de/StructureDefinition/KBV_EX_FOR_StatusCoPayment">
                        <valueCoding>
                           <system value="https://fhir.kbv.de/CodeSystem/KBV_CS_FOR_StatusCoPayment"/>
                           <code value="0"/>
                        </valueCoding>
                     </extension>
                     <status value="active"/>
                     <intent value="order"/>
                     <medicationReference>
                        <reference value="Medication/05367de4-a8e2-46f5-ba41-5fd021a908fc"/>
                     </medicationReference>
                     <subject>
                        <reference value="Patient/85d2e428-75c1-45c6-96d5-5a94620704a6"/>
                     </subject>
                     <authoredOn value="2023-04-18"/>
                     <requester>
                        <reference value="Practitioner/4bfacdd2-ef06-4446-959e-b97e306b7255"/>
                     </requester>
                     <insurance>
                        <reference value="Coverage/bbe9c8a6-a6ce-4721-b07d-7e32ddd27735"/>
                     </insurance>
                     <dosageInstruction>
                        <extension url="https://fhir.kbv.de/StructureDefinition/KBV_EX_ERP_DosageFlag">
                           <valueBoolean value="true"/>
                        </extension>
                        <text value="1-0-0-0"/>
                     </dosageInstruction>
                     <dispenseRequest>
                        <quantity>
                           <value value="1"/>
                           <system value="http://unitsofmeasure.org"/>
                           <code value="{Package}"/>
                        </quantity>
                     </dispenseRequest>
                     <substitution>
                        <allowedBoolean value="true"/>
                     </substitution>
                  </MedicationRequest>
               </resource>
            </entry>
            <entry>
               <fullUrl value="https://pvs.gematik.de/fhir/Medication/05367de4-a8e2-46f5-ba41-5fd021a908fc"/>
               <resource>
                  <Medication xmlns="http://hl7.org/fhir">
                     <id value="05367de4-a8e2-46f5-ba41-5fd021a908fc"/>
                     <meta>
                        <profile value="https://fhir.kbv.de/StructureDefinition/KBV_PR_ERP_Medication_PZN|1.1.0"/>
                     </meta>
                     <extension url="https://fhir.kbv.de/StructureDefinition/KBV_EX_Base_Medication_Type">
                        <valueCodeableConcept>
                           <coding>
                              <system value="http://snomed.info/sct"/>
                              <version value="http://snomed.info/sct/900000000000207008/version/20220331"/>
                              <code value="763158003"/>
                              <display value="Medicinal product (product)"/>
                           </coding>
                        </valueCodeableConcept>
                     </extension>
                     <extension url="https://fhir.kbv.de/StructureDefinition/KBV_EX_ERP_Medication_Category">
                        <valueCoding>
                           <system value="https://fhir.kbv.de/CodeSystem/KBV_CS_ERP_Medication_Category"/>
                           <code value="00"/>
                        </valueCoding>
                     </extension>
                     <extension url="https://fhir.kbv.de/StructureDefinition/KBV_EX_ERP_Medication_Vaccine">
                        <valueBoolean value="false"/>
                     </extension>
                     <extension url="http://fhir.de/StructureDefinition/normgroesse">
                        <valueCode value="NB"/>
                     </extension>
                     <code>
                        <coding>
                           <system value="http://fhir.de/CodeSystem/ifa/pzn"/>
                           <code value="81410319"/>
                        </coding>
                        <text value="Schmerzmittel"/>
                     </code>
                     <form>
                        <coding>
                           <system value="https://fhir.kbv.de/CodeSystem/KBV_CS_SFHIR_KBV_DARREICHUNGSFORM"/>
                           <code value="TAB"/>
                        </coding>
                     </form>
                     <amount>
                        <numerator>
                           <extension url="https://fhir.kbv.de/StructureDefinition/KBV_EX_ERP_Medication_PackagingSize">
                              <valueString value="1"/>
                           </extension>
                           <unit value="Stk"/>
                        </numerator>
                        <denominator>
                           <value value="1"/>
                        </denominator>
                     </amount>
                  </Medication>
               </resource>
            </entry>
            <entry>
               <fullUrl value="https://pvs.gematik.de/fhir/Patient/85d2e428-75c1-45c6-96d5-5a94620704a6"/>
               <resource>
                  <Patient xmlns="http://hl7.org/fhir">
                     <id value="85d2e428-75c1-45c6-96d5-5a94620704a6"/>
                     <meta>
                        <profile value="https://fhir.kbv.de/StructureDefinition/KBV_PR_FOR_Patient|1.1.0"/>
                     </meta>
                     <identifier>
                        <type>
                           <coding>
                              <system value="http://fhir.de/CodeSystem/identifier-type-de-basis"/>
                              <code value="PKV"/>
                           </coding>
                        </type>
                        <system value="http://fhir.de/sid/pkv/kvid-10"/>
                        <value value="X110465770"/>
                     </identifier>
                     <name>
                        <use value="official"/>
                        <family value="Angermänn">
                           <extension url="http://hl7.org/fhir/StructureDefinition/humanname-own-name">
                              <valueString value="Angermänn"/>
                           </extension>
                        </family>
                        <given value="Günther"/>
                     </name>
                     <birthDate value="1981-11-14"/>
                     <address>
                        <type value="both"/>
                        <line value="Stettiner Str. 164">
                           <extension url="http://hl7.org/fhir/StructureDefinition/iso21090-ADXP-houseNumber">
                              <valueString value="164"/>
                           </extension>
                           <extension url="http://hl7.org/fhir/StructureDefinition/iso21090-ADXP-streetName">
                              <valueString value="Stettiner Str."/>
                           </extension>
                        </line>
                        <city value="Schön Larsscheid"/>
                        <postalCode value="13635"/>
                        <country value="D"/>
                     </address>
                  </Patient>
               </resource>
            </entry>
            <entry>
               <fullUrl value="https://pvs.gematik.de/fhir/Organization/235e32d5-d984-4aa0-ab96-777a65b6a9d7"/>
               <resource>
                  <Organization xmlns="http://hl7.org/fhir">
                     <id value="235e32d5-d984-4aa0-ab96-777a65b6a9d7"/>
                     <meta>
                        <profile value="https://fhir.kbv.de/StructureDefinition/KBV_PR_FOR_Organization|1.1.0"/>
                     </meta>
                     <identifier>
                        <type>
                           <coding>
                              <system value="http://terminology.hl7.org/CodeSystem/v2-0203"/>
                              <code value="BSNR"/>
                           </coding>
                        </type>
                        <system value="https://fhir.kbv.de/NamingSystem/KBV_NS_Base_BSNR"/>
                        <value value="555449465"/>
                     </identifier>
                     <name value="Arztpraxis Schraßer"/>
                     <telecom>
                        <system value="phone"/>
                        <value value="(0829) 237777791"/>
                     </telecom>
                     <telecom>
                        <system value="email"/>
                        <value value="marika.sack@xn--bnisch-wxa.ch"/>
                     </telecom>
                     <address>
                        <type value="both"/>
                        <line value="Friedrich-Bergius-Platz 23a">
                           <extension url="http://hl7.org/fhir/StructureDefinition/iso21090-ADXP-houseNumber">
                              <valueString value="23a"/>
                           </extension>
                           <extension url="http://hl7.org/fhir/StructureDefinition/iso21090-ADXP-streetName">
                              <valueString value="Friedrich-Bergius-Platz"/>
                           </extension>
                        </line>
                        <city value="Neu Finja"/>
                        <postalCode value="83866"/>
                        <country value="D"/>
                     </address>
                  </Organization>
               </resource>
            </entry>
            <entry>
               <fullUrl value="https://pvs.gematik.de/fhir/Coverage/bbe9c8a6-a6ce-4721-b07d-7e32ddd27735"/>
               <resource>
                  <Coverage xmlns="http://hl7.org/fhir">
                     <id value="bbe9c8a6-a6ce-4721-b07d-7e32ddd27735"/>
                     <meta>
                        <profile value="https://fhir.kbv.de/StructureDefinition/KBV_PR_FOR_Coverage|1.1.0"/>
                     </meta>
                     <extension url="http://fhir.de/StructureDefinition/gkv/besondere-personengruppe">
                        <valueCoding>
                           <system value="https://fhir.kbv.de/CodeSystem/KBV_CS_SFHIR_KBV_PERSONENGRUPPE"/>
                           <code value="00"/>
                        </valueCoding>
                     </extension>
                     <extension url="http://fhir.de/StructureDefinition/gkv/dmp-kennzeichen">
                        <valueCoding>
                           <system value="https://fhir.kbv.de/CodeSystem/KBV_CS_SFHIR_KBV_DMP"/>
                           <code value="00"/>
                        </valueCoding>
                     </extension>
                     <extension url="http://fhir.de/StructureDefinition/gkv/wop">
                        <valueCoding>
                           <system value="https://fhir.kbv.de/CodeSystem/KBV_CS_SFHIR_ITA_WOP"/>
                           <code value="71"/>
                        </valueCoding>
                     </extension>
                     <extension url="http://fhir.de/StructureDefinition/gkv/versichertenart">
                        <valueCoding>
                           <system value="https://fhir.kbv.de/CodeSystem/KBV_CS_SFHIR_KBV_VERSICHERTENSTATUS"/>
                           <code value="1"/>
                        </valueCoding>
                     </extension>
                     <status value="active"/>
                     <type>
                        <coding>
                           <system value="http://fhir.de/CodeSystem/versicherungsart-de-basis"/>
                           <code value="PKV"/>
                        </coding>
                     </type>
                     <beneficiary>
                        <reference value="Patient/5ff8ce3c-b118-4971-b497-aafce4194144"/>
                     </beneficiary>
                     <payor>
                        <identifier>
                           <system value="http://fhir.de/sid/arge-ik/iknr"/>
                           <value value="548431489"/>
                        </identifier>
                        <display value="Farmer Saarland"/>
                     </payor>
                  </Coverage>
               </resource>
            </entry>
            <entry>
               <fullUrl value="https://pvs.gematik.de/fhir/Practitioner/4bfacdd2-ef06-4446-959e-b97e306b7255"/>
               <resource>
                  <Practitioner xmlns="http://hl7.org/fhir">
                     <id value="4bfacdd2-ef06-4446-959e-b97e306b7255"/>
                     <meta>
                        <profile value="https://fhir.kbv.de/StructureDefinition/KBV_PR_FOR_Practitioner|1.1.0"/>
                     </meta>
                     <identifier>
                        <type>
                           <coding>
                              <system value="http://terminology.hl7.org/CodeSystem/v2-0203"/>
                              <code value="LANR"/>
                           </coding>
                        </type>
                        <system value="https://fhir.kbv.de/NamingSystem/KBV_NS_Base_ANR"/>
                        <value value="309807763"/>
                     </identifier>
                     <name>
                        <use value="official"/>
                        <family value="Schraßer">
                           <extension url="http://hl7.org/fhir/StructureDefinition/humanname-own-name">
                              <valueString value="Schraßer"/>
                           </extension>
                        </family>
                        <given value="Dr."/>
                        <prefix value="Dr.">
                           <extension url="http://hl7.org/fhir/StructureDefinition/iso21090-EN-qualifier">
                              <valueCode value="AC"/>
                           </extension>
                        </prefix>
                     </name>
                     <qualification>
                        <code>
                           <coding>
                              <system value="https://fhir.kbv.de/CodeSystem/KBV_CS_FOR_Qualification_Type"/>
                              <code value="00"/>
                           </coding>
                        </code>
                     </qualification>
                     <qualification>
                        <code>
                           <coding>
                              <system value="https://fhir.kbv.de/CodeSystem/KBV_CS_FOR_Berufsbezeichnung"/>
                              <code value="Berufsbezeichnung"/>
                           </coding>
                           <text value="Super-Facharzt für alles Mögliche"/>
                        </code>
                     </qualification>
                  </Practitioner>
               </resource>
            </entry>
            <signature>
               <type>
                  <system value="urn:iso-astm:E1762-95:2013"/>
                  <code value="1.2.840.10065.1.12.1.1"/>
               </type>
               <when value="2023-04-18T06:42:50.000+00:00"/>
               <who>
                  <display value="Arzt"/>
               </who>
               <sigFormat value="application/pkcs7-mime"/>
               <data value=""/>
            </signature>
         </Bundle>
      </resource>
   </entry>
   <entry>
      <fullUrl value="urn:uuid:c8d5a81d-0000-0000-0004-000000000000"/>
      <resource>
         <Bundle xmlns="http://hl7.org/fhir">
            <id value="3f92c6e5-7ffd-4ab7-86b1-4129dee731d3"/>
            <meta>
               <lastUpdated value="2023-04-18T08:42:53.619+02:00"/>
               <profile value="http://fhir.abda.de/eRezeptAbgabedaten/StructureDefinition/DAV-PKV-PR-ERP-AbgabedatenBundle|1.1"/>
            </meta>
            <identifier>
               <system value="https://gematik.de/fhir/erp/NamingSystem/GEM_ERP_NS_PrescriptionId"/>
               <value value="200.000.001.943.765.28"/>
            </identifier>
            <type value="document"/>
            <timestamp value="2023-04-18T08:42:53.619+02:00"/>
            <entry>
               <fullUrl value="urn:uuid:901b13ff-69b7-47c9-a812-cc591111832b"/>
               <resource>
                  <Composition xmlns="http://hl7.org/fhir">
                     <meta>
                        <profile value="http://fhir.abda.de/eRezeptAbgabedaten/StructureDefinition/DAV-PKV-PR-ERP-AbgabedatenComposition|1.1"/>
                     </meta>
                     <status value="final"/>
                     <type>
                        <coding>
                           <system value="http://fhir.abda.de/eRezeptAbgabedaten/CodeSystem/DAV-CS-ERP-CompositionTypes"/>
                           <code value="ERezeptAbgabedaten"/>
                        </coding>
                     </type>
                     <date value="2023-04-18T08:42:53+02:00"/>
                     <author>
                        <reference value="urn:uuid:dbe37607-b983-4e7f-a46d-2cc46b70cc2c"/>
                     </author>
                     <title value="ERezeptAbgabedaten"/>
                     <section>
                        <title value="Apotheke"/>
                        <entry>
                           <reference value="urn:uuid:dbe37607-b983-4e7f-a46d-2cc46b70cc2c"/>
                        </entry>
                     </section>
                     <section>
                        <title value="Abgabeinformationen"/>
                        <entry>
                           <reference value="urn:uuid:03a47e06-df33-4b46-9ada-079333bca885"/>
                        </entry>
                     </section>
                  </Composition>
               </resource>
            </entry>
            <entry>
               <fullUrl value="urn:uuid:dbe37607-b983-4e7f-a46d-2cc46b70cc2c"/>
               <resource>
                  <Organization xmlns="http://hl7.org/fhir">
                     <meta>
                        <profile value="http://fhir.abda.de/eRezeptAbgabedaten/StructureDefinition/DAV-PKV-PR-ERP-Apotheke|1.1"/>
                     </meta>
                     <identifier>
                        <system value="http://fhir.de/sid/arge-ik/iknr"/>
                        <value value="231161518"/>
                     </identifier>
                     <name value="Apotheke Kim Payne Slogan"/>
                     <address>
                        <type value="physical"/>
                        <line value="Albertus-Magnus-Str. 85c">
                           <extension url="http://hl7.org/fhir/StructureDefinition/iso21090-ADXP-houseNumber">
                              <valueString value="85c"/>
                           </extension>
                           <extension url="http://hl7.org/fhir/StructureDefinition/iso21090-ADXP-streetName">
                              <valueString value="Albertus-Magnus-Str."/>
                           </extension>
                        </line>
                        <city value="Alt Dinaheim"/>
                        <postalCode value="46541"/>
                        <country value="D"/>
                     </address>
                  </Organization>
               </resource>
            </entry>
            <entry>
               <fullUrl value="urn:uuid:9ceea45b-1fa5-4f1f-9165-3b847ad89233"/>
               <resource>
                  <Invoice xmlns="http://hl7.org/fhir">
                     <meta>
                        <profile value="http://fhir.abda.de/eRezeptAbgabedaten/StructureDefinition/DAV-PKV-PR-ERP-Abrechnungszeilen|1.1"/>
                     </meta>
                     <status value="issued"/>
                     <type>
                        <coding>
                           <system value="http://fhir.abda.de/eRezeptAbgabedaten/CodeSystem/DAV-CS-ERP-InvoiceTyp"/>
                           <code value="Abrechnungszeilen"/>
                        </coding>
                     </type>
                     <lineItem>
                        <sequence value="1"/>
                        <chargeItemCodeableConcept>
                           <coding>
                              <system value="http://fhir.de/CodeSystem/ifa/pzn"/>
                              <code value="42788794"/>
                           </coding>
                        </chargeItemCodeableConcept>
                        <priceComponent>
                           <extension url="http://fhir.abda.de/eRezeptAbgabedaten/StructureDefinition/DAV-EX-ERP-KostenVersicherter">
                              <extension url="Kategorie">
                                 <valueCodeableConcept>
                                    <coding>
                                       <system value="http://fhir.abda.de/eRezeptAbgabedaten/CodeSystem/DAV-PKV-CS-ERP-KostenVersicherterKategorie"/>
                                       <code value="0"/>
                                    </coding>
                                 </valueCodeableConcept>
                              </extension>
                              <extension url="Kostenbetrag">
                                 <valueMoney>
                                    <value value="42.56"/>
                                    <currency value="EUR"/>
                                 </valueMoney>
                              </extension>
                           </extension>
                           <extension url="http://fhir.abda.de/eRezeptAbgabedaten/StructureDefinition/DAV-EX-ERP-MwStSatz">
                              <valueDecimal value="14.67"/>
                           </extension>
                           <type value="informational"/>
                           <factor value="1"/>
                           <amount>
                              <value value="70.04"/>
                              <currency value="EUR"/>
                           </amount>
                        </priceComponent>
                     </lineItem>
                     <lineItem>
                        <sequence value="2"/>
                        <chargeItemCodeableConcept>
                           <coding>
                              <system value="http://fhir.de/CodeSystem/ifa/pzn"/>
                              <code value="81166587"/>
                           </coding>
                        </chargeItemCodeableConcept>
                        <priceComponent>
                           <extension url="http://fhir.abda.de/eRezeptAbgabedaten/StructureDefinition/DAV-EX-ERP-KostenVersicherter">
                              <extension url="Kategorie">
                                 <valueCodeableConcept>
                                    <coding>
                                       <system value="http://fhir.abda.de/eRezeptAbgabedaten/CodeSystem/DAV-PKV-CS-ERP-KostenVersicherterKategorie"/>
                                       <code value="0"/>
                                    </coding>
                                 </valueCodeableConcept>
                              </extension>
                              <extension url="Kostenbetrag">
                                 <valueMoney>
                                    <value value="130.36"/>
                                    <currency value="EUR"/>
                                 </valueMoney>
                              </extension>
                           </extension>
                           <extension url="http://fhir.abda.de/eRezeptAbgabedaten/StructureDefinition/DAV-EX-ERP-MwStSatz">
                              <valueDecimal value="14.67"/>
                           </extension>
                           <type value="informational"/>
                           <factor value="1"/>
                           <amount>
                              <value value="195.73"/>
                              <currency value="EUR"/>
                           </amount>
                        </priceComponent>
                     </lineItem>
                     <lineItem>
                        <sequence value="3"/>
                        <chargeItemCodeableConcept>
                           <coding>
                              <system value="http://fhir.de/CodeSystem/ifa/pzn"/>
                              <code value="67424674"/>
                           </coding>
                        </chargeItemCodeableConcept>
                        <priceComponent>
                           <extension url="http://fhir.abda.de/eRezeptAbgabedaten/StructureDefinition/DAV-EX-ERP-KostenVersicherter">
                              <extension url="Kategorie">
                                 <valueCodeableConcept>
                                    <coding>
                                       <system value="http://fhir.abda.de/eRezeptAbgabedaten/CodeSystem/DAV-PKV-CS-ERP-KostenVersicherterKategorie"/>
                                       <code value="0"/>
                                    </coding>
                                 </valueCodeableConcept>
                              </extension>
                              <extension url="Kostenbetrag">
                                 <valueMoney>
                                    <value value="56.90"/>
                                    <currency value="EUR"/>
                                 </valueMoney>
                              </extension>
                           </extension>
                           <extension url="http://fhir.abda.de/eRezeptAbgabedaten/StructureDefinition/DAV-EX-ERP-MwStSatz">
                              <valueDecimal value="14.67"/>
                           </extension>
                           <type value="informational"/>
                           <factor value="1"/>
                           <amount>
                              <value value="59.78"/>
                              <currency value="EUR"/>
                           </amount>
                        </priceComponent>
                     </lineItem>
                     <lineItem>
                        <sequence value="4"/>
                        <chargeItemCodeableConcept>
                           <coding>
                              <system value="http://fhir.de/CodeSystem/ifa/pzn"/>
                              <code value="16279390"/>
                           </coding>
                        </chargeItemCodeableConcept>
                        <priceComponent>
                           <extension url="http://fhir.abda.de/eRezeptAbgabedaten/StructureDefinition/DAV-EX-ERP-KostenVersicherter">
                              <extension url="Kategorie">
                                 <valueCodeableConcept>
                                    <coding>
                                       <system value="http://fhir.abda.de/eRezeptAbgabedaten/CodeSystem/DAV-PKV-CS-ERP-KostenVersicherterKategorie"/>
                                       <code value="0"/>
                                    </coding>
                                 </valueCodeableConcept>
                              </extension>
                              <extension url="Kostenbetrag">
                                 <valueMoney>
                                    <value value="0.70"/>
                                    <currency value="EUR"/>
                                 </valueMoney>
                              </extension>
                           </extension>
                           <extension url="http://fhir.abda.de/eRezeptAbgabedaten/StructureDefinition/DAV-EX-ERP-MwStSatz">
                              <valueDecimal value="14.67"/>
                           </extension>
                           <type value="informational"/>
                           <factor value="1"/>
                           <amount>
                              <value value="0.90"/>
                              <currency value="EUR"/>
                           </amount>
                        </priceComponent>
                     </lineItem>
                     <lineItem>
                        <sequence value="5"/>
                        <chargeItemCodeableConcept>
                           <coding>
                              <system value="http://fhir.de/CodeSystem/ifa/pzn"/>
                              <code value="81837778"/>
                           </coding>
                        </chargeItemCodeableConcept>
                        <priceComponent>
                           <extension url="http://fhir.abda.de/eRezeptAbgabedaten/StructureDefinition/DAV-EX-ERP-KostenVersicherter">
                              <extension url="Kategorie">
                                 <valueCodeableConcept>
                                    <coding>
                                       <system value="http://fhir.abda.de/eRezeptAbgabedaten/CodeSystem/DAV-PKV-CS-ERP-KostenVersicherterKategorie"/>
                                       <code value="0"/>
                                    </coding>
                                 </valueCodeableConcept>
                              </extension>
                              <extension url="Kostenbetrag">
                                 <valueMoney>
                                    <value value="6.99"/>
                                    <currency value="EUR"/>
                                 </valueMoney>
                              </extension>
                           </extension>
                           <extension url="http://fhir.abda.de/eRezeptAbgabedaten/StructureDefinition/DAV-EX-ERP-MwStSatz">
                              <valueDecimal value="14.67"/>
                           </extension>
                           <type value="informational"/>
                           <factor value="1"/>
                           <amount>
                              <value value="31.60"/>
                              <currency value="EUR"/>
                           </amount>
                        </priceComponent>
                     </lineItem>
                     <totalGross>
                        <extension url="http://fhir.abda.de/eRezeptAbgabedaten/StructureDefinition/DAV-EX-ERP-Gesamtzuzahlung">
                           <valueMoney>
                              <value value="237.51"/>
                              <currency value="EUR"/>
                           </valueMoney>
                        </extension>
                        <value value="358.05"/>
                        <currency value="EUR"/>
                     </totalGross>
                  </Invoice>
               </resource>
            </entry>
            <entry>
               <fullUrl value="urn:uuid:03a47e06-df33-4b46-9ada-079333bca885"/>
               <resource>
                  <MedicationDispense xmlns="http://hl7.org/fhir">
                     <meta>
                        <profile value="http://fhir.abda.de/eRezeptAbgabedaten/StructureDefinition/DAV-PKV-PR-ERP-Abgabeinformationen|1.1"/>
                     </meta>
                     <extension url="http://fhir.abda.de/eRezeptAbgabedaten/StructureDefinition/DAV-PKV-EX-ERP-AbrechnungsTyp">
                        <valueCodeableConcept>
                           <coding>
                              <system value="http://fhir.abda.de/eRezeptAbgabedaten/CodeSystem/DAV-PKV-CS-ERP-AbrechnungsTyp"/>
                              <code value="1"/>
                           </coding>
                        </valueCodeableConcept>
                     </extension>
                     <extension url="http://fhir.abda.de/eRezeptAbgabedaten/StructureDefinition/DAV-EX-ERP-Abrechnungszeilen">
                        <valueReference>
                           <reference value="urn:uuid:9ceea45b-1fa5-4f1f-9165-3b847ad89233"/>
                        </valueReference>
                     </extension>
                     <status value="completed"/>
                     <medicationCodeableConcept>
                        <coding>
                           <system value="http://terminology.hl7.org/CodeSystem/data-absent-reason"/>
                           <code value="not-applicable"/>
                        </coding>
                     </medicationCodeableConcept>
                     <performer>
                        <actor>
                           <reference value="urn:uuid:dbe37607-b983-4e7f-a46d-2cc46b70cc2c"/>
                        </actor>
                     </performer>
                     <authorizingPrescription>
                        <identifier>
                           <system value="https://gematik.de/fhir/erp/NamingSystem/GEM_ERP_NS_PrescriptionId"/>
                           <value value="200.000.001.943.765.28"/>
                        </identifier>
                     </authorizingPrescription>
                     <type>
                        <coding>
                           <system value="http://fhir.abda.de/eRezeptAbgabedaten/CodeSystem/DAV-CS-ERP-MedicationDispenseTyp"/>
                           <code value="Abgabeinformationen"/>
                        </coding>
                     </type>
                     <whenHandedOver value="2023-04-18"/>
                  </MedicationDispense>
               </resource>
            </entry>
            <signature>
               <type>
                  <system value="urn:iso-astm:E1762-95:2013"/>
                  <code value="1.2.840.10065.1.12.1.1"/>
               </type>
               <when value="2023-04-18T06:42:54.000+00:00"/>
               <who>
                  <display value="Apotheke"/>
               </who>
               <sigFormat value="application/pkcs7-mime"/>
               <data value=""/>
            </signature>
         </Bundle>
      </resource>
   </entry>
</Bundle>