<Parameters xmlns="http://hl7.org/fhir">
   <id value="da9f6c16-91d9-4cef-86b2-fcf0674f0930"/>
   <meta>
      <profile value="https://gematik.de/fhir/epa-medication/StructureDefinition/epa-op-provide-dispensation-input-parameters"/>
   </meta>
   <parameter>
      <name value="dispensation"/>
      <part>
         <name value="medicationDispense"/>
         <resource>
            <MedicationDispense xmlns="http://hl7.org/fhir">
               <id value="c9a22595-0d04-47b5-b46a-b855c9586cab"/>
               <meta>
                  <profile value="https://gematik.de/fhir/epa-medication/StructureDefinition/epa-medication-dispense"/>
               </meta>
               <identifier>
                  <system value="https://gematik.de/fhir/erp/NamingSystem/GEM_ERP_NS_PrescriptionId"/>
                  <value value="160.100.000.000.008.18"/>
               </identifier>
               <status value="completed"/>
               <category>
                  <coding>
                     <system value="https://gematik.de/fhir/epa-medication/CodeSystem/EPAMedicationDispenseCategoryCS"/>
                     <code value="prescription"/>
                     <display value="prescription dispense"/>
                  </coding>
               </category>
               <medicationReference>
                  <reference value="Medication/f914d8a1-0add-4542-ae2e-a271b86db575"/>
               </medicationReference>
               <subject>
                  <identifier>
                     <system value="http://fhir.de/sid/gkv/kvid-10"/>
                     <value value="S040464113"/>
                  </identifier>
               </subject>
               <performer>
                  <actor>
                     <reference value="Organization/ba646b9d-f7d6-4e3f-94aa-3cdf320eaea3"/>
                  </actor>
               </performer>
               <whenHandedOver value="2024-11-27"/>
               <dosageInstruction>
                  <text value="3mal täglich dünn auftragen"/>
               </dosageInstruction>
            </MedicationDispense>
         </resource>
      </part>
      <part>
         <name value="medication"/>
         <resource>
            <Medication xmlns="http://hl7.org/fhir">
               <id value="f914d8a1-0add-4542-ae2e-a271b86db575"/>
               <meta>
                  <profile value="https://gematik.de/fhir/epa-medication/StructureDefinition/epa-medication"/>
               </meta>
               <extension url="https://gematik.de/fhir/epa-medication/StructureDefinition/drug-category-extension">
                  <valueCoding>
                     <system value="https://gematik.de/fhir/epa-medication/CodeSystem/epa-drug-category-cs"/>
                     <code value="00"/>
                  </valueCoding>
               </extension>
               <extension url="https://gematik.de/fhir/epa-medication/StructureDefinition/medication-id-vaccine-extension">
                  <valueBoolean value="false"/>
               </extension>
               <extension url="http://fhir.de/StructureDefinition/normgroesse">
                  <valueCode value="N1"/>
               </extension>
               <code>
                  <coding>
                     <system value="http://fhir.de/CodeSystem/ifa/pzn"/>
                     <code value="10962562"/>
                  </coding>
                  <text value="FUSIDINSÄURE-ratiopharm 20 mg/g"/>
               </code>
               <form>
                  <coding>
                     <system value="https://fhir.kbv.de/CodeSystem/KBV_CS_SFHIR_KBV_DARREICHUNGSFORM"/>
                     <code value="CRE"/>
                  </coding>
               </form>
               <amount>
                  <numerator>
                     <extension url="https://gematik.de/fhir/epa-medication/StructureDefinition/medication-packaging-size-extension">
                        <valueString value="15"/>
                     </extension>
                     <unit value="g"/>
                  </numerator>
                  <denominator>
                     <value value="1"/>
                  </denominator>
               </amount>
               <batch>
                  <lotNumber value="A123456789-1"/>
                  <expirationDate value="2025-12-31"/>
               </batch>
            </Medication>
         </resource>
      </part>
   </parameter>
   <parameter>
      <name value="performerInstitution"/>
      <resource>
         <Organization xmlns="http://hl7.org/fhir">
            <id value="ba646b9d-f7d6-4e3f-94aa-3cdf320eaea3"/>
            <meta>
               <profile value="https://gematik.de/fhir/directory/StructureDefinition/OrganizationDirectory"/>
               <tag>
                  <system value="https://gematik.de/fhir/directory/CodeSystem/Origin"/>
                  <code value="ldap"/>
               </tag>
            </meta>
            <identifier>
               <system value="https://gematik.de/fhir/sid/telematik-id"/>
               <value value="3-07.2.1234560000.10.789"/>
            </identifier>
            <type>
               <coding>
                  <system value="https://gematik.de/fhir/directory/CodeSystem/OrganizationProfessionOID"/>
                  <code value="1.2.276.0.76.4.58"/>
               </coding>
            </type>
            <name value="Jed Dye"/>
         </Organization>
      </resource>
   </parameter>
</Parameters>