<Bundle xmlns="http://hl7.org/fhir"><id value="2b911dbd-34b9-41f1-8cd9-cfae0b05cf6f"/><meta><lastUpdated value="2024-02-08T19:12:08.502+01:00"/><profile value="https://fhir.kbv.de/StructureDefinition/KBV_PR_ERP_Bundle|1.1.0"/></meta><identifier><system value="https://gematik.de/fhir/erp/NamingSystem/GEM_ERP_NS_PrescriptionId"/><value value="160.000.226.119.796.81"/></identifier><type value="document"/><timestamp value="2024-02-08T19:12:08.502+01:00"/><entry><fullUrl value="https://pvs.gematik.de/fhir/Composition/a3005d05-8bac-43b5-8a33-615790e64753"/><resource><Composition xmlns="http://hl7.org/fhir"><id value="a3005d05-8bac-43b5-8a33-615790e64753"/><meta><profile value="https://fhir.kbv.de/StructureDefinition/KBV_PR_ERP_Composition|1.1.0"/></meta><extension url="https://fhir.kbv.de/StructureDefinition/KBV_EX_FOR_Legal_basis"><valueCoding><system value="https://fhir.kbv.de/CodeSystem/KBV_CS_SFHIR_KBV_STATUSKENNZEICHEN"/><code value="00"/></valueCoding></extension><status value="final"/><type><coding><system value="https://fhir.kbv.de/CodeSystem/KBV_CS_SFHIR_KBV_FORMULAR_ART"/><code value="e16A"/></coding></type><subject><reference value="Patient/a1cf6eda-1cd5-44ad-b068-91175bbdd06b"/></subject><date value="2024-02-08T19:12:08+01:00"/><author><reference value="Practitioner/2d337873-10f6-4a95-909e-7e9f4bf80e91"/><type value="Practitioner"/></author><author><type value="Device"/><identifier><system value="https://fhir.kbv.de/NamingSystem/KBV_NS_FOR_Pruefnummer"/><value value="GEMATIK/410/2109/36/123"/></identifier></author><title value="elektronische Arzneimittelverordnung"/><custodian><reference value="Organization/3424052b-07a5-48b2-a4bd-7eb112e935c3"/></custodian><section><code><coding><system value="https://fhir.kbv.de/CodeSystem/KBV_CS_ERP_Section_Type"/><code value="Coverage"/></coding></code><entry><reference value="Coverage/7b9173fd-8c7e-4bc9-94a5-705feeb7b476"/></entry></section><section><code><coding><system value="https://fhir.kbv.de/CodeSystem/KBV_CS_ERP_Section_Type"/><code value="Prescription"/></coding></code><entry><reference value="MedicationRequest/c9873cec-fe5f-4dac-83e5-062151e56d62"/></entry></section></Composition></resource></entry><entry><fullUrl value="https://pvs.gematik.de/fhir/Medication/c77e17d5-3a9b-4afd-90e8-35ec70aa07ad"/><resource><Medication xmlns="http://hl7.org/fhir"><id value="c77e17d5-3a9b-4afd-90e8-35ec70aa07ad"/><meta><profile value="https://fhir.kbv.de/StructureDefinition/KBV_PR_ERP_Medication_PZN|1.1.0"/></meta><extension url="https://fhir.kbv.de/StructureDefinition/KBV_EX_Base_Medication_Type"><valueCodeableConcept><coding><system value="http://snomed.info/sct"/><version value="http://snomed.info/sct/900000000000207008/version/20220331"/><code value="763158003"/><display value="Medicinal product (product)"/></coding></valueCodeableConcept></extension><extension url="https://fhir.kbv.de/StructureDefinition/KBV_EX_ERP_Medication_Category"><valueCoding><system value="https://fhir.kbv.de/CodeSystem/KBV_CS_ERP_Medication_Category"/><code value="00"/></valueCoding></extension><extension url="https://fhir.kbv.de/StructureDefinition/KBV_EX_ERP_Medication_Vaccine"><valueBoolean value="false"/></extension><extension url="http://fhir.de/StructureDefinition/normgroesse"><valueCode value="NB"/></extension><code><coding><system value="http://fhir.de/CodeSystem/ifa/pzn"/><code value="70325034"/></coding><text value="Defamior"/></code><form><coding><system value="https://fhir.kbv.de/CodeSystem/KBV_CS_SFHIR_KBV_DARREICHUNGSFORM"/><code value="TAB"/></coding></form><amount><numerator><extension url="https://fhir.kbv.de/StructureDefinition/KBV_EX_ERP_Medication_PackagingSize"><valueString value="1"/></extension><unit value="Stk"/></numerator><denominator><value value="1"/></denominator></amount></Medication></resource></entry><entry><fullUrl value="https://pvs.gematik.de/fhir/Patient/a1cf6eda-1cd5-44ad-b068-91175bbdd06b"/><resource><Patient xmlns="http://hl7.org/fhir"><id value="a1cf6eda-1cd5-44ad-b068-91175bbdd06b"/><meta><profile value="https://fhir.kbv.de/StructureDefinition/KBV_PR_FOR_Patient|1.1.0"/></meta><identifier><type><coding><system value="http://fhir.de/CodeSystem/identifier-type-de-basis"/><code value="GKV"/></coding></type><system value="http://fhir.de/sid/gkv/kvid-10"/><value value="X110498565"/></identifier><name><use value="official"/><family value="Hüllmann"><extension url="http://hl7.org/fhir/StructureDefinition/humanname-own-name"><valueString value="Hüllmann"/></extension></family><given value="Sina"/></name><birthDate value="1967-02-06"/><address><type value="both"/><line value="Günther-Weisenborn-Str. 67b"><extension url="http://hl7.org/fhir/StructureDefinition/iso21090-ADXP-houseNumber"><valueString value="67b"/></extension><extension url="http://hl7.org/fhir/StructureDefinition/iso21090-ADXP-streetName"><valueString value="Günther-Weisenborn-Str."/></extension></line><city value="Tomstadt"/><postalCode value="42402"/><country value="D"/></address></Patient></resource></entry><entry><fullUrl value="https://pvs.gematik.de/fhir/Organization/3424052b-07a5-48b2-a4bd-7eb112e935c3"/><resource><Organization xmlns="http://hl7.org/fhir"><id value="3424052b-07a5-48b2-a4bd-7eb112e935c3"/><meta><profile value="https://fhir.kbv.de/StructureDefinition/KBV_PR_FOR_Organization|1.1.0"/></meta><identifier><type><coding><system value="http://terminology.hl7.org/CodeSystem/v2-0203"/><code value="BSNR"/></coding></type><system value="https://fhir.kbv.de/NamingSystem/KBV_NS_Base_BSNR"/><value value="036949017"/></identifier><name value="Arztpraxis Schraßer"/><telecom><system value="phone"/><value value="+49-2981-12628405"/></telecom><telecom><system value="email"/><value value="niko.moormann@thyssen.de"/></telecom><address><type value="both"/><line value="Lycker Str. 99a"><extension url="http://hl7.org/fhir/StructureDefinition/iso21090-ADXP-houseNumber"><valueString value="99a"/></extension><extension url="http://hl7.org/fhir/StructureDefinition/iso21090-ADXP-streetName"><valueString value="Lycker Str."/></extension></line><city value="Hansfeld"/><postalCode value="07228"/><country value="D"/></address></Organization></resource></entry><entry><fullUrl value="https://pvs.gematik.de/fhir/Coverage/7b9173fd-8c7e-4bc9-94a5-705feeb7b476"/><resource><Coverage xmlns="http://hl7.org/fhir"><id value="7b9173fd-8c7e-4bc9-94a5-705feeb7b476"/><meta><profile value="https://fhir.kbv.de/StructureDefinition/KBV_PR_FOR_Coverage|1.1.0"/></meta><extension url="http://fhir.de/StructureDefinition/gkv/besondere-personengruppe"><valueCoding><system value="https://fhir.kbv.de/CodeSystem/KBV_CS_SFHIR_KBV_PERSONENGRUPPE"/><code value="00"/></valueCoding></extension><extension url="http://fhir.de/StructureDefinition/gkv/dmp-kennzeichen"><valueCoding><system value="https://fhir.kbv.de/CodeSystem/KBV_CS_SFHIR_KBV_DMP"/><code value="00"/></valueCoding></extension><extension url="http://fhir.de/StructureDefinition/gkv/wop"><valueCoding><system value="https://fhir.kbv.de/CodeSystem/KBV_CS_SFHIR_ITA_WOP"/><code value="01"/></valueCoding></extension><extension url="http://fhir.de/StructureDefinition/gkv/versichertenart"><valueCoding><system value="https://fhir.kbv.de/CodeSystem/KBV_CS_SFHIR_KBV_VERSICHERTENSTATUS"/><code value="1"/></valueCoding></extension><status value="active"/><type><coding><system value="http://fhir.de/CodeSystem/versicherungsart-de-basis"/><code value="GKV"/></coding></type><beneficiary><reference value="Patient/d20e3d94-e754-441a-9d27-7ab016f4a297"/></beneficiary><payor><identifier><system value="http://fhir.de/sid/arge-ik/iknr"/><value value="105530331"/></identifier><display value="BKK Herkules"/></payor></Coverage></resource></entry><entry><fullUrl value="https://pvs.gematik.de/fhir/Practitioner/2d337873-10f6-4a95-909e-7e9f4bf80e91"/><resource><Practitioner xmlns="http://hl7.org/fhir"><id value="2d337873-10f6-4a95-909e-7e9f4bf80e91"/><meta><profile value="https://fhir.kbv.de/StructureDefinition/KBV_PR_FOR_Practitioner|1.1.0"/></meta><identifier><type><coding><system value="http://terminology.hl7.org/CodeSystem/v2-0203"/><code value="LANR"/></coding></type><system value="https://fhir.kbv.de/NamingSystem/KBV_NS_Base_ANR"/><value value="398793999"/></identifier><name><use value="official"/><family value="Schraßer"><extension url="http://hl7.org/fhir/StructureDefinition/humanname-own-name"><valueString value="Schraßer"/></extension></family><given value="Dr."/><prefix value="Dr."><extension url="http://hl7.org/fhir/StructureDefinition/iso21090-EN-qualifier"><valueCode value="AC"/></extension></prefix></name><qualification><code><coding><system value="https://fhir.kbv.de/CodeSystem/KBV_CS_FOR_Qualification_Type"/><code value="00"/></coding></code></qualification><qualification><code><coding><system value="https://fhir.kbv.de/CodeSystem/KBV_CS_FOR_Berufsbezeichnung"/><code value="Berufsbezeichnung"/></coding><text value="Super-Facharzt für alles Mögliche"/></code></qualification></Practitioner></resource></entry><entry><fullUrl value="https://pvs.gematik.de/fhir/MedicationRequest/c9873cec-fe5f-4dac-83e5-062151e56d62"/><resource><MedicationRequest xmlns="http://hl7.org/fhir"><id value="c9873cec-fe5f-4dac-83e5-062151e56d62"/><meta><profile value="https://fhir.kbv.de/StructureDefinition/KBV_PR_ERP_Prescription|1.1.0"/></meta><extension url="https://fhir.kbv.de/StructureDefinition/KBV_EX_ERP_BVG"><valueBoolean value="false"/></extension><extension url="https://fhir.kbv.de/StructureDefinition/KBV_EX_ERP_EmergencyServicesFee"><valueBoolean value="false"/></extension><extension url="https://fhir.kbv.de/StructureDefinition/KBV_EX_ERP_Multiple_Prescription"><extension url="Kennzeichen"><valueBoolean value="true"/></extension><extension url="Nummerierung"><valueRatio><numerator><value value="1"/></numerator><denominator><value value="4"/></denominator></valueRatio></extension><extension url="Zeitraum"><valuePeriod><start value="2024-08-06"/><end value="2024-05-08"/></valuePeriod></extension><extension url="ID"><valueIdentifier><system value="urn:ietf:rfc:3986"/><value value="urn:uuid:1db9bcf0-5e50-4bc9-b8e8-04b57db4cc64"/></valueIdentifier></extension></extension><extension url="https://fhir.kbv.de/StructureDefinition/KBV_EX_FOR_StatusCoPayment"><valueCoding><system value="https://fhir.kbv.de/CodeSystem/KBV_CS_FOR_StatusCoPayment"/><code value="0"/></valueCoding></extension><status value="active"/><intent value="order"/><medicationReference><reference value="Medication/c77e17d5-3a9b-4afd-90e8-35ec70aa07ad"/></medicationReference><subject><reference value="Patient/a1cf6eda-1cd5-44ad-b068-91175bbdd06b"/></subject><authoredOn value="2024-02-08"/><requester><reference value="Practitioner/2d337873-10f6-4a95-909e-7e9f4bf80e91"/></requester><insurance><reference value="Coverage/7b9173fd-8c7e-4bc9-94a5-705feeb7b476"/></insurance><dispenseRequest><quantity><value value="1"/><system value="http://unitsofmeasure.org"/><code value="{Package}"/></quantity></dispenseRequest><substitution><allowedBoolean value="false"/></substitution></MedicationRequest></resource></entry></Bundle>