<Bundle xmlns="http://hl7.org/fhir"><id value="0e40b63c-6ffe-4c94-9280-eb185ceebfaf"/><meta><lastUpdated value="2024-02-08T19:21:10.082+01:00"/><profile value="http://fhir.abda.de/eRezeptAbgabedaten/StructureDefinition/DAV-PKV-PR-ERP-AbgabedatenBundle|1.2"/></meta><identifier><system value="https://gematik.de/fhir/erp/NamingSystem/GEM_ERP_NS_PrescriptionId"/><value value="209.000.000.032.995.34"/></identifier><type value="document"/><timestamp value="2024-02-08T19:21:10.082+01:00"/><entry><fullUrl value="urn:uuid:47c84692-2cf3-410f-916c-42e967dde084"/><resource><Composition xmlns="http://hl7.org/fhir"><id value="47c84692-2cf3-410f-916c-42e967dde084"/><meta><profile value="http://fhir.abda.de/eRezeptAbgabedaten/StructureDefinition/DAV-PKV-PR-ERP-AbgabedatenComposition|1.2"/></meta><status value="final"/><type><coding><system value="http://fhir.abda.de/eRezeptAbgabedaten/CodeSystem/DAV-CS-ERP-CompositionTypes"/><code value="ERezeptAbgabedaten"/></coding></type><date value="2024-02-08T19:21:10+01:00"/><author><reference value="urn:uuid:f88d3312-a62c-45b3-b52a-f059683d7d1a"/></author><title value="ERezeptAbgabedaten"/><section><title value="Apotheke"/><entry><reference value="urn:uuid:f88d3312-a62c-45b3-b52a-f059683d7d1a"/></entry></section><section><title value="Abgabeinformationen"/><entry><reference value="urn:uuid:5dc82ab0-1c39-4e61-9848-3df255fccab9"/></entry></section></Composition></resource></entry><entry><fullUrl value="urn:uuid:f88d3312-a62c-45b3-b52a-f059683d7d1a"/><resource><Organization xmlns="http://hl7.org/fhir"><id value="f88d3312-a62c-45b3-b52a-f059683d7d1a"/><meta><profile value="http://fhir.abda.de/eRezeptAbgabedaten/StructureDefinition/DAV-PKV-PR-ERP-Apotheke|1.2"/></meta><identifier><system value="http://fhir.de/sid/arge-ik/iknr"/><value value="022279578"/></identifier><name value="Apotheke Sam Pull"/><address><type value="physical"/><line value="Beckers Kämpchen 019"><extension url="http://hl7.org/fhir/StructureDefinition/iso21090-ADXP-houseNumber"><valueString value="019"/></extension><extension url="http://hl7.org/fhir/StructureDefinition/iso21090-ADXP-streetName"><valueString value="Beckers Kämpchen"/></extension></line><city value="West Eileen"/><postalCode value="98266"/><country value="D"/></address></Organization></resource></entry><entry><fullUrl value="urn:uuid:a275352b-9a4f-4468-bd9d-6d49c7897f5e"/><resource><Invoice xmlns="http://hl7.org/fhir"><id value="a275352b-9a4f-4468-bd9d-6d49c7897f5e"/><meta><profile value="http://fhir.abda.de/eRezeptAbgabedaten/StructureDefinition/DAV-PKV-PR-ERP-Abrechnungszeilen|1.2"/></meta><status value="issued"/><type><coding><system value="http://fhir.abda.de/eRezeptAbgabedaten/CodeSystem/DAV-CS-ERP-InvoiceTyp"/><code value="Abrechnungszeilen"/></coding></type><lineItem><sequence value="1"/><chargeItemCodeableConcept><coding><system value="http://fhir.de/CodeSystem/ifa/pzn"/><code value="16261116"/></coding><text value="Azeameib"/></chargeItemCodeableConcept><priceComponent><extension url="http://fhir.abda.de/eRezeptAbgabedaten/StructureDefinition/DAV-EX-ERP-KostenVersicherter"><extension url="Kategorie"><valueCodeableConcept><coding><system value="http://fhir.abda.de/eRezeptAbgabedaten/CodeSystem/DAV-PKV-CS-ERP-KostenVersicherterKategorie"/><code value="0"/></coding></valueCodeableConcept></extension><extension url="Kostenbetrag"><valueMoney><value value="540.40"/><currency value="EUR"/></valueMoney></extension></extension><extension url="http://fhir.abda.de/eRezeptAbgabedaten/StructureDefinition/DAV-EX-ERP-MwStSatz"><valueDecimal value="10.92"/></extension><type value="informational"/><factor value="1"/><amount><value value="963.02"/><currency value="EUR"/></amount></priceComponent></lineItem><totalGross><extension url="http://fhir.abda.de/eRezeptAbgabedaten/StructureDefinition/DAV-EX-ERP-Gesamtzuzahlung"><valueMoney><value value="540.40"/><currency value="EUR"/></valueMoney></extension><value value="963.02"/><currency value="EUR"/></totalGross></Invoice></resource></entry><entry><fullUrl value="urn:uuid:5dc82ab0-1c39-4e61-9848-3df255fccab9"/><resource><MedicationDispense xmlns="http://hl7.org/fhir"><id value="5dc82ab0-1c39-4e61-9848-3df255fccab9"/><meta><profile value="http://fhir.abda.de/eRezeptAbgabedaten/StructureDefinition/DAV-PKV-PR-ERP-Abgabeinformationen|1.2"/></meta><extension url="http://fhir.abda.de/eRezeptAbgabedaten/StructureDefinition/DAV-PKV-EX-ERP-AbrechnungsTyp"><valueCodeableConcept><coding><system value="http://fhir.abda.de/eRezeptAbgabedaten/CodeSystem/DAV-PKV-CS-ERP-AbrechnungsTyp"/><code value="1"/></coding></valueCodeableConcept></extension><extension url="http://fhir.abda.de/eRezeptAbgabedaten/StructureDefinition/DAV-EX-ERP-Abrechnungszeilen"><valueReference><reference value="urn:uuid:a275352b-9a4f-4468-bd9d-6d49c7897f5e"/></valueReference></extension><status value="completed"/><medicationCodeableConcept><coding><system value="http://terminology.hl7.org/CodeSystem/data-absent-reason"/><code value="not-applicable"/></coding></medicationCodeableConcept><performer><actor><reference value="urn:uuid:f88d3312-a62c-45b3-b52a-f059683d7d1a"/></actor></performer><authorizingPrescription><identifier><system value="https://gematik.de/fhir/erp/NamingSystem/GEM_ERP_NS_PrescriptionId"/><value value="209.000.000.032.995.34"/></identifier></authorizingPrescription><type><coding><system value="http://fhir.abda.de/eRezeptAbgabedaten/CodeSystem/DAV-CS-ERP-MedicationDispenseTyp"/><code value="Abgabeinformationen"/></coding></type><whenHandedOver value="2024-02-08"/></MedicationDispense></resource></entry></Bundle>