<Bundle xmlns="http://hl7.org/fhir">
   <id value="230dc009-fe73-47bb-9d19-5e48449a4ba8"/>
   <meta>
      <lastUpdated value="2024-02-08T19:20:49.645+01:00"/>
      <profile value="https://fhir.kbv.de/StructureDefinition/KBV_PR_ERP_Bundle|1.1.0"/>
   </meta>
   <identifier>
      <system value="https://gematik.de/fhir/erp/NamingSystem/GEM_ERP_NS_PrescriptionId"/>
      <value value="200.000.002.096.555.80"/>
   </identifier>
   <type value="document"/>
   <timestamp value="2024-02-08T19:20:49.645+01:00"/>
   <entry>
      <fullUrl value="https://pvs.gematik.de/fhir/Composition/5b8c7a2b-2049-4b65-ac8b-a5f5559e99af"/>
      <resource>
         <Composition xmlns="http://hl7.org/fhir">
            <id value="5b8c7a2b-2049-4b65-ac8b-a5f5559e99af"/>
            <meta>
               <profile value="https://fhir.kbv.de/StructureDefinition/KBV_PR_ERP_Composition|1.1.0"/>
            </meta>
            <extension url="https://fhir.kbv.de/StructureDefinition/KBV_EX_FOR_Legal_basis">
               <valueCoding>
                  <system value="https://fhir.kbv.de/CodeSystem/KBV_CS_SFHIR_KBV_STATUSKENNZEICHEN"/>
                  <code value="00"/>
               </valueCoding>
            </extension>
            <status value="final"/>
            <type>
               <coding>
                  <system value="https://fhir.kbv.de/CodeSystem/KBV_CS_SFHIR_KBV_FORMULAR_ART"/>
                  <code value="e16A"/>
               </coding>
            </type>
            <subject>
               <reference value="Patient/f9667017-39e2-4062-8ce4-6429bbf68383"/>
            </subject>
            <date value="2024-02-08T19:20:49+01:00"/>
            <author>
               <reference value="Practitioner/394ca825-9f44-4784-898b-78f5e58689ed"/>
               <type value="Practitioner"/>
            </author>
            <author>
               <type value="Device"/>
               <identifier>
                  <system value="https://fhir.kbv.de/NamingSystem/KBV_NS_FOR_Pruefnummer"/>
                  <value value="GEMATIK/410/2109/36/123"/>
               </identifier>
            </author>
            <title value="elektronische Arzneimittelverordnung"/>
            <custodian>
               <reference value="Organization/d45562ec-94e2-40ab-8156-c95bbc8f2030"/>
            </custodian>
            <section>
               <code>
                  <coding>
                     <system value="https://fhir.kbv.de/CodeSystem/KBV_CS_ERP_Section_Type"/>
                     <code value="Coverage"/>
                  </coding>
               </code>
               <entry>
                  <reference value="Coverage/2299b7ad-e1f9-41b6-b2cc-b1d0830a8b7f"/>
               </entry>
            </section>
            <section>
               <code>
                  <coding>
                     <system value="https://fhir.kbv.de/CodeSystem/KBV_CS_ERP_Section_Type"/>
                     <code value="Prescription"/>
                  </coding>
               </code>
               <entry>
                  <reference value="MedicationRequest/61191280-da3e-4342-bee9-429aa47cb42c"/>
               </entry>
            </section>
         </Composition>
      </resource>
   </entry>
   <entry>
      <fullUrl value="https://pvs.gematik.de/fhir/Medication/e0761a89-bb4d-44f8-bef8-a8eec7122c5a"/>
      <resource>
         <Medication xmlns="http://hl7.org/fhir">
            <id value="e0761a89-bb4d-44f8-bef8-a8eec7122c5a"/>
            <meta>
               <profile value="https://fhir.kbv.de/StructureDefinition/KBV_PR_ERP_Medication_PZN|1.1.0"/>
            </meta>
            <extension url="https://fhir.kbv.de/StructureDefinition/KBV_EX_Base_Medication_Type">
               <valueCodeableConcept>
                  <coding>
                     <system value="http://snomed.info/sct"/>
                     <version value="http://snomed.info/sct/900000000000207008/version/20220331"/>
                     <code value="763158003"/>
                     <display value="Medicinal product (product)"/>
                  </coding>
               </valueCodeableConcept>
            </extension>
            <extension url="https://fhir.kbv.de/StructureDefinition/KBV_EX_ERP_Medication_Category">
               <valueCoding>
                  <system value="https://fhir.kbv.de/CodeSystem/KBV_CS_ERP_Medication_Category"/>
                  <code value="00"/>
               </valueCoding>
            </extension>
            <extension url="https://fhir.kbv.de/StructureDefinition/KBV_EX_ERP_Medication_Vaccine">
               <valueBoolean value="false"/>
            </extension>
            <extension url="http://fhir.de/StructureDefinition/normgroesse">
               <valueCode value="NB"/>
            </extension>
            <code>
               <coding>
                  <system value="http://fhir.de/CodeSystem/ifa/pzn"/>
                  <code value="12345678"/>
               </coding>
               <text value="Schmerzmittel"/>
            </code>
            <form>
               <coding>
                  <system value="https://fhir.kbv.de/CodeSystem/KBV_CS_SFHIR_KBV_DARREICHUNGSFORM"/>
                  <code value="TAB"/>
               </coding>
            </form>
            <amount>
               <numerator>
                  <extension url="https://fhir.kbv.de/StructureDefinition/KBV_EX_ERP_Medication_PackagingSize">
                     <valueString value="1"/>
                  </extension>
                  <unit value="Stk"/>
               </numerator>
               <denominator>
                  <value value="1"/>
               </denominator>
            </amount>
         </Medication>
      </resource>
   </entry>
   <entry>
      <fullUrl value="https://pvs.gematik.de/fhir/Patient/f9667017-39e2-4062-8ce4-6429bbf68383"/>
      <resource>
         <Patient xmlns="http://hl7.org/fhir">
            <id value="f9667017-39e2-4062-8ce4-6429bbf68383"/>
            <meta>
               <profile value="https://fhir.kbv.de/StructureDefinition/KBV_PR_FOR_Patient|1.1.0"/>
            </meta>
            <identifier>
               <type>
                  <coding>
                     <system value="http://fhir.de/CodeSystem/identifier-type-de-basis"/>
                     <code value="PKV"/>
                  </coding>
               </type>
               <system value="http://fhir.de/sid/pkv/kvid-10"/>
               <value value="X110465770"/>
            </identifier>
            <name>
               <use value="official"/>
               <family value="Angermänn">
                  <extension url="http://hl7.org/fhir/StructureDefinition/humanname-own-name">
                     <valueString value="Angermänn"/>
                  </extension>
               </family>
               <given value="Günther"/>
            </name>
            <birthDate value="1980-04-02"/>
            <address>
               <type value="both"/>
               <line value="Am Märchen 36">
                  <extension url="http://hl7.org/fhir/StructureDefinition/iso21090-ADXP-houseNumber">
                     <valueString value="36"/>
                  </extension>
                  <extension url="http://hl7.org/fhir/StructureDefinition/iso21090-ADXP-streetName">
                     <valueString value="Am Märchen"/>
                  </extension>
               </line>
               <city value="Bad Summer"/>
               <postalCode value="15359"/>
               <country value="D"/>
            </address>
         </Patient>
      </resource>
   </entry>
   <entry>
      <fullUrl value="https://pvs.gematik.de/fhir/Organization/d45562ec-94e2-40ab-8156-c95bbc8f2030"/>
      <resource>
         <Organization xmlns="http://hl7.org/fhir">
            <id value="d45562ec-94e2-40ab-8156-c95bbc8f2030"/>
            <meta>
               <profile value="https://fhir.kbv.de/StructureDefinition/KBV_PR_FOR_Organization|1.1.0"/>
            </meta>
            <identifier>
               <type>
                  <coding>
                     <system value="http://terminology.hl7.org/CodeSystem/v2-0203"/>
                     <code value="BSNR"/>
                  </coding>
               </type>
               <system value="https://fhir.kbv.de/NamingSystem/KBV_NS_Base_BSNR"/>
               <value value="496255531"/>
            </identifier>
            <name value="Arztpraxis Schraßer"/>
            <telecom>
               <system value="phone"/>
               <value value="+49-197-7069529"/>
            </telecom>
            <telecom>
               <system value="email"/>
               <value value="tara.pollmächer@xn--dck-hoa.info"/>
            </telecom>
            <address>
               <type value="both"/>
               <line value="Augustastr. 27">
                  <extension url="http://hl7.org/fhir/StructureDefinition/iso21090-ADXP-houseNumber">
                     <valueString value="27"/>
                  </extension>
                  <extension url="http://hl7.org/fhir/StructureDefinition/iso21090-ADXP-streetName">
                     <valueString value="Augustastr."/>
                  </extension>
               </line>
               <city value="Logandorf"/>
               <postalCode value="84236"/>
               <country value="D"/>
            </address>
         </Organization>
      </resource>
   </entry>
   <entry>
      <fullUrl value="https://pvs.gematik.de/fhir/Coverage/2299b7ad-e1f9-41b6-b2cc-b1d0830a8b7f"/>
      <resource>
         <Coverage xmlns="http://hl7.org/fhir">
            <id value="2299b7ad-e1f9-41b6-b2cc-b1d0830a8b7f"/>
            <meta>
               <profile value="https://fhir.kbv.de/StructureDefinition/KBV_PR_FOR_Coverage|1.1.0"/>
            </meta>
            <extension url="http://fhir.de/StructureDefinition/gkv/besondere-personengruppe">
               <valueCoding>
                  <system value="https://fhir.kbv.de/CodeSystem/KBV_CS_SFHIR_KBV_PERSONENGRUPPE"/>
                  <code value="00"/>
               </valueCoding>
            </extension>
            <extension url="http://fhir.de/StructureDefinition/gkv/dmp-kennzeichen">
               <valueCoding>
                  <system value="https://fhir.kbv.de/CodeSystem/KBV_CS_SFHIR_KBV_DMP"/>
                  <code value="00"/>
               </valueCoding>
            </extension>
            <extension url="http://fhir.de/StructureDefinition/gkv/wop">
               <valueCoding>
                  <system value="https://fhir.kbv.de/CodeSystem/KBV_CS_SFHIR_ITA_WOP"/>
                  <code value="01"/>
               </valueCoding>
            </extension>
            <extension url="http://fhir.de/StructureDefinition/gkv/versichertenart">
               <valueCoding>
                  <system value="https://fhir.kbv.de/CodeSystem/KBV_CS_SFHIR_KBV_VERSICHERTENSTATUS"/>
                  <code value="1"/>
               </valueCoding>
            </extension>
            <status value="active"/>
            <type>
               <coding>
                  <system value="http://fhir.de/CodeSystem/versicherungsart-de-basis"/>
                  <code value="PKV"/>
               </coding>
            </type>
            <beneficiary>
               <reference value="Patient/85433d36-dc26-4eac-8c27-87c845e2c1be"/>
            </beneficiary>
            <payor>
               <identifier>
                  <system value="http://fhir.de/sid/arge-ik/iknr"/>
                  <value value="168140437"/>
               </identifier>
               <display value="HALLESCHE"/>
            </payor>
         </Coverage>
      </resource>
   </entry>
   <entry>
      <fullUrl value="https://pvs.gematik.de/fhir/Practitioner/394ca825-9f44-4784-898b-78f5e58689ed"/>
      <resource>
         <Practitioner xmlns="http://hl7.org/fhir">
            <id value="394ca825-9f44-4784-898b-78f5e58689ed"/>
            <meta>
               <profile value="https://fhir.kbv.de/StructureDefinition/KBV_PR_FOR_Practitioner|1.1.0"/>
            </meta>
            <identifier>
               <type>
                  <coding>
                     <system value="http://terminology.hl7.org/CodeSystem/v2-0203"/>
                     <code value="LANR"/>
                  </coding>
               </type>
               <system value="https://fhir.kbv.de/NamingSystem/KBV_NS_Base_ANR"/>
               <value value="368352769"/>
            </identifier>
            <name>
               <use value="official"/>
               <family value="Schraßer">
                  <extension url="http://hl7.org/fhir/StructureDefinition/humanname-own-name">
                     <valueString value="Schraßer"/>
                  </extension>
               </family>
               <given value="Dr."/>
               <prefix value="Dr.">
                  <extension url="http://hl7.org/fhir/StructureDefinition/iso21090-EN-qualifier">
                     <valueCode value="AC"/>
                  </extension>
               </prefix>
            </name>
            <qualification>
               <code>
                  <coding>
                     <system value="https://fhir.kbv.de/CodeSystem/KBV_CS_FOR_Qualification_Type"/>
                     <code value="00"/>
                  </coding>
               </code>
            </qualification>
            <qualification>
               <code>
                  <coding>
                     <system value="https://fhir.kbv.de/CodeSystem/KBV_CS_FOR_Berufsbezeichnung"/>
                     <code value="Berufsbezeichnung"/>
                  </coding>
                  <text value="Super-Facharzt für alles Mögliche"/>
               </code>
            </qualification>
         </Practitioner>
      </resource>
   </entry>
   <entry>
      <fullUrl value="https://pvs.gematik.de/fhir/MedicationRequest/61191280-da3e-4342-bee9-429aa47cb42c"/>
      <resource>
         <MedicationRequest xmlns="http://hl7.org/fhir">
            <id value="61191280-da3e-4342-bee9-429aa47cb42c"/>
            <meta>
               <profile value="https://fhir.kbv.de/StructureDefinition/KBV_PR_ERP_Prescription|1.1.0"/>
            </meta>
            <extension url="https://fhir.kbv.de/StructureDefinition/KBV_EX_ERP_BVG">
               <valueBoolean value="false"/>
            </extension>
            <extension url="https://fhir.kbv.de/StructureDefinition/KBV_EX_ERP_EmergencyServicesFee">
               <valueBoolean value="false"/>
            </extension>
            <extension url="https://fhir.kbv.de/StructureDefinition/KBV_EX_ERP_Multiple_Prescription">
               <extension url="Kennzeichen">
                  <valueBoolean value="false"/>
               </extension>
            </extension>
            <extension url="https://fhir.kbv.de/StructureDefinition/KBV_EX_FOR_StatusCoPayment">
               <valueCoding>
                  <system value="https://fhir.kbv.de/CodeSystem/KBV_CS_FOR_StatusCoPayment"/>
                  <code value="0"/>
               </valueCoding>
            </extension>
            <status value="active"/>
            <intent value="order"/>
            <medicationReference>
               <reference value="Medication/e0761a89-bb4d-44f8-bef8-a8eec7122c5a"/>
            </medicationReference>
            <subject>
               <reference value="Patient/f9667017-39e2-4062-8ce4-6429bbf68383"/>
            </subject>
            <authoredOn value="2024-02-08"/>
            <requester>
               <reference value="Practitioner/394ca825-9f44-4784-898b-78f5e58689ed"/>
            </requester>
            <insurance>
               <reference value="Coverage/2299b7ad-e1f9-41b6-b2cc-b1d0830a8b7f"/>
            </insurance>
            <dispenseRequest>
               <quantity>
                  <value value="1"/>
                  <system value="http://unitsofmeasure.org"/>
                  <code value="{Package}"/>
               </quantity>
            </dispenseRequest>
            <substitution>
               <allowedBoolean value="false"/>
            </substitution>
         </MedicationRequest>
      </resource>
   </entry>
</Bundle>