<?xml version="1.0" ?>
<Bundle xmlns="http://hl7.org/fhir">
    <id value="erp-abrufen-07-request-taskCloseMultiple"/>
    <meta>
        <profile value="https://gematik.de/fhir/erp/StructureDefinition/GEM_ERP_PR_CloseOperationInputBundle|1.3"/>
    </meta>
    <type value="collection"/>
    <entry>
        <fullUrl value="urn:uuid:a3ddc2b1-826d-4b81-87b2-558834e00f50"/>
        <resource>
            <MedicationDispense xmlns="http://hl7.org/fhir">
                <id value="a3ddc2b1-826d-4b81-87b2-558834e00f50"/>
                <meta>
                    <profile value="https://gematik.de/fhir/erp/StructureDefinition/GEM_ERP_PR_MedicationDispense|1.3"/>
                </meta>
                <resource>
                    <Medication xmlns="http://hl7.org/fhir">
                        <meta>
                            <profile value="https://fhir.kbv.de/StructureDefinition/KBV_PR_ERP_Medication_PZN|1.1.0"/>
                        </meta>
                        <id value="c2b10a5e-3d71-434c-86e0-824af208a2bf"/>
                        <extension url="https://fhir.kbv.de/StructureDefinition/KBV_EX_Base_Medication_Type">
                            <valueCodeableConcept>
                                <coding>
                                    <version value="http://snomed.info/sct/900000000000207008/version/20220331"/>
                                    <code value="763158003"/>
                                    <system value="http://snomed.info/sct"/>
                                    <display value="Medicinal product (product)"/>
                                </coding>
                            </valueCodeableConcept>
                        </extension>
                        <extension url="http://fhir.de/StructureDefinition/normgroesse">
                            <valueCode value="N1"/>
                        </extension>
                        <extension url="https://fhir.kbv.de/StructureDefinition/KBV_EX_ERP_Medication_Category">
                            <valueCoding>
                                <code value="00"/>
                                <system value="https://fhir.kbv.de/StructureDefinition/KBV_EX_ERP_Medication_Category"/>
                            </valueCoding>
                        </extension>
                        <extension url="https://fhir.kbv.de/StructureDefinition/KBV_EX_ERP_Medication_Vaccine">
                            <valueBoolean value="False"/>
                        </extension>
                        <code>
                            <coding>
                                <code value="14186244"/>
                                <system value="http://fhir.de/CodeSystem/ifa/pzn"/>
                            </coding>
                            <text value="FLUSARION EH50/250UG/60 PC"/>
                        </code>
                        <form>
                            <coding>
                                <code value="IHP"/>
                                <system value="https://fhir.kbv.de/CodeSystem/KBV_CS_SFHIR_KBV_DARREICHUNGSFORM"/>
                            </coding>
                        </form>
                    </Medication>
                </resource>
                <identifier>
                    <system value="https://gematik.de/fhir/erp/NamingSystem/GEM_ERP_NS_PrescriptionId"/>
                    <value value="160.000.088.357.031.88"/>
                </identifier>
                <subject>
                    <identifier>
                        <system value="http://fhir.de/sid/gkv/kvid-10"/>
                        <value value="K220635158"/>
                    </identifier>
                </subject>
                <performer>
                    <actor>
                        <identifier>
                            <system value="https://gematik.de/fhir/sid/telematik-id"/>
                            <value value="3-15.2.1456789123.191"/>
                        </identifier>
                    </actor>
                </performer>
                <status value="completed"/>
                <medicationReference>
                    <reference value="c2b10a5e-3d71-434c-86e0-824af208a2bf"/>
                </medicationReference>
                <whenHandedOver value="2021-11-30"/>
            </MedicationDispense>
        </resource>
    </entry>
    <entry>
        <fullUrl value="urn:uuid:854b6c62-8c8a-4ad6-b145-d5bac5f9f010"/>
        <resource>
            <MedicationDispense xmlns="http://hl7.org/fhir">
                <id value="854b6c62-8c8a-4ad6-b145-d5bac5f9f010"/>
                <meta>
                    <profile value="https://gematik.de/fhir/erp/StructureDefinition/GEM_ERP_PR_MedicationDispense|1.3"/>
                </meta>
                <resource>
                    <Medication xmlns="http://hl7.org/fhir">
                        <meta>
                            <profile value="https://fhir.kbv.de/StructureDefinition/KBV_PR_ERP_Medication_PZN|1.1.0"/>
                        </meta>
                        <id value="756b422f-4df0-4afe-9d54-da534a44109e"/>
                        <extension url="https://fhir.kbv.de/StructureDefinition/KBV_EX_Base_Medication_Type">
                            <valueCodeableConcept>
                                <coding>
                                    <version value="http://snomed.info/sct/900000000000207008/version/20220331"/>
                                    <code value="763158003"/>
                                    <system value="http://snomed.info/sct"/>
                                    <display value="Medicinal product (product)"/>
                                </coding>
                            </valueCodeableConcept>
                        </extension>
                        <extension url="http://fhir.de/StructureDefinition/normgroesse">
                            <valueCode value="N1"/>
                        </extension>
                        <extension url="https://fhir.kbv.de/StructureDefinition/KBV_EX_ERP_Medication_Category">
                            <valueCoding>
                                <code value="00"/>
                                <system value="https://fhir.kbv.de/StructureDefinition/KBV_EX_ERP_Medication_Category"/>
                            </valueCoding>
                        </extension>
                        <extension url="https://fhir.kbv.de/StructureDefinition/KBV_EX_ERP_Medication_Vaccine">
                            <valueBoolean value="False"/>
                        </extension>
                        <code>
                            <coding>
                                <code value="14186244"/>
                                <system value="http://fhir.de/CodeSystem/ifa/pzn"/>
                            </coding>
                            <text value="FLUSARION EH50/250UG/60 PC"/>
                        </code>
                        <form>
                            <coding>
                                <code value="IHP"/>
                                <system value="https://fhir.kbv.de/CodeSystem/KBV_CS_SFHIR_KBV_DARREICHUNGSFORM"/>
                            </coding>
                        </form>
                    </Medication>
                </resource>
                <identifier>
                    <system value="https://gematik.de/fhir/erp/NamingSystem/GEM_ERP_NS_PrescriptionId"/>
                    <value value="160.000.088.357.031.88"/>
                </identifier>
                <subject>
                    <identifier>
                        <system value="http://fhir.de/sid/gkv/kvid-10"/>
                        <value value="K220635158"/>
                    </identifier>
                </subject>
                <performer>
                    <actor>
                        <identifier>
                            <system value="https://gematik.de/fhir/sid/telematik-id"/>
                            <value value="3-15.2.1456789123.191"/>
                        </identifier>
                    </actor>
                </performer>
                <status value="completed"/>
                <medicationReference>
                    <reference value="756b422f-4df0-4afe-9d54-da534a44109e"/>
                </medicationReference>
                <whenHandedOver value="2021-11-30"/>
            </MedicationDispense>
        </resource>
    </entry>
</Bundle>
