<Bundle xmlns="http://hl7.org/fhir">
  <id value="Response-App-GETChargeItemById" />
  <meta>
    <lastUpdated value="2021-09-02T11:38:42.557+00:00" />
  </meta>
  <type value="searchset" />
  <total value="4" />
  <entry>
    <fullUrl value="https://prescriptionserver.telematik/ChargeItem/abc825bc-bc30-45f8-b109-1b343fff5c45" />
    <resource>
      <ChargeItem>
        <id value="App-ChargeItem-abc825bc-bc30-45f8-b109-1b343fff5c45" />
        <meta>
          <profile value="https://gematik.de/fhir/erpchrg/StructureDefinition/GEM_ERPCHRG_PR_ChargeItem|1.0" />
        </meta>
        <extension url="https://gematik.de/fhir/erpchrg/StructureDefinition/GEM_ERPCHRG_EX_MarkingFlag">
          <extension url="insuranceProvider">
            <valueBoolean value="false" />
          </extension>
          <extension url="subsidy">
            <valueBoolean value="false" />
          </extension>
          <extension url="taxOffice">
            <valueBoolean value="false" />
          </extension>
        </extension>
        <identifier>
          <system value="https://gematik.de/fhir/erp/NamingSystem/GEM_ERP_NS_PrescriptionId" />
          <value value="200.086.824.605.539.20" />
        </identifier>
        <status value="billable" />
        <code>
          <coding>
            <system value="http://terminology.hl7.org/CodeSystem/data-absent-reason" />
            <code value="not-applicable" />
          </coding>
        </code>
        <subject>
          <identifier>
            <system value="http://fhir.de/sid/pkv/kvid-10" />
            <value value="X234567890" />
          </identifier>
        </subject>
        <enterer>
          <identifier>
            <system value="https://gematik.de/fhir/sid/telematik-id" />
            <value value="3-SMC-B-Testkarte-883110000095957" />
          </identifier>
        </enterer>
        <enteredDate value="2021-06-01T07:13:00+05:00" />
        <supportingInformation>
          <reference value="Bundle/414ca393-dde3-4082-9a3b-3752e629e4aa" />
          <display value="https://fhir.kbv.de/StructureDefinition/KBV_PR_ERP_Bundle" />
        </supportingInformation>
        <supportingInformation>
          <reference value="Bundle/f548dde3-a319-486b-8624-6176ff41ad90" />
          <display value="http://fhir.abda.de/eRezeptAbgabedaten/StructureDefinition/DAV-PKV-PR-ERP-AbgabedatenBundle" />
        </supportingInformation>
        <supportingInformation>
          <reference value="Bundle/dffbfd6a-5712-4798-bdc8-07201eb77ab8" />
          <display value="https://gematik.de/fhir/erp/StructureDefinition/GEM_ERP_PR_Bundle" />
        </supportingInformation>
      </ChargeItem>
    </resource>
  </entry>
  <entry>
    <fullUrl value="https://prescriptionserver.telematik/Bundle/414ca393-dde3-4082-9a3b-3752e629e4aa" />
    <resource>
      <Bundle>
        <id value="414ca393-dde3-4082-9a3b-3752e629e4aa" />
        <meta>
          <lastUpdated value="2022-05-20T08:30:00Z" />
          <profile value="https://fhir.kbv.de/StructureDefinition/KBV_PR_ERP_Bundle|1.1.0" />
        </meta>
        <identifier>
          <system value="https://gematik.de/fhir/erp/NamingSystem/GEM_ERP_NS_PrescriptionId" />
          <value value="200.086.824.605.539.20" />
        </identifier>
        <type value="document" />
        <timestamp value="2022-05-20T08:30:00Z" />
        <entry>
          <fullUrl value="http://pvs.praxis.local/fhir/Composition/1e33b2b8-770b-4dc2-8d73-74c1989540c4" />
          <resource>
            <Composition>
              <id value="1e33b2b8-770b-4dc2-8d73-74c1989540c4" />
              <meta>
                <profile value="https://fhir.kbv.de/StructureDefinition/KBV_PR_ERP_Composition|1.1.0" />
              </meta>
              <extension url="https://fhir.kbv.de/StructureDefinition/KBV_EX_FOR_Legal_basis">
                <valueCoding>
                  <system value="https://fhir.kbv.de/CodeSystem/KBV_CS_SFHIR_KBV_STATUSKENNZEICHEN" />
                  <code value="00" />
                </valueCoding>
              </extension>
              <status value="final" />
              <type>
                <coding>
                  <system value="https://fhir.kbv.de/CodeSystem/KBV_CS_SFHIR_KBV_FORMULAR_ART" />
                  <code value="e16A" />
                </coding>
              </type>
              <subject>
                <reference value="Patient/30635f5d-c233-4500-94e8-6414940236aa" />
              </subject>
              <date value="2022-05-20T08:00:00Z" />
              <author>
                <reference value="Practitioner/d6f3b55d-3095-4655-96dc-da3bec21271c" />
                <type value="Practitioner" />
              </author>
              <author>
                <type value="Device" />
                <identifier>
                  <system value="https://fhir.kbv.de/NamingSystem/KBV_NS_FOR_Pruefnummer" />
                  <value value="Y/400/2107/36/999" />
                </identifier>
              </author>
              <title value="elektronische Arzneimittelverordnung" />
              <custodian>
                <reference value="Organization/2a555cd3-0543-483c-88b3-f68647620962" />
              </custodian>
              <section>
                <code>
                  <coding>
                    <system value="https://fhir.kbv.de/CodeSystem/KBV_CS_ERP_Section_Type" />
                    <code value="Prescription" />
                  </coding>
                </code>
                <entry>
                  <reference value="MedicationRequest/c40ede18-da4b-11eb-8d19-0242ac130003" />
                </entry>
              </section>
              <section>
                <code>
                  <coding>
                    <system value="https://fhir.kbv.de/CodeSystem/KBV_CS_ERP_Section_Type" />
                    <code value="Coverage" />
                  </coding>
                </code>
                <entry>
                  <reference value="Coverage/e51239e1-ba74-48e0-97fb-9754d2b05c60" />
                </entry>
              </section>
            </Composition>
          </resource>
        </entry>
        <entry>
          <fullUrl value="http://pvs.praxis.local/fhir/MedicationRequest/c40ede18-da4b-11eb-8d19-0242ac130003" />
          <resource>
            <MedicationRequest>
              <id value="c40ede18-da4b-11eb-8d19-0242ac130003" />
              <meta>
                <profile value="https://fhir.kbv.de/StructureDefinition/KBV_PR_ERP_Prescription|1.1.0" />
              </meta>
              <extension url="https://fhir.kbv.de/StructureDefinition/KBV_EX_FOR_StatusCoPayment">
                <valueCoding>
                  <system value="https://fhir.kbv.de/CodeSystem/KBV_CS_FOR_StatusCoPayment" />
                  <code value="0" />
                </valueCoding>
              </extension>
              <extension url="https://fhir.kbv.de/StructureDefinition/KBV_EX_ERP_EmergencyServicesFee">
                <valueBoolean value="false" />
              </extension>
              <extension url="https://fhir.kbv.de/StructureDefinition/KBV_EX_ERP_BVG">
                <valueBoolean value="false" />
              </extension>
              <extension url="https://fhir.kbv.de/StructureDefinition/KBV_EX_ERP_Multiple_Prescription">
                <extension url="Kennzeichen">
                  <valueBoolean value="false" />
                </extension>
              </extension>
              <status value="active" />
              <intent value="order" />
              <medicationReference>
                <reference value="Medication/125115cc-da48-11eb-8d19-0242ac130003" />
              </medicationReference>
              <subject>
                <reference value="Patient/30635f5d-c233-4500-94e8-6414940236aa" />
              </subject>
              <authoredOn value="2022-05-20" />
              <requester>
                <reference value="Practitioner/d6f3b55d-3095-4655-96dc-da3bec21271c" />
              </requester>
              <insurance>
                <reference value="Coverage/e51239e1-ba74-48e0-97fb-9754d2b05c60" />
              </insurance>
              <dispenseRequest>
                <quantity>
                  <value value="1" />
                  <system value="http://unitsofmeasure.org" />
                  <code value="{Package}" />
                </quantity>
              </dispenseRequest>
              <substitution>
                <allowedBoolean value="false" />
              </substitution>
            </MedicationRequest>
          </resource>
        </entry>
        <entry>
          <fullUrl value="http://pvs.praxis.local/fhir/Medication/125115cc-da48-11eb-8d19-0242ac130003" />
          <resource>
            <Medication>
              <id value="125115cc-da48-11eb-8d19-0242ac130003" />
              <meta>
                <profile value="https://fhir.kbv.de/StructureDefinition/KBV_PR_ERP_Medication_PZN|1.1.0" />
              </meta>
              <extension url="https://fhir.kbv.de/StructureDefinition/KBV_EX_Base_Medication_Type">
                <valueCodeableConcept>
                  <coding>
                    <system value="http://snomed.info/sct" />
                    <version value="http://snomed.info/sct/900000000000207008/version/20220331" />
                    <code value="763158003" />
                    <display value="Medicinal product (product)" />
                  </coding>
                </valueCodeableConcept>
              </extension>
              <extension url="https://fhir.kbv.de/StructureDefinition/KBV_EX_ERP_Medication_Category">
                <valueCoding>
                  <system value="https://fhir.kbv.de/CodeSystem/KBV_CS_ERP_Medication_Category" />
                  <code value="00" />
                </valueCoding>
              </extension>
              <extension url="https://fhir.kbv.de/StructureDefinition/KBV_EX_ERP_Medication_Vaccine">
                <valueBoolean value="false" />
              </extension>
              <extension url="http://fhir.de/StructureDefinition/normgroesse">
                <valueCode value="N2" />
              </extension>
              <code>
                <coding>
                  <system value="http://fhir.de/CodeSystem/ifa/pzn" />
                  <code value="10203603" />
                </coding>
                <text value="ASPIRIN 500MG UEBERZ TABL, 20 St" />
              </code>
              <form>
                <coding>
                  <system value="https://fhir.kbv.de/CodeSystem/KBV_CS_SFHIR_KBV_DARREICHUNGSFORM" />
                  <code value="UTA" />
                </coding>
              </form>
            </Medication>
          </resource>
        </entry>
        <entry>
          <fullUrl value="http://pvs.praxis.local/fhir/Patient/30635f5d-c233-4500-94e8-6414940236aa" />
          <resource>
            <Patient>
              <id value="30635f5d-c233-4500-94e8-6414940236aa" />
              <meta>
                <profile value="https://fhir.kbv.de/StructureDefinition/KBV_PR_FOR_Patient|1.1.0" />
              </meta>
              <identifier>
                <type>
                  <coding>
                    <system value="http://fhir.de/CodeSystem/identifier-type-de-basis" />
                    <code value="GKV" />
                  </coding>
                </type>
                <system value="http://fhir.de/sid/gkv/kvid-10" />
                <value value="K220645122" />
              </identifier>
              <name>
                <use value="official" />
                <family value="Schuhmann">
                  <extension url="http://hl7.org/fhir/StructureDefinition/humanname-own-name">
                    <valueString value="Schuhmann" />
                  </extension>
                </family>
                <given value="Sahra" />
              </name>
              <birthDate value="1970-12-24" />
              <address>
                <type value="both" />
                <line value="Berliner Straße 1">
                  <extension url="http://hl7.org/fhir/StructureDefinition/iso21090-ADXP-houseNumber">
                    <valueString value="1" />
                  </extension>
                  <extension url="http://hl7.org/fhir/StructureDefinition/iso21090-ADXP-streetName">
                    <valueString value="Berliner Straße" />
                  </extension>
                </line>
                <city value="Husum" />
                <postalCode value="25813" />
                <country value="D" />
              </address>
            </Patient>
          </resource>
        </entry>
        <entry>
          <fullUrl value="http://pvs.praxis.local/fhir/Practitioner/d6f3b55d-3095-4655-96dc-da3bec21271c" />
          <resource>
            <Practitioner>
              <id value="d6f3b55d-3095-4655-96dc-da3bec21271c" />
              <meta>
                <profile value="https://fhir.kbv.de/StructureDefinition/KBV_PR_FOR_Practitioner|1.1.0" />
              </meta>
              <identifier>
                <type>
                  <coding>
                    <system value="http://terminology.hl7.org/CodeSystem/v2-0203" />
                    <code value="LANR" />
                  </coding>
                </type>
                <system value="https://fhir.kbv.de/NamingSystem/KBV_NS_Base_ANR" />
                <value value="754236701" />
              </identifier>
              <name>
                <use value="official" />
                <family value="Schulz">
                  <extension url="http://hl7.org/fhir/StructureDefinition/humanname-own-name">
                    <valueString value="Schulz" />
                  </extension>
                </family>
                <given value="Ben" />
              </name>
              <qualification>
                <code>
                  <coding>
                    <system value="https://fhir.kbv.de/CodeSystem/KBV_CS_FOR_Qualification_Type" />
                    <code value="00" />
                  </coding>
                </code>
              </qualification>
              <qualification>
                <code>
                  <coding>
                    <system value="https://fhir.kbv.de/CodeSystem/KBV_CS_FOR_Berufsbezeichnung" />
                    <code value="Berufsbezeichnung" />
                  </coding>
                  <text value="Facharzt für Allgemeinmedizin" />
                </code>
              </qualification>
            </Practitioner>
          </resource>
        </entry>
        <entry>
          <fullUrl value="http://pvs.praxis.local/fhir/Organization/2a555cd3-0543-483c-88b3-f68647620962" />
          <resource>
            <Organization>
              <id value="2a555cd3-0543-483c-88b3-f68647620962" />
              <meta>
                <profile value="https://fhir.kbv.de/StructureDefinition/KBV_PR_FOR_Organization|1.1.0" />
              </meta>
              <identifier>
                <type>
                  <coding>
                    <system value="http://terminology.hl7.org/CodeSystem/v2-0203" />
                    <code value="BSNR" />
                  </coding>
                </type>
                <system value="https://fhir.kbv.de/NamingSystem/KBV_NS_Base_BSNR" />
                <value value="724444400" />
              </identifier>
              <name value="Hausarztpraxis" />
              <telecom>
                <system value="phone" />
                <value value="030321654987" />
              </telecom>
              <telecom>
                <system value="email" />
                <value value="hausarztpraxis@e-mail.de" />
              </telecom>
              <address>
                <type value="both" />
                <line value="Herbert-Lewin-Platz 2">
                  <extension url="http://hl7.org/fhir/StructureDefinition/iso21090-ADXP-houseNumber">
                    <valueString value="2" />
                  </extension>
                  <extension url="http://hl7.org/fhir/StructureDefinition/iso21090-ADXP-streetName">
                    <valueString value="Herbert-Lewin-Platz" />
                  </extension>
                </line>
                <line value="Erdgeschoss">
                  <extension url="http://hl7.org/fhir/StructureDefinition/iso21090-ADXP-additionalLocator">
                    <valueString value="Erdgeschoss" />
                  </extension>
                </line>
                <city value="Berlin" />
                <postalCode value="10623" />
                <country value="D" />
              </address>
            </Organization>
          </resource>
        </entry>
        <entry>
          <fullUrl value="http://pvs.praxis.local/fhir/Coverage/e51239e1-ba74-48e0-97fb-9754d2b05c60" />
          <resource>
            <Coverage>
              <id value="e51239e1-ba74-48e0-97fb-9754d2b05c60" />
              <meta>
                <profile value="https://fhir.kbv.de/StructureDefinition/KBV_PR_FOR_Coverage|1.1.0" />
              </meta>
              <extension url="http://fhir.de/StructureDefinition/gkv/besondere-personengruppe">
                <valueCoding>
                  <system value="https://fhir.kbv.de/CodeSystem/KBV_CS_SFHIR_KBV_PERSONENGRUPPE" />
                  <code value="00" />
                </valueCoding>
              </extension>
              <extension url="http://fhir.de/StructureDefinition/gkv/dmp-kennzeichen">
                <valueCoding>
                  <system value="https://fhir.kbv.de/CodeSystem/KBV_CS_SFHIR_KBV_DMP" />
                  <code value="00" />
                </valueCoding>
              </extension>
              <extension url="http://fhir.de/StructureDefinition/gkv/wop">
                <valueCoding>
                  <system value="https://fhir.kbv.de/CodeSystem/KBV_CS_SFHIR_ITA_WOP" />
                  <code value="01" />
                </valueCoding>
              </extension>
              <extension url="http://fhir.de/StructureDefinition/gkv/versichertenart">
                <valueCoding>
                  <system value="https://fhir.kbv.de/CodeSystem/KBV_CS_SFHIR_KBV_VERSICHERTENSTATUS" />
                  <code value="1" />
                </valueCoding>
              </extension>
              <status value="active" />
              <type>
                <coding>
                  <system value="http://fhir.de/CodeSystem/versicherungsart-de-basis" />
                  <code value="SEL" />
                </coding>
              </type>
              <beneficiary>
                <reference value="Patient/30635f5d-c233-4500-94e8-6414940236aa" />
              </beneficiary>
              <payor>
                <identifier>
                  <system value="http://fhir.de/sid/arge-ik/iknr" />
                  <value value="108018347" />
                </identifier>
                <display value="AOK Baden-Württemberg" />
              </payor>
            </Coverage>
          </resource>
        </entry>
        <signature>
          <type>
            <system value="urn:iso-astm:E1762-95:2013" />
            <code value="1.2.840.10065.1.12.1.1" />
          </type>
          <when value="2022-03-18T15:28:00+00:00" />
          <who>
            <reference value="https://erp.zentral.erp.splitdns.ti-dienste.de/Device/1" />
          </who>
          <sigFormat value="application/pkcs7-mime" />
          <data value="dGhpcyBibG9iIGlzIHNuaXBwZWQ=" />
        </signature>
      </Bundle>
    </resource>
  </entry>
  <entry>
    <fullUrl value="https://prescriptionserver.telematik/Bundle/f548dde3-a319-486b-8624-6176ff41ad90" />
    <resource>
      <Bundle>
        <id value="f548dde3-a319-486b-8624-6176ff41ad90" />
        <meta>
          <profile value="http://fhir.abda.de/eRezeptAbgabedaten/StructureDefinition/DAV-PKV-PR-ERP-AbgabedatenBundle|1.1" />
          <tag>
            <display value="Beispiel RezeptAbgabedatenPKV Bundle (FAM + Noctu + Rezeptänderung)" />
          </tag>
        </meta>
        <identifier>
          <system value="https://gematik.de/fhir/erp/NamingSystem/GEM_ERP_NS_PrescriptionId" />
          <value value="200.086.824.605.539.20" />
        </identifier>
        <type value="document" />
        <timestamp value="2022-03-25T23:40:00Z" />
        <entry>
          <fullUrl value="urn:uuid:4dc5f425-b9b6-4e39-9166-42668ead6c86" />
          <resource>
            <Composition>
              <id value="4dc5f425-b9b6-4e39-9166-42668ead6c86" />
              <meta>
                <profile value="http://fhir.abda.de/eRezeptAbgabedaten/StructureDefinition/DAV-PKV-PR-ERP-AbgabedatenComposition|1.1" />
              </meta>
              <status value="final" />
              <type>
                <coding>
                  <system value="http://fhir.abda.de/eRezeptAbgabedaten/CodeSystem/DAV-CS-ERP-CompositionTypes" />
                  <code value="ERezeptAbgabedaten" />
                </coding>
              </type>
              <date value="2022-03-25T23:40:00Z" />
              <author>
                <reference value="urn:uuid:1fa57d53-812b-4cab-a42e-94a12481108a" />
              </author>
              <title value="ERezeptAbgabedaten" />
              <section>
                <title value="Abgabeinformationen" />
                <entry>
                  <reference value="urn:uuid:37a647b8-cb89-491a-af0f-f9bffc2b386c" />
                </entry>
              </section>
              <section>
                <title value="Apotheke" />
                <entry>
                  <reference value="urn:uuid:1fa57d53-812b-4cab-a42e-94a12481108a" />
                </entry>
              </section>
            </Composition>
          </resource>
        </entry>
        <entry>
          <fullUrl value="urn:uuid:1fa57d53-812b-4cab-a42e-94a12481108a" />
          <resource>
            <Organization>
              <id value="1fa57d53-812b-4cab-a42e-94a12481108a" />
              <meta>
                <profile value="http://fhir.abda.de/eRezeptAbgabedaten/StructureDefinition/DAV-PKV-PR-ERP-Apotheke|1.1" />
              </meta>
              <identifier>
                <system value="http://fhir.de/sid/arge-ik/iknr" />
                <value value="123456789" />
              </identifier>
              <name value="Adler-Apotheke" />
              <address>
                <type value="physical" />
                <line value="Taunusstraße 89">
                  <extension url="http://hl7.org/fhir/StructureDefinition/iso21090-ADXP-streetName">
                    <valueString value="Taunusstraße" />
                  </extension>
                  <extension url="http://hl7.org/fhir/StructureDefinition/iso21090-ADXP-houseNumber">
                    <valueString value="89" />
                  </extension>
                </line>
                <city value="Langen" />
                <postalCode value="63225" />
                <country value="D" />
              </address>
            </Organization>
          </resource>
        </entry>
        <entry>
          <fullUrl value="urn:uuid:37a647b8-cb89-491a-af0f-f9bffc2b386c" />
          <resource>
            <MedicationDispense>
              <id value="37a647b8-cb89-491a-af0f-f9bffc2b386c" />
              <meta>
                <profile value="http://fhir.abda.de/eRezeptAbgabedaten/StructureDefinition/DAV-PKV-PR-ERP-Abgabeinformationen|1.1" />
              </meta>
              <extension url="http://fhir.abda.de/eRezeptAbgabedaten/StructureDefinition/DAV-EX-ERP-Abrechnungszeilen">
                <valueReference>
                  <reference value="urn:uuid:8a99bfa5-f7aa-4741-99d8-f1abbd301ae1" />
                </valueReference>
              </extension>
              <extension url="http://fhir.abda.de/eRezeptAbgabedaten/StructureDefinition/DAV-PKV-EX-ERP-AbrechnungsTyp">
                <valueCodeableConcept>
                  <coding>
                    <system value="http://fhir.abda.de/eRezeptAbgabedaten/CodeSystem/DAV-PKV-CS-ERP-AbrechnungsTyp" />
                    <code value="1" />
                  </coding>
                </valueCodeableConcept>
              </extension>
              <status value="completed" />
              <medicationCodeableConcept>
                <coding>
                  <system value="http://terminology.hl7.org/CodeSystem/data-absent-reason" />
                  <code value="not-applicable" />
                </coding>
              </medicationCodeableConcept>
              <performer>
                <actor>
                  <reference value="urn:uuid:1fa57d53-812b-4cab-a42e-94a12481108a" />
                </actor>
              </performer>
              <authorizingPrescription>
                <identifier>
                  <system value="https://gematik.de/fhir/erp/NamingSystem/GEM_ERP_NS_PrescriptionId" />
                  <value value="200.086.824.605.539.20" />
                </identifier>
              </authorizingPrescription>
              <type>
                <coding>
                  <system value="http://fhir.abda.de/eRezeptAbgabedaten/CodeSystem/DAV-CS-ERP-MedicationDispenseTyp" />
                  <code value="Abgabeinformationen" />
                </coding>
              </type>
              <whenHandedOver value="2022-03-25" />
              <substitution>
                <extension url="http://fhir.abda.de/eRezeptAbgabedaten/StructureDefinition/DAV-EX-ERP-Rezeptaenderung">
                  <extension url="ArtRezeptaenderung">
                    <valueCodeableConcept>
                      <coding>
                        <system value="http://fhir.abda.de/eRezeptAbgabedaten/CodeSystem/DAV-PKV-CS-ERP-ArtRezeptaenderung" />
                        <code value="21" />
                      </coding>
                    </valueCodeableConcept>
                  </extension>
                  <extension url="RueckspracheArzt">
                    <valueCodeableConcept>
                      <coding>
                        <system value="http://fhir.abda.de/eRezeptAbgabedaten/CodeSystem/DAV-CS-ERP-RueckspracheArzt" />
                        <code value="2" />
                      </coding>
                    </valueCodeableConcept>
                  </extension>
                </extension>
                <wasSubstituted value="true" />
              </substitution>
            </MedicationDispense>
          </resource>
        </entry>
        <entry>
          <fullUrl value="urn:uuid:8a99bfa5-f7aa-4741-99d8-f1abbd301ae1" />
          <resource>
            <Invoice>
              <id value="8a99bfa5-f7aa-4741-99d8-f1abbd301ae1" />
              <meta>
                <profile value="http://fhir.abda.de/eRezeptAbgabedaten/StructureDefinition/DAV-PKV-PR-ERP-Abrechnungszeilen|1.1" />
              </meta>
              <status value="issued" />
              <type>
                <coding>
                  <system value="http://fhir.abda.de/eRezeptAbgabedaten/CodeSystem/DAV-CS-ERP-InvoiceTyp" />
                  <code value="Abrechnungszeilen" />
                </coding>
              </type>
              <lineItem>
                <sequence value="1" />
                <chargeItemCodeableConcept>
                  <coding>
                    <system value="http://fhir.de/CodeSystem/ifa/pzn" />
                    <code value="11514676" />
                  </coding>
                </chargeItemCodeableConcept>
                <priceComponent>
                  <extension url="http://fhir.abda.de/eRezeptAbgabedaten/StructureDefinition/DAV-EX-ERP-MwStSatz">
                    <valueDecimal value="19.00" />
                  </extension>
                  <extension url="http://fhir.abda.de/eRezeptAbgabedaten/StructureDefinition/DAV-EX-ERP-KostenVersicherter">
                    <extension url="Kategorie">
                      <valueCodeableConcept>
                        <coding>
                          <system value="http://fhir.abda.de/eRezeptAbgabedaten/CodeSystem/DAV-PKV-CS-ERP-KostenVersicherterKategorie" />
                          <code value="0" />
                        </coding>
                      </valueCodeableConcept>
                    </extension>
                    <extension url="Kostenbetrag">
                      <valueMoney>
                        <value value="0" />
                        <currency value="EUR" />
                      </valueMoney>
                    </extension>
                  </extension>
                  <type value="informational" />
                  <factor value="2" />
                  <amount>
                    <value value="48.98" />
                    <currency value="EUR" />
                  </amount>
                </priceComponent>
              </lineItem>
              <lineItem>
                <extension url="http://fhir.abda.de/eRezeptAbgabedaten/StructureDefinition/DAV-EX-ERP-Zusatzattribute">
                  <extension url="ZusatzattributAbgabeNoctu">
                    <extension url="Gruppe">
                      <valueCodeableConcept>
                        <coding>
                          <system value="http://fhir.abda.de/eRezeptAbgabedaten/CodeSystem/DAV-CS-ERP-ZusatzattributGruppe" />
                          <code value="11" />
                        </coding>
                      </valueCodeableConcept>
                    </extension>
                    <extension url="DatumUhrzeit">
                      <valueDateTime value="2022-03-25T23:30:00.0Z" />
                    </extension>
                    <extension url="Schluessel">
                      <valueBoolean value="true" />
                    </extension>
                  </extension>
                </extension>
                <sequence value="2" />
                <chargeItemCodeableConcept>
                  <coding>
                    <system value="http://fhir.de/CodeSystem/ifa/pzn" />
                    <code value="02567018" />
                  </coding>
                </chargeItemCodeableConcept>
                <priceComponent>
                  <extension url="http://fhir.abda.de/eRezeptAbgabedaten/StructureDefinition/DAV-EX-ERP-MwStSatz">
                    <valueDecimal value="19.00" />
                  </extension>
                  <extension url="http://fhir.abda.de/eRezeptAbgabedaten/StructureDefinition/DAV-EX-ERP-KostenVersicherter">
                    <extension url="Kategorie">
                      <valueCodeableConcept>
                        <coding>
                          <system value="http://fhir.abda.de/eRezeptAbgabedaten/CodeSystem/DAV-PKV-CS-ERP-KostenVersicherterKategorie" />
                          <code value="0" />
                        </coding>
                      </valueCodeableConcept>
                    </extension>
                    <extension url="Kostenbetrag">
                      <valueMoney>
                        <value value="0" />
                        <currency value="EUR" />
                      </valueMoney>
                    </extension>
                  </extension>
                  <type value="informational" />
                  <factor value="1" />
                  <amount>
                    <value value="2.50" />
                    <currency value="EUR" />
                  </amount>
                </priceComponent>
              </lineItem>
              <totalGross>
                <extension url="http://fhir.abda.de/eRezeptAbgabedaten/StructureDefinition/DAV-EX-ERP-Gesamtzuzahlung">
                  <valueMoney>
                    <value value="0" />
                    <currency value="EUR" />
                  </valueMoney>
                </extension>
                <value value="51.48" />
                <currency value="EUR" />
              </totalGross>
            </Invoice>
          </resource>
        </entry>
        <signature>
          <type>
            <system value="urn:iso-astm:E1762-95:2013" />
            <code value="1.2.840.10065.1.12.1.1" />
          </type>
          <when value="2022-03-18T15:28:00+00:00" />
          <who>
            <reference value="https://pharmacy-konn/Device/1" />
          </who>
          <onBehalfOf>
            <identifier>
              <system value="https://gematik.de/fhir/sid/telematik-id" />
              <value value="3-SMC-B-Testkarte-883110000129070" />
            </identifier>
          </onBehalfOf>
          <sigFormat value="application/pkcs7-mime" />
          <data value="dGhpcyBibG9iIGlzIHNuaXBwZWQ=" />
        </signature>
      </Bundle>
    </resource>
  </entry>
  <entry>
    <fullUrl value="https://prescriptionserver.telematik/Bundle/dffbfd6a-5712-4798-bdc8-07201eb77ab8" />
    <resource>
      <Bundle>
        <id value="dffbfd6a-5712-4798-bdc8-07201eb77ab8" />
        <meta>
          <profile value="https://gematik.de/fhir/erp/StructureDefinition/GEM_ERP_PR_Bundle|1.2" />
          <tag>
            <display value="Receipt Bundle 'Quittung' for completed dispensation of a prescription" />
          </tag>
        </meta>
        <identifier>
          <system value="https://gematik.de/fhir/erp/NamingSystem/GEM_ERP_NS_PrescriptionId" />
          <value value="200.086.824.605.539.20" />
        </identifier>
        <type value="document" />
        <timestamp value="2022-03-18T15:28:00+00:00" />
        <entry>
          <fullUrl value="urn:uuid:c624cf47-e235-4624-af71-0a09dc9254dc" />
          <resource>
            <Composition>
              <id value="c624cf47-e235-4624-af71-0a09dc9254dc" />
              <meta>
                <profile value="https://gematik.de/fhir/erp/StructureDefinition/GEM_ERP_PR_Composition|1.2" />
              </meta>
              <extension url="https://gematik.de/fhir/erp/StructureDefinition/GEM_ERP_EX_Beneficiary">
                <valueIdentifier>
                  <system value="https://gematik.de/fhir/sid/telematik-id" />
                  <value value="3-SMC-B-Testkarte-883110000129070" />
                </valueIdentifier>
              </extension>
              <status value="final" />
              <type>
                <coding>
                  <system value="https://gematik.de/fhir/erp/CodeSystem/GEM_ERP_CS_DocumentType" />
                  <code value="3" />
                  <display value="Receipt" />
                </coding>
              </type>
              <date value="2022-03-18T15:29:00+00:00" />
              <author>
                <reference value="https://erp.zentral.erp.splitdns.ti-dienste.de/Device/1" />
              </author>
              <title value="Quittung" />
              <event>
                <period>
                  <start value="2022-03-18T15:28:00+00:00" />
                  <end value="2022-03-18T15:29:00+00:00" />
                </period>
              </event>
              <section>
                <entry>
                  <reference value="Binary/PrescriptionDigest-200.086.824.605.539.20" />
                </entry>
              </section>
            </Composition>
          </resource>
        </entry>
        <entry>
          <fullUrl value="https://erp.zentral.erp.splitdns.ti-dienste.de/Device/1" />
          <resource>
            <Device>
              <id value="1" />
              <meta>
                <profile value="https://gematik.de/fhir/erp/StructureDefinition/GEM_ERP_PR_Device|1.2" />
              </meta>
              <status value="active" />
              <serialNumber value="1.4.0" />
              <deviceName>
                <name value="E-Rezept-Fachdienst" />
                <type value="user-friendly-name" />
              </deviceName>
              <version>
                <value value="1.4.0" />
              </version>
              <contact>
                <system value="email" />
                <value value="betrieb@gematik.de" />
              </contact>
            </Device>
          </resource>
        </entry>
        <entry>
          <fullUrl value="https://erp.zentral.erp.splitdns.ti-dienste.de/Binary/PrescriptionDigest-200.086.824.605.539.20" />
          <resource>
            <Binary>
              <id value="PrescriptionDigest-200.086.824.605.539.20" />
              <meta>
                <profile value="https://gematik.de/fhir/erp/StructureDefinition/GEM_ERP_PR_Digest|1.2" />
              </meta>
              <contentType value="application/octet-stream" />
              <data value="tJg8c5ZtdhzEEhJ0ZpAsUVFx5dKuYgQFs5oKgthi17M=" />
            </Binary>
          </resource>
        </entry>
        <signature>
          <type>
            <system value="urn:iso-astm:E1762-95:2013" />
            <code value="1.2.840.10065.1.12.1.1" />
          </type>
          <when value="2022-03-18T15:28:00+00:00" />
          <who>
            <reference value="https://erp.zentral.erp.splitdns.ti-dienste.de/Device/1" />
          </who>
          <sigFormat value="application/pkcs7-mime" />
          <data value="dGhpcyBibG9iIGlzIHNuaXBwZWQ=" />
        </signature>
      </Bundle>
    </resource>
  </entry>
</Bundle>