{
  "resourceType": "Bundle",
  "id": "9db6b241-10f5-4600-b87e-ad61fd297813",
  "meta": {
    "profile": [
      "https://fhir.gkvsv.de/StructureDefinition/GKVSV_PR_TA7_Sammelrechnung_Bundle|1.0.6"
    ],
    "tag": [
      {
        "display": "Beispiel der TA7/eAbrechnungsdaten."
      },
      {
        "display": "ACHTUNG! Der fachlich korrekte Inhalt der Beispielinstanz kann nicht gew채hrleistet werden. Wir sind jederzeit dankbar f체r Hinweise auf Fehler oder f체r Verbesserungsvorschl채ge."
      }
    ]
  },
  "identifier": {
    "extension": [
      {
        "url": "https://fhir.gkvsv.de/StructureDefinition/GKVSV_EX_ERP_TA7_Dateinummer",
        "valueString": "00081"
      }
    ],
    "system": "https://fhir.gkvsv.de/NamingSystem/GKVSV_NS_Dateiname",
    "value": "ARZFHR21081"
  },
  "type": "document",
  "timestamp": "2021-08-10T10:00:00+00:00",
  "entry": [
    {
      "fullUrl": "urn:uuid:de82bbb4-48ef-45ab-af8f-e802fec3bf74",
      "resource": {
        "resourceType": "Composition",
        "id": "de82bbb4-48ef-45ab-af8f-e802fec3bf74",
        "meta": {
          "profile": [
            "https://fhir.gkvsv.de/StructureDefinition/GKVSV_PR_TA7_Sammelrechnung_Composition|1.0.6"
          ]
        },
        "extension": [
          {
            "url": "https://fhir.gkvsv.de/StructureDefinition/GKVSV_EX_TA7_IK_Empfaenger",
            "valueIdentifier": {
              "system": "http://fhir.de/NamingSystem/arge-ik/iknr",
              "value": "108018007"
            }
          },
          {
            "url": "https://fhir.gkvsv.de/StructureDefinition/GKVSV_EX_TA7_IK_Kostentraeger",
            "valueIdentifier": {
              "system": "http://fhir.de/NamingSystem/arge-ik/iknr",
              "value": "108018132"
            }
          }
        ],
        "status": "final",
        "type": {
          "coding": [
            {
              "system": "https://fhir.gkvsv.de/CodeSystem/GKVSV_CS_ERP_TA7",
              "code": "SR",
              "display": "Sammelrechnung"
            }
          ]
        },
        "date": "2021-07-31",
        "author": [
          {
            "identifier": {
              "system": "http://fhir.de/NamingSystem/arge-ik/iknr",
              "value": "987654321"
            }
          }
        ],
        "title": "elektronische Sammelrechnung",
        "section": [
          {
            "code": {
              "coding": [
                {
                  "system": "https://fhir.gkvsv.de/CodeSystem/GKVSV_CS_ERP_TA7",
                  "code": "LSR",
                  "display": "Liste der Sammelrechnungen"
                }
              ]
            },
            "entry": [
              {
                "reference": "urn:uuid:fd314239-5646-4ed5-bb33-9406af8224c1"
              }
            ]
          },
          {
            "code": {
              "coding": [
                {
                  "system": "https://fhir.gkvsv.de/CodeSystem/GKVSV_CS_ERP_TA7",
                  "code": "R",
                  "display": "Rechnungen"
                }
              ]
            },
            "entry": [
              {
                "reference": "urn:uuid:3dbd3ac2-0f0c-416d-9aae-ba53e5a91187"
              }
            ]
          }
        ]
      }
    },
    {
      "fullUrl": "urn:uuid:fd314239-5646-4ed5-bb33-9406af8224c1",
      "resource": {
        "resourceType": "List",
        "id": "fd314239-5646-4ed5-bb33-9406af8224c1",
        "meta": {
          "profile": [
            "https://fhir.gkvsv.de/StructureDefinition/GKVSV_PR_TA7_Sammelrechnung_List|1.0.6"
          ]
        },
        "status": "current",
        "mode": "working",
        "entry": [
          {
            "item": {
              "reference": "Bundle/9db6b241-10f5-4600-b87e-ad61fd297813"
            }
          }
        ]
      }
    },
    {
      "fullUrl": "urn:uuid:3dbd3ac2-0f0c-416d-9aae-ba53e5a91187",
      "resource": {
        "resourceType": "Invoice",
        "id": "3dbd3ac2-0f0c-416d-9aae-ba53e5a91187",
        "meta": {
          "profile": [
            "https://fhir.gkvsv.de/StructureDefinition/GKVSV_PR_TA7_Rechnung|1.0.6"
          ]
        },
        "extension": [
          {
            "url": "https://fhir.gkvsv.de/StructureDefinition/GKVSV_EX_ERP_TA7_Abrechnungszeitraum",
            "valueDateTime": "2021-07-31"
          },
          {
            "extension": [
              {
                "url": "lineItem",
                "valueReference": {
                  "reference": "urn:uuid:ccaeb11a-a0c5-4ead-86fe-ec784ccdf99c"
                }
              }
            ],
            "url": "https://fhir.gkvsv.de/StructureDefinition/GKVSV_EX_ERP_RezeptBundleReferenz"
          }
        ],
        "identifier": [
          {
            "system": "https://fhir.gkvsv.de/NamingSystem/GKVSV_NS_Sammelrechnungsnummer",
            "value": "108018347-05-100821"
          }
        ],
        "status": "issued",
        "type": {
          "coding": [
            {
              "system": "https://fhir.gkvsv.de/CodeSystem/GKVSV_CS_ERP_Rechnungsart",
              "code": "6"
            }
          ]
        },
        "recipient": {
          "identifier": {
            "system": "http://fhir.de/NamingSystem/arge-ik/iknr",
            "value": "108018132"
          }
        },
        "date": "2021-08-10"
      }
    },
    {
      "fullUrl": "urn:uuid:ccaeb11a-a0c5-4ead-86fe-ec784ccdf99c",
      "resource": {
        "resourceType": "Bundle",
        "id": "ccaeb11a-a0c5-4ead-86fe-ec784ccdf99c",
        "meta": {
          "profile": [
            "https://fhir.gkvsv.de/StructureDefinition/GKVSV_PR_TA7_RezeptBundle|1.0.6"
          ]
        },
        "type": "collection",
        "entry": [
          {
            "link": [
              {
                "relation": "item",
                "url": "https://fhir.kbv.de/StructureDefinition/KBV_PR_ERP_Bundle"
              }
            ],
            "fullUrl": "urn:uuid:a95bfd9d-de6d-4569-bf3a-4bf9079c12ba",
            "resource": {
              "resourceType": "Binary",
              "id": "a95bfd9d-de6d-4569-bf3a-4bf9079c12ba",
              "meta": {
                "profile": [
                  "https://gematik.de/fhir/StructureDefinition/ErxBinary"
                ]
              },
              "contentType": "application/pkcs7-mime",
              "data": "VmVyb3JkbnVuZ3NkYXRlbiBCZWlzcGllbCBFcnN0ZWxsdW5nIEJlaXNwaWVsIGVBYnJlY2hudW5nc2RhdGVu"
            }
          },
          {
            "link": [
              {
                "relation": "item",
                "url": "https://gematik.de/fhir/StructureDefinition/ErxReceipt"
              }
            ],
            "fullUrl": "urn:uuid:876c3052-d0d9-4dd3-96d3-f8714239306a",
            "resource": {
              "resourceType": "Bundle",
              "id": "876c3052-d0d9-4dd3-96d3-f8714239306a",
              "meta": {
                "profile": [
                  "https://gematik.de/fhir/StructureDefinition/ErxReceipt"
                ]
              },
              "identifier": {
                "system": "https://gematik.de/fhir/NamingSystem/PrescriptionID",
                "value": "160.100.000.000.024.67"
              },
              "type": "document",
              "timestamp": "2021-07-27T09:30:00+00:00",
              "link": [
                {
                  "relation": "self",
                  "url": "https://gematik.erppre.de:443/Task/160.100.000.000.024.67/$close"
                }
              ],
              "entry": [
                {
                  "fullUrl": "urn:uuid:22e57d75-b7fe-4bd7-9101-42c4d2473cb5",
                  "resource": {
                    "resourceType": "Composition",
                    "id": "22e57d75-b7fe-4bd7-9101-42c4d2473cb5",
                    "meta": {
                      "profile": [
                        "https://gematik.de/fhir/StructureDefinition/ErxComposition"
                      ]
                    },
                    "extension": [
                      {
                        "url": "https://gematik.de/fhir/StructureDefinition/BeneficiaryExtension",
                        "valueIdentifier": {
                          "system": "https://gematik.de/fhir/NamingSystem/TelematikID",
                          "value": "606358757"
                        }
                      }
                    ],
                    "status": "final",
                    "type": {
                      "coding": [
                        {
                          "system": "https://gematik.de/fhir/CodeSystem/Documenttype",
                          "code": "3",
                          "display": "Receipt"
                        }
                      ]
                    },
                    "date": "2021-07-27T09:30:00Z",
                    "author": [
                      {
                        "reference": "https://gematik.erppre.de:443/Device"
                      }
                    ],
                    "title": "Quittung",
                    "event": [
                      {
                        "period": {
                          "start": "2021-07-27T08:45:00Z",
                          "end": "2021-07-27T09:30:00Z"
                        }
                      }
                    ]
                  }
                },
                {
                  "fullUrl": "https://gematik.erppre.de:443/Device",
                  "resource": {
                    "resourceType": "Device",
                    "id": "1",
                    "meta": {
                      "profile": [
                        "https://gematik.de/fhir/StructureDefinition/ErxDevice"
                      ]
                    },
                    "status": "active",
                    "serialNumber": "0.3.1",
                    "deviceName": [
                      {
                        "name": "E-Rezept Fachdienst",
                        "type": "user-friendly-name"
                      }
                    ],
                    "version": [
                      {
                        "value": "0.3.1"
                      }
                    ],
                    "contact": [
                      {
                        "system": "email",
                        "value": "betrieb@gematik.de"
                      }
                    ]
                  }
                }
              ],
              "signature": {
                "type": [
                  {
                    "system": "urn:iso-astm:E1762-95:2013",
                    "code": "1.2.840.10065.1.12.1.1"
                  }
                ],
                "when": "2021-07-27T09:30:00+00:00",
                "who": {
                  "reference": "https://gematik.erppre.de:443/Device"
                },
                "sigFormat": "application/pkcs7-mime",
                "data": ""
              }
            }
          },
          {
            "link": [
              {
                "relation": "item",
                "url": "http://fhir.abda.de/eRezeptAbgabedaten/StructureDefinition/DAV-PR-ERP-AbgabedatenBundle"
              }
            ],
            "fullUrl": "urn:uuid:08dabea3-77af-4225-922d-ca2d910cbc54",
            "resource": {
              "resourceType": "Binary",
              "id": "08dabea3-77af-4225-922d-ca2d910cbc54",
              "meta": {
                "profile": [
                  "https://gematik.de/fhir/StructureDefinition/ErxBinary"
                ]
              },
              "contentType": "application/pkcs7-mime",
              "data": "ZUFiZ2FiZWRhdGVuIEJlaXNwaWVsIEVyc3RlbGx1bmcgQmVpc3BpZWwgZUFicmVjaG51bmdzZGF0ZW4="
            }
          },
          {
            "link": [
              {
                "relation": "item",
                "url": "https://fhir.gkvsv.de/StructureDefinition/GKVSV_PR_ERP_eAbrechnungsdaten"
              }
            ],
            "fullUrl": "urn:uuid:2aeba634-9e92-41ea-b198-6522b06c781b",
            "resource": {
              "resourceType": "Invoice",
              "id": "2aeba634-9e92-41ea-b198-6522b06c781b",
              "meta": {
                "profile": [
                  "https://fhir.gkvsv.de/StructureDefinition/GKVSV_PR_ERP_eAbrechnungsdaten|1.0.6"
                ]
              },
              "extension": [
                {
                  "url": "https://fhir.gkvsv.de/StructureDefinition/GKVSV_EX_ERP_Irrlaeufer",
                  "valueBoolean": false
                }
              ],
              "identifier": [
                {
                  "system": "https://gematik.de/fhir/NamingSystem/PrescriptionID",
                  "value": "160.100.000.000.024.67"
                },
                {
                  "system": "https://fhir.gkvsv.de/NamingSystem/GKVSV_NS_Belegnummer",
                  "value": "2105000008134560000"
                }
              ],
              "status": "issued",
              "issuer": {
                "extension": [
                  {
                    "url": "https://fhir.gkvsv.de/StructureDefinition/GKVSV_EX_ERP_LE_Sitz",
                    "valueCoding": {
                      "system": "https://fhir.gkvsv.de/CodeSystem/GKVSV_CS_ERP_Leistungserbringer_Sitz",
                      "code": "1"
                    }
                  }
                ],
                "identifier": {
                  "type": {
                    "coding": [
                      {
                        "system": "https://fhir.gkvsv.de/CodeSystem/GKVSV_CS_ERP_Leistungserbringertyp",
                        "code": "A"
                      }
                    ]
                  },
                  "system": "http://fhir.de/NamingSystem/arge-ik/iknr",
                  "value": "308412345"
                }
              },
              "lineItem": [
                {
                  "extension": [
                    {
                      "url": "https://fhir.gkvsv.de/StructureDefinition/GKVSV_EX_ERP_Positionstyp",
                      "valueCodeableConcept": {
                        "coding": [
                          {
                            "system": "https://fhir.gkvsv.de/CodeSystem/GKVSV_CS_ERP_Positionstyp",
                            "code": "1",
                            "display": "체brige Position"
                          }
                        ]
                      }
                    },
                    {
                      "url": "https://fhir.gkvsv.de/StructureDefinition/GKVSV_EX_ERP_VAT_VALUE",
                      "valueMoney": {
                        "value": 2.94,
                        "currency": "EUR"
                      }
                    },
                    {
                      "url": "https://fhir.gkvsv.de/StructureDefinition/GKVSV_EX_ERP_Import",
                      "valueCodeableConcept": {
                        "coding": [
                          {
                            "system": "https://fhir.gkvsv.de/CodeSystem/GKVSV_CS_ERP_Import",
                            "code": "0"
                          }
                        ]
                      }
                    }
                  ],
                  "sequence": 1,
                  "chargeItemCodeableConcept": {
                    "coding": [
                      {
                        "system": "http://terminology.hl7.org/CodeSystem/v3-NullFlavor",
                        "code": "UNC"
                      }
                    ]
                  },
                  "priceComponent": [
                    {
                      "type": "deduction",
                      "code": {
                        "coding": [
                          {
                            "system": "https://fhir.gkvsv.de/CodeSystem/GKVSV_CS_ERP_ZuAbschlagKey",
                            "code": "R001"
                          }
                        ]
                      },
                      "amount": {
                        "value": -1.77,
                        "currency": "EUR"
                      }
                    }
                  ]
                }
              ]
            }
          }
        ]
      }
    }
  ]
}