<Bundle xmlns="http://hl7.org/fhir">
   <id value="c89dfd1f-0000-0000-0003-000000000000"/>
   <meta>
      <profile value="https://gematik.de/fhir/erp/StructureDefinition/GEM_ERP_PR_Bundle|1.4"/>
   </meta>
   <identifier>
      <system value="https://gematik.de/fhir/erp/NamingSystem/GEM_ERP_NS_PrescriptionId"/>
      <value value="200.000.002.096.541.25"/>
   </identifier>
   <type value="document"/>
   <timestamp value="2024-02-08T18:18:03.904+00:00"/>
   <link>
      <relation value="self"/>
      <url value="https://erp-ref.zentral.erp.splitdns.ti-dienste.de/Task/200.000.002.096.541.25/$close/"/>
   </link>
   <entry>
      <fullUrl value="urn:uuid:1f623e88-4bf4-4cbd-9ebf-7e35f8735c98"/>
      <resource>
         <Composition xmlns="http://hl7.org/fhir">
            <meta>
               <profile value="https://gematik.de/fhir/erp/StructureDefinition/GEM_ERP_PR_Composition|1.4"/>
            </meta>
            <extension url="https://gematik.de/fhir/erp/StructureDefinition/GEM_ERP_EX_Beneficiary">
               <valueIdentifier>
                  <system value="https://gematik.de/fhir/sid/telematik-id"/>
                  <value value="3-SMC-B-Testkarte-883110000116873"/>
               </valueIdentifier>
            </extension>
            <status value="final"/>
            <type>
               <coding>
                  <system value="https://gematik.de/fhir/erp/CodeSystem/GEM_ERP_CS_DocumentType"/>
                  <code value="3"/>
                  <display value="Receipt"/>
               </coding>
            </type>
            <date value="2024-02-08T18:18:03.902+00:00"/>
            <author>
               <reference value="urn:uuid:3e135508-99c3-4f3d-8261-06928914bf2c"/>
            </author>
            <title value="Quittung"/>
            <event>
               <period>
                  <start value="2024-02-08T18:18:02.331+00:00"/>
                  <end value="2024-02-08T18:18:03.902+00:00"/>
               </period>
            </event>
            <section>
               <entry>
                  <reference value="urn:uuid:5916c0d1-1892-4ed0-965c-e96a45ef5607"/>
               </entry>
            </section>
         </Composition>
      </resource>
   </entry>
   <entry>
      <fullUrl value="urn:uuid:3e135508-99c3-4f3d-8261-06928914bf2c"/>
      <resource>
         <Device xmlns="http://hl7.org/fhir">
            <id value="1"/>
            <meta>
               <profile value="https://gematik.de/fhir/erp/StructureDefinition/GEM_ERP_PR_Device|1.4"/>
            </meta>
            <status value="active"/>
            <serialNumber value="1.13.0"/>
            <deviceName>
               <name value="E-Rezept Fachdienst"/>
               <type value="user-friendly-name"/>
            </deviceName>
            <version>
               <value value="1.13.0"/>
            </version>
            <contact>
               <system value="email"/>
               <value value="betrieb@gematik.de"/>
            </contact>
         </Device>
      </resource>
   </entry>
   <entry>
      <fullUrl value="urn:uuid:5916c0d1-1892-4ed0-965c-e96a45ef5607"/>
      <resource>
         <Binary xmlns="http://hl7.org/fhir">
            <meta>
               <profile value="https://gematik.de/fhir/erp/StructureDefinition/GEM_ERP_PR_Digest|1.4"/>
            </meta>
            <contentType value="application/octet-stream"/>
            <data value="ujTCAj6ZNbZ0M927JIksBMukDvLFLCRELZQoW/YiZjQ="/>
         </Binary>
      </resource>
   </entry>
   <signature>
      <type>
         <system value="urn:iso-astm:E1762-95:2013"/>
         <code value="1.2.840.10065.1.12.1.1"/>
      </type>
      <when value="2024-02-08T18:18:03.905+00:00"/>
      <who>
         <reference value="urn:uuid:3e135508-99c3-4f3d-8261-06928914bf2c"/>
      </who>
      <sigFormat value="application/pkcs7-mime"/>
      <data value=""/>
   </signature>
</Bundle>