<Bundle xmlns="http://hl7.org/fhir">
   <id value="c8ed0125-0000-0000-0003-000000000000"/>
   <meta>
      <profile value="https://gematik.de/fhir/erp/StructureDefinition/GEM_ERP_PR_Bundle|1.4"/>
   </meta>
   <identifier>
      <system value="https://gematik.de/fhir/erp/NamingSystem/GEM_ERP_NS_PrescriptionId"/>
      <value value="200.000.002.425.325.66"/>
   </identifier>
   <type value="document"/>
   <timestamp value="2025-03-28T08:08:21.474+00:00"/>
   <link>
      <relation value="self"/>
      <url value="https://erp-ref.zentral.erp.splitdns.ti-dienste.de/Task/200.000.002.425.325.66/$close/"/>
   </link>
   <entry>
      <fullUrl value="urn:uuid:cedc6293-3ad7-4824-97c2-a57506ea2b90"/>
      <resource>
         <Composition xmlns="http://hl7.org/fhir">
            <id value="cedc6293-3ad7-4824-97c2-a57506ea2b90"/>
            <meta>
               <profile value="https://gematik.de/fhir/erp/StructureDefinition/GEM_ERP_PR_Composition|1.4"/>
            </meta>
            <extension url="https://gematik.de/fhir/erp/StructureDefinition/GEM_ERP_EX_Beneficiary">
               <valueIdentifier>
                  <system value="https://gematik.de/fhir/sid/telematik-id"/>
                  <value value="3-SMC-B-Testkarte--883110000163973"/>
               </valueIdentifier>
            </extension>
            <status value="final"/>
            <type>
               <coding>
                  <system value="https://gematik.de/fhir/erp/CodeSystem/GEM_ERP_CS_DocumentType"/>
                  <code value="3"/>
                  <display value="Receipt"/>
               </coding>
            </type>
            <date value="2025-03-28T08:08:21.469+00:00"/>
            <author>
               <reference value="urn:uuid:cf84a4f4-706a-4ae9-9366-1e56b71057bd"/>
            </author>
            <title value="Quittung"/>
            <event>
               <period>
                  <start value="2025-03-28T08:08:21.208+00:00"/>
                  <end value="2025-03-28T08:08:21.469+00:00"/>
               </period>
            </event>
            <section>
               <entry>
                  <reference value="urn:uuid:5cdc7cc7-c583-4785-a3c6-633f45435ced"/>
               </entry>
            </section>
         </Composition>
      </resource>
   </entry>
   <entry>
      <fullUrl value="urn:uuid:cf84a4f4-706a-4ae9-9366-1e56b71057bd"/>
      <resource>
         <Device xmlns="http://hl7.org/fhir">
            <id value="1"/>
            <meta>
               <profile value="https://gematik.de/fhir/erp/StructureDefinition/GEM_ERP_PR_Device|1.4"/>
            </meta>
            <status value="active"/>
            <serialNumber value="1.17.0"/>
            <deviceName>
               <name value="E-Rezept Fachdienst"/>
               <type value="user-friendly-name"/>
            </deviceName>
            <version>
               <value value="1.17.0"/>
            </version>
            <contact>
               <system value="email"/>
               <value value="betrieb@gematik.de"/>
            </contact>
         </Device>
      </resource>
   </entry>
   <entry>
      <fullUrl value="urn:uuid:5cdc7cc7-c583-4785-a3c6-633f45435ced"/>
      <resource>
         <Binary xmlns="http://hl7.org/fhir">
            <id value="5cdc7cc7-c583-4785-a3c6-633f45435ced"/>
            <meta>
               <versionId value="1"/>
               <profile value="https://gematik.de/fhir/erp/StructureDefinition/GEM_ERP_PR_Digest|1.4"/>
            </meta>
            <contentType value="application/octet-stream"/>
            <data value="0wlANPz4MgzcXCC6f3QYT1TU2QRSICPH0TJzSlRnW0E="/>
         </Binary>
      </resource>
   </entry>
   <signature>
      <type>
         <system value="urn:iso-astm:E1762-95:2013"/>
         <code value="1.2.840.10065.1.12.1.1"/>
      </type>
      <when value="2025-03-28T08:08:21.475+00:00"/>
      <who>
         <reference value="urn:uuid:cf84a4f4-706a-4ae9-9366-1e56b71057bd"/>
      </who>
      <sigFormat value="application/pkcs7-mime"/>
      <data value=""/>
   </signature>
</Bundle>