<Bundle xmlns="http://hl7.org/fhir"><id value="650f4ad4-5b71-4628-8e86-159fa4f87eeb"/><meta><lastUpdated value="2025-03-28T09:08:02.779+01:00"/><profile value="http://fhir.abda.de/eRezeptAbgabedaten/StructureDefinition/DAV-PKV-PR-ERP-AbgabedatenBundle|1.3"/></meta><identifier><system value="https://gematik.de/fhir/erp/NamingSystem/GEM_ERP_NS_PrescriptionId"/><value value="200.000.002.425.319.84"/></identifier><type value="document"/><timestamp value="2025-03-28T09:08:02.779+01:00"/><entry><fullUrl value="urn:uuid:b6ed35ea-4277-458d-93d2-eca468c11b12"/><resource><Composition xmlns="http://hl7.org/fhir"><id value="b6ed35ea-4277-458d-93d2-eca468c11b12"/><meta><profile value="http://fhir.abda.de/eRezeptAbgabedaten/StructureDefinition/DAV-PKV-PR-ERP-AbgabedatenComposition|1.3"/></meta><status value="final"/><type><coding><system value="http://fhir.abda.de/eRezeptAbgabedaten/CodeSystem/DAV-CS-ERP-CompositionTypes"/><code value="ERezeptAbgabedaten"/></coding></type><date value="2025-03-28T09:08:02+01:00"/><author><reference value="urn:uuid:47daad69-eba8-425d-8ac3-cf4bd8cb4f55"/></author><title value="ERezeptAbgabedaten"/><section><title value="Apotheke"/><entry><reference value="urn:uuid:47daad69-eba8-425d-8ac3-cf4bd8cb4f55"/></entry></section><section><title value="Abgabeinformationen"/><entry><reference value="urn:uuid:445b9795-dc2e-4f69-99ee-2998c4851b5b"/></entry></section></Composition></resource></entry><entry><fullUrl value="urn:uuid:47daad69-eba8-425d-8ac3-cf4bd8cb4f55"/><resource><Organization xmlns="http://hl7.org/fhir"><id value="47daad69-eba8-425d-8ac3-cf4bd8cb4f55"/><meta><profile value="http://fhir.abda.de/eRezeptAbgabedaten/StructureDefinition/DAV-PKV-PR-ERP-Apotheke|1.3"/></meta><identifier><system value="http://fhir.de/sid/arge-ik/iknr"/><value value="474614464"/></identifier><name value="Apotheke Phillip D. Bagg"/><address><type value="physical"/><line value="Gartenstr. 62"><extension url="http://hl7.org/fhir/StructureDefinition/iso21090-ADXP-houseNumber"><valueString value="62"/></extension><extension url="http://hl7.org/fhir/StructureDefinition/iso21090-ADXP-streetName"><valueString value="Gartenstr."/></extension></line><city value="Moedefeld"/><postalCode value="14393"/><country value="MAC"/></address></Organization></resource></entry><entry><fullUrl value="urn:uuid:20aa2945-38f7-494f-a7a9-37093ee34e23"/><resource><Invoice xmlns="http://hl7.org/fhir"><id value="20aa2945-38f7-494f-a7a9-37093ee34e23"/><meta><profile value="http://fhir.abda.de/eRezeptAbgabedaten/StructureDefinition/DAV-PKV-PR-ERP-Abrechnungszeilen|1.3"/></meta><status value="issued"/><type><coding><system value="http://fhir.abda.de/eRezeptAbgabedaten/CodeSystem/DAV-CS-ERP-InvoiceTyp"/><code value="Abrechnungszeilen"/></coding></type><lineItem><sequence value="1"/><chargeItemCodeableConcept><coding><system value="http://fhir.de/CodeSystem/ifa/pzn"/><code value="96649834"/></coding><text value="Elotrans® 750 mg"/></chargeItemCodeableConcept><priceComponent><extension url="http://fhir.abda.de/eRezeptAbgabedaten/StructureDefinition/DAV-EX-ERP-KostenVersicherter"><extension url="Kategorie"><valueCodeableConcept><coding><system value="http://fhir.abda.de/eRezeptAbgabedaten/CodeSystem/DAV-PKV-CS-ERP-KostenVersicherterKategorie"/><code value="0"/></coding></valueCodeableConcept></extension><extension url="Kostenbetrag"><valueMoney><value value="42.49"/><currency value="EUR"/></valueMoney></extension></extension><extension url="http://fhir.abda.de/eRezeptAbgabedaten/StructureDefinition/DAV-EX-ERP-MwStSatz"><valueDecimal value="27.16"/></extension><type value="informational"/><factor value="1"/><amount><value value="123.56"/><currency value="EUR"/></amount></priceComponent></lineItem><totalGross><extension url="http://fhir.abda.de/eRezeptAbgabedaten/StructureDefinition/DAV-EX-ERP-Gesamtzuzahlung"><valueMoney><value value="42.49"/><currency value="EUR"/></valueMoney></extension><value value="123.56"/><currency value="EUR"/></totalGross></Invoice></resource></entry><entry><fullUrl value="urn:uuid:445b9795-dc2e-4f69-99ee-2998c4851b5b"/><resource><MedicationDispense xmlns="http://hl7.org/fhir"><id value="445b9795-dc2e-4f69-99ee-2998c4851b5b"/><meta><profile value="http://fhir.abda.de/eRezeptAbgabedaten/StructureDefinition/DAV-PKV-PR-ERP-Abgabeinformationen|1.3"/></meta><extension url="http://fhir.abda.de/eRezeptAbgabedaten/StructureDefinition/DAV-PKV-EX-ERP-AbrechnungsTyp"><valueCodeableConcept><coding><system value="http://fhir.abda.de/eRezeptAbgabedaten/CodeSystem/DAV-PKV-CS-ERP-AbrechnungsTyp"/><code value="1"/></coding></valueCodeableConcept></extension><extension url="http://fhir.abda.de/eRezeptAbgabedaten/StructureDefinition/DAV-EX-ERP-Abrechnungszeilen"><valueReference><reference value="urn:uuid:20aa2945-38f7-494f-a7a9-37093ee34e23"/></valueReference></extension><status value="completed"/><medicationCodeableConcept><coding><system value="http://terminology.hl7.org/CodeSystem/data-absent-reason"/><code value="not-applicable"/></coding></medicationCodeableConcept><performer><actor><reference value="urn:uuid:47daad69-eba8-425d-8ac3-cf4bd8cb4f55"/></actor></performer><authorizingPrescription><identifier><system value="https://gematik.de/fhir/erp/NamingSystem/GEM_ERP_NS_PrescriptionId"/><value value="200.000.002.425.319.84"/></identifier></authorizingPrescription><type><coding><system value="http://fhir.abda.de/eRezeptAbgabedaten/CodeSystem/DAV-CS-ERP-MedicationDispenseTyp"/><code value="Abgabeinformationen"/></coding></type><whenHandedOver value="2025-03-28"/></MedicationDispense></resource></entry></Bundle>