{
  "resourceType": "Bundle",
  "id": "bed9026c-30df-41a2-9b74-83de34195f1f",
  "type": "collection",
  "timestamp": "2025-03-28T08:08:03.153+00:00",
  "entry": [ {
    "fullUrl": "https://erp-ref.zentral.erp.splitdns.ti-dienste.de/ChargeItem/200.000.002.425.319.84",
    "resource": {
      "resourceType": "ChargeItem",
      "id": "200.000.002.425.319.84",
      "meta": {
        "profile": [ "https://gematik.de/fhir/erpchrg/StructureDefinition/GEM_ERPCHRG_PR_ChargeItem|1.0" ]
      },
      "extension": [ {
        "url": "https://gematik.de/fhir/erpchrg/StructureDefinition/GEM_ERPCHRG_EX_MarkingFlag",
        "extension": [ {
          "url": "insuranceProvider",
          "valueBoolean": true
        }, {
          "url": "subsidy",
          "valueBoolean": true
        }, {
          "url": "taxOffice",
          "valueBoolean": false
        } ]
      } ],
      "identifier": [ {
        "system": "https://gematik.de/fhir/erp/NamingSystem/GEM_ERP_NS_AccessCode",
        "value": "ba5dc8307be0d058aef505594cdb86fe5a2d44d51dde837735df68e11c38bbbd"
      }, {
        "system": "https://gematik.de/fhir/erp/NamingSystem/GEM_ERP_NS_PrescriptionId",
        "value": "200.000.002.425.319.84"
      } ],
      "status": "billable",
      "code": {
        "coding": [ {
          "system": "http://terminology.hl7.org/CodeSystem/data-absent-reason",
          "code": "not-applicable"
        } ]
      },
      "subject": {
        "identifier": {
          "system": "http://fhir.de/sid/pkv/kvid-10",
          "value": "X110645443"
        }
      },
      "enterer": {
        "identifier": {
          "system": "https://gematik.de/fhir/sid/telematik-id",
          "value": "3-SMC-B-Testkarte--883110000163973"
        }
      },
      "enteredDate": "2025-03-28T08:08:02.934+00:00",
      "supportingInformation": [ {
        "reference": "urn:uuid:c8e70125-0000-0000-0001-000000000000",
        "display": "https://fhir.kbv.de/StructureDefinition/KBV_PR_ERP_Bundle"
      }, {
        "reference": "urn:uuid:c8e70125-0000-0000-0004-000000000000",
        "display": "http://fhir.abda.de/eRezeptAbgabedaten/StructureDefinition/DAV-PKV-PR-ERP-AbgabedatenBundle"
      }, {
        "reference": "urn:uuid:c8e70125-0000-0000-0003-000000000000",
        "display": "https://gematik.de/fhir/erp/StructureDefinition/GEM_ERP_PR_Bundle"
      } ]
    }
  }, {
    "fullUrl": "urn:uuid:c8e70125-0000-0000-0004-000000000000",
    "resource": {
      "resourceType": "Bundle",
      "id": "650f4ad4-5b71-4628-8e86-159fa4f87eeb",
      "meta": {
        "lastUpdated": "2025-03-28T09:08:02.779+01:00",
        "profile": [ "http://fhir.abda.de/eRezeptAbgabedaten/StructureDefinition/DAV-PKV-PR-ERP-AbgabedatenBundle|1.3" ]
      },
      "identifier": {
        "system": "https://gematik.de/fhir/erp/NamingSystem/GEM_ERP_NS_PrescriptionId",
        "value": "200.000.002.425.319.84"
      },
      "type": "document",
      "timestamp": "2025-03-28T09:08:02.779+01:00",
      "entry": [ {
        "fullUrl": "urn:uuid:b6ed35ea-4277-458d-93d2-eca468c11b12",
        "resource": {
          "resourceType": "Composition",
          "meta": {
            "profile": [ "http://fhir.abda.de/eRezeptAbgabedaten/StructureDefinition/DAV-PKV-PR-ERP-AbgabedatenComposition|1.3" ]
          },
          "status": "final",
          "type": {
            "coding": [ {
              "system": "http://fhir.abda.de/eRezeptAbgabedaten/CodeSystem/DAV-CS-ERP-CompositionTypes",
              "code": "ERezeptAbgabedaten"
            } ]
          },
          "date": "2025-03-28T09:08:02+01:00",
          "author": [ {
            "reference": "urn:uuid:47daad69-eba8-425d-8ac3-cf4bd8cb4f55"
          } ],
          "title": "ERezeptAbgabedaten",
          "section": [ {
            "title": "Apotheke",
            "entry": [ {
              "reference": "urn:uuid:47daad69-eba8-425d-8ac3-cf4bd8cb4f55"
            } ]
          }, {
            "title": "Abgabeinformationen",
            "entry": [ {
              "reference": "urn:uuid:445b9795-dc2e-4f69-99ee-2998c4851b5b"
            } ]
          } ]
        }
      }, {
        "fullUrl": "urn:uuid:47daad69-eba8-425d-8ac3-cf4bd8cb4f55",
        "resource": {
          "resourceType": "Organization",
          "meta": {
            "profile": [ "http://fhir.abda.de/eRezeptAbgabedaten/StructureDefinition/DAV-PKV-PR-ERP-Apotheke|1.3" ]
          },
          "identifier": [ {
            "system": "http://fhir.de/sid/arge-ik/iknr",
            "value": "474614464"
          } ],
          "name": "Apotheke Phillip D. Bagg",
          "address": [ {
            "type": "physical",
            "line": [ "Gartenstr. 62" ],
            "_line": [ {
              "extension": [ {
                "url": "http://hl7.org/fhir/StructureDefinition/iso21090-ADXP-houseNumber",
                "valueString": "62"
              }, {
                "url": "http://hl7.org/fhir/StructureDefinition/iso21090-ADXP-streetName",
                "valueString": "Gartenstr."
              } ]
            } ],
            "city": "Moedefeld",
            "postalCode": "14393",
            "country": "MAC"
          } ]
        }
      }, {
        "fullUrl": "urn:uuid:20aa2945-38f7-494f-a7a9-37093ee34e23",
        "resource": {
          "resourceType": "Invoice",
          "meta": {
            "profile": [ "http://fhir.abda.de/eRezeptAbgabedaten/StructureDefinition/DAV-PKV-PR-ERP-Abrechnungszeilen|1.3" ]
          },
          "status": "issued",
          "type": {
            "coding": [ {
              "system": "http://fhir.abda.de/eRezeptAbgabedaten/CodeSystem/DAV-CS-ERP-InvoiceTyp",
              "code": "Abrechnungszeilen"
            } ]
          },
          "lineItem": [ {
            "sequence": 1,
            "chargeItemCodeableConcept": {
              "coding": [ {
                "system": "http://fhir.de/CodeSystem/ifa/pzn",
                "code": "96649834"
              } ],
              "text": "Elotrans® 750 mg"
            },
            "priceComponent": [ {
              "extension": [ {
                "url": "http://fhir.abda.de/eRezeptAbgabedaten/StructureDefinition/DAV-EX-ERP-KostenVersicherter",
                "extension": [ {
                  "url": "Kategorie",
                  "valueCodeableConcept": {
                    "coding": [ {
                      "system": "http://fhir.abda.de/eRezeptAbgabedaten/CodeSystem/DAV-PKV-CS-ERP-KostenVersicherterKategorie",
                      "code": "0"
                    } ]
                  }
                }, {
                  "url": "Kostenbetrag",
                  "valueMoney": {
                    "value": 42.49,
                    "currency": "EUR"
                  }
                } ]
              }, {
                "url": "http://fhir.abda.de/eRezeptAbgabedaten/StructureDefinition/DAV-EX-ERP-MwStSatz",
                "valueDecimal": 27.16
              } ],
              "type": "informational",
              "factor": 1,
              "amount": {
                "value": 123.56,
                "currency": "EUR"
              }
            } ]
          } ],
          "totalGross": {
            "extension": [ {
              "url": "http://fhir.abda.de/eRezeptAbgabedaten/StructureDefinition/DAV-EX-ERP-Gesamtzuzahlung",
              "valueMoney": {
                "value": 42.49,
                "currency": "EUR"
              }
            } ],
            "value": 123.56,
            "currency": "EUR"
          }
        }
      }, {
        "fullUrl": "urn:uuid:445b9795-dc2e-4f69-99ee-2998c4851b5b",
        "resource": {
          "resourceType": "MedicationDispense",
          "meta": {
            "profile": [ "http://fhir.abda.de/eRezeptAbgabedaten/StructureDefinition/DAV-PKV-PR-ERP-Abgabeinformationen|1.3" ]
          },
          "extension": [ {
            "url": "http://fhir.abda.de/eRezeptAbgabedaten/StructureDefinition/DAV-PKV-EX-ERP-AbrechnungsTyp",
            "valueCodeableConcept": {
              "coding": [ {
                "system": "http://fhir.abda.de/eRezeptAbgabedaten/CodeSystem/DAV-PKV-CS-ERP-AbrechnungsTyp",
                "code": "1"
              } ]
            }
          }, {
            "url": "http://fhir.abda.de/eRezeptAbgabedaten/StructureDefinition/DAV-EX-ERP-Abrechnungszeilen",
            "valueReference": {
              "reference": "urn:uuid:20aa2945-38f7-494f-a7a9-37093ee34e23"
            }
          } ],
          "status": "completed",
          "medicationCodeableConcept": {
            "coding": [ {
              "system": "http://terminology.hl7.org/CodeSystem/data-absent-reason",
              "code": "not-applicable"
            } ]
          },
          "performer": [ {
            "actor": {
              "reference": "urn:uuid:47daad69-eba8-425d-8ac3-cf4bd8cb4f55"
            }
          } ],
          "authorizingPrescription": [ {
            "identifier": {
              "system": "https://gematik.de/fhir/erp/NamingSystem/GEM_ERP_NS_PrescriptionId",
              "value": "200.000.002.425.319.84"
            }
          } ],
          "type": {
            "coding": [ {
              "system": "http://fhir.abda.de/eRezeptAbgabedaten/CodeSystem/DAV-CS-ERP-MedicationDispenseTyp",
              "code": "Abgabeinformationen"
            } ]
          },
          "whenHandedOver": "2025-03-28"
        }
      } ],
      "signature": {
        "type": [ {
          "system": "urn:iso-astm:E1762-95:2013",
          "code": "1.2.840.10065.1.12.1.1"
        } ],
        "when": "2025-03-28T08:08:03.168+00:00",
        "who": {
          "reference": "https://erp-ref.zentral.erp.splitdns.ti-dienste.de/Device/1"
        },
        "sigFormat": "application/pkcs7-mime",
        "data": ""
      }
    }
  }, {
    "fullUrl": "urn:uuid:c8e70125-0000-0000-0001-000000000000",
    "resource": {
      "resourceType": "Bundle",
      "id": "dd92f9c5-75f6-4491-9915-0d5761a1fb72",
      "meta": {
        "profile": [ "https://fhir.kbv.de/StructureDefinition/KBV_PR_ERP_Bundle|1.1.0" ]
      },
      "identifier": {
        "system": "https://gematik.de/fhir/erp/NamingSystem/GEM_ERP_NS_PrescriptionId",
        "value": "200.000.002.425.319.84"
      },
      "type": "document",
      "timestamp": "2025-03-28T09:08:01.705+01:00",
      "entry": [ {
        "fullUrl": "https://pvs.gematik.de/fhir/Composition/8cadf481-a416-4c69-b64c-6fc19f8f0b76",
        "resource": {
          "resourceType": "Composition",
          "id": "8cadf481-a416-4c69-b64c-6fc19f8f0b76",
          "meta": {
            "profile": [ "https://fhir.kbv.de/StructureDefinition/KBV_PR_ERP_Composition|1.1.0" ]
          },
          "extension": [ {
            "url": "https://fhir.kbv.de/StructureDefinition/KBV_EX_FOR_Legal_basis",
            "valueCoding": {
              "system": "https://fhir.kbv.de/CodeSystem/KBV_CS_SFHIR_KBV_STATUSKENNZEICHEN",
              "code": "00"
            }
          } ],
          "status": "final",
          "type": {
            "coding": [ {
              "system": "https://fhir.kbv.de/CodeSystem/KBV_CS_SFHIR_KBV_FORMULAR_ART",
              "code": "e16A"
            } ]
          },
          "subject": {
            "reference": "Patient/f7d522e4-9d0f-45e5-8b1e-033ed112aa56"
          },
          "date": "2025-03-28T09:08:01+01:00",
          "author": [ {
            "type": "Device",
            "identifier": {
              "system": "https://fhir.kbv.de/NamingSystem/KBV_NS_FOR_Pruefnummer",
              "value": "GEMATIK/410/2109/36/123"
            }
          }, {
            "reference": "Practitioner/a9d5847e-85c1-4941-bce6-a47febfd6082",
            "type": "Practitioner"
          } ],
          "title": "elektronische Arzneimittelverordnung",
          "custodian": {
            "reference": "Organization/535dfe9b-b82a-4de1-a2c3-b33ea73d4a33"
          },
          "section": [ {
            "code": {
              "coding": [ {
                "system": "https://fhir.kbv.de/CodeSystem/KBV_CS_ERP_Section_Type",
                "code": "Coverage"
              } ]
            },
            "entry": [ {
              "reference": "Coverage/94231dd3-5b1e-4394-a25c-bda55c25b7d9"
            } ]
          }, {
            "code": {
              "coding": [ {
                "system": "https://fhir.kbv.de/CodeSystem/KBV_CS_ERP_Section_Type",
                "code": "Prescription"
              } ]
            },
            "entry": [ {
              "reference": "MedicationRequest/faacea48-1687-4188-b9c7-a030a040c281"
            } ]
          } ]
        }
      }, {
        "fullUrl": "https://pvs.gematik.de/fhir/Coverage/94231dd3-5b1e-4394-a25c-bda55c25b7d9",
        "resource": {
          "resourceType": "Coverage",
          "id": "94231dd3-5b1e-4394-a25c-bda55c25b7d9",
          "meta": {
            "profile": [ "https://fhir.kbv.de/StructureDefinition/KBV_PR_FOR_Coverage|1.1.0" ]
          },
          "extension": [ {
            "url": "http://fhir.de/StructureDefinition/gkv/besondere-personengruppe",
            "valueCoding": {
              "system": "https://fhir.kbv.de/CodeSystem/KBV_CS_SFHIR_KBV_PERSONENGRUPPE",
              "code": "00"
            }
          }, {
            "url": "http://fhir.de/StructureDefinition/gkv/dmp-kennzeichen",
            "valueCoding": {
              "system": "https://fhir.kbv.de/CodeSystem/KBV_CS_SFHIR_KBV_DMP",
              "code": "00"
            }
          }, {
            "url": "http://fhir.de/StructureDefinition/gkv/wop",
            "valueCoding": {
              "system": "https://fhir.kbv.de/CodeSystem/KBV_CS_SFHIR_ITA_WOP",
              "code": "46"
            }
          }, {
            "url": "http://fhir.de/StructureDefinition/gkv/versichertenart",
            "valueCoding": {
              "system": "https://fhir.kbv.de/CodeSystem/KBV_CS_SFHIR_KBV_VERSICHERTENSTATUS",
              "code": "1"
            }
          } ],
          "status": "active",
          "type": {
            "coding": [ {
              "system": "http://fhir.de/CodeSystem/versicherungsart-de-basis",
              "code": "PKV"
            } ]
          },
          "beneficiary": {
            "reference": "Patient/e73c9cca-636f-4015-afb5-bb17a1757f74"
          },
          "payor": [ {
            "identifier": {
              "system": "http://fhir.de/sid/arge-ik/iknr",
              "value": "168141187"
            },
            "display": "CONCORDIA"
          } ]
        }
      }, {
        "fullUrl": "https://pvs.gematik.de/fhir/Patient/f7d522e4-9d0f-45e5-8b1e-033ed112aa56",
        "resource": {
          "resourceType": "Patient",
          "id": "f7d522e4-9d0f-45e5-8b1e-033ed112aa56",
          "meta": {
            "profile": [ "https://fhir.kbv.de/StructureDefinition/KBV_PR_FOR_Patient|1.1.0" ]
          },
          "identifier": [ {
            "type": {
              "coding": [ {
                "system": "http://fhir.de/CodeSystem/identifier-type-de-basis",
                "code": "PKV"
              } ]
            },
            "system": "http://fhir.de/sid/pkv/kvid-10",
            "value": "X110645443"
          } ],
          "name": [ {
            "use": "official",
            "family": "Angermänn",
            "_family": {
              "extension": [ {
                "url": "http://hl7.org/fhir/StructureDefinition/humanname-own-name",
                "valueString": "Angermänn"
              } ]
            },
            "given": [ "Günther" ]
          } ],
          "birthDate": "1978-05-07",
          "address": [ {
            "type": "both",
            "line": [ "Grillenweg 16" ],
            "_line": [ {
              "extension": [ {
                "url": "http://hl7.org/fhir/StructureDefinition/iso21090-ADXP-houseNumber",
                "valueString": "16"
              }, {
                "url": "http://hl7.org/fhir/StructureDefinition/iso21090-ADXP-streetName",
                "valueString": "Grillenweg"
              } ]
            } ],
            "city": "Nord Mirco",
            "postalCode": "15457",
            "country": "D"
          } ]
        }
      }, {
        "fullUrl": "https://pvs.gematik.de/fhir/Practitioner/a9d5847e-85c1-4941-bce6-a47febfd6082",
        "resource": {
          "resourceType": "Practitioner",
          "id": "a9d5847e-85c1-4941-bce6-a47febfd6082",
          "meta": {
            "profile": [ "https://fhir.kbv.de/StructureDefinition/KBV_PR_FOR_Practitioner|1.1.0" ]
          },
          "identifier": [ {
            "type": {
              "coding": [ {
                "system": "http://terminology.hl7.org/CodeSystem/v2-0203",
                "code": "LANR"
              } ]
            },
            "system": "https://fhir.kbv.de/NamingSystem/KBV_NS_Base_ANR",
            "value": "041245121"
          } ],
          "name": [ {
            "use": "official",
            "family": "Schraßer",
            "_family": {
              "extension": [ {
                "url": "http://hl7.org/fhir/StructureDefinition/humanname-own-name",
                "valueString": "Schraßer"
              } ]
            },
            "given": [ "Dr." ],
            "prefix": [ "Dr." ],
            "_prefix": [ {
              "extension": [ {
                "url": "http://hl7.org/fhir/StructureDefinition/iso21090-EN-qualifier",
                "valueCode": "AC"
              } ]
            } ]
          } ],
          "qualification": [ {
            "code": {
              "coding": [ {
                "system": "https://fhir.kbv.de/CodeSystem/KBV_CS_FOR_Qualification_Type",
                "code": "00"
              } ]
            }
          }, {
            "code": {
              "coding": [ {
                "system": "https://fhir.kbv.de/CodeSystem/KBV_CS_FOR_Berufsbezeichnung",
                "code": "Berufsbezeichnung"
              } ],
              "text": "Super-Facharzt für alles Mögliche"
            }
          } ]
        }
      }, {
        "fullUrl": "https://pvs.gematik.de/fhir/Organization/535dfe9b-b82a-4de1-a2c3-b33ea73d4a33",
        "resource": {
          "resourceType": "Organization",
          "id": "535dfe9b-b82a-4de1-a2c3-b33ea73d4a33",
          "meta": {
            "profile": [ "https://fhir.kbv.de/StructureDefinition/KBV_PR_FOR_Organization|1.1.0" ]
          },
          "identifier": [ {
            "type": {
              "coding": [ {
                "system": "http://terminology.hl7.org/CodeSystem/v2-0203",
                "code": "BSNR"
              } ]
            },
            "system": "https://fhir.kbv.de/NamingSystem/KBV_NS_Base_BSNR",
            "value": "510193848"
          } ],
          "name": "Arztpraxis Schraßer",
          "telecom": [ {
            "system": "phone",
            "value": "(0093) 260060922"
          }, {
            "system": "email",
            "value": "vivienne.schönball@otte.info"
          } ],
          "address": [ {
            "type": "both",
            "line": [ "Gluckstr. 2" ],
            "_line": [ {
              "extension": [ {
                "url": "http://hl7.org/fhir/StructureDefinition/iso21090-ADXP-houseNumber",
                "valueString": "2"
              }, {
                "url": "http://hl7.org/fhir/StructureDefinition/iso21090-ADXP-streetName",
                "valueString": "Gluckstr."
              } ]
            } ],
            "city": "Fleischerscheid",
            "postalCode": "66577",
            "country": "D"
          } ]
        }
      }, {
        "fullUrl": "https://pvs.gematik.de/fhir/Medication/e217fe1a-074e-4854-9a8f-d4a01ef8ec36",
        "resource": {
          "resourceType": "Medication",
          "id": "e217fe1a-074e-4854-9a8f-d4a01ef8ec36",
          "meta": {
            "profile": [ "https://fhir.kbv.de/StructureDefinition/KBV_PR_ERP_Medication_PZN|1.1.0" ]
          },
          "extension": [ {
            "url": "https://fhir.kbv.de/StructureDefinition/KBV_EX_Base_Medication_Type",
            "valueCodeableConcept": {
              "coding": [ {
                "system": "http://snomed.info/sct",
                "version": "http://snomed.info/sct/900000000000207008/version/20220331",
                "code": "763158003",
                "display": "Medicinal product (product)"
              } ]
            }
          }, {
            "url": "https://fhir.kbv.de/StructureDefinition/KBV_EX_ERP_Medication_Category",
            "valueCoding": {
              "system": "https://fhir.kbv.de/CodeSystem/KBV_CS_ERP_Medication_Category",
              "code": "00"
            }
          }, {
            "url": "https://fhir.kbv.de/StructureDefinition/KBV_EX_ERP_Medication_Vaccine",
            "valueBoolean": false
          }, {
            "url": "http://fhir.de/StructureDefinition/normgroesse",
            "valueCode": "NB"
          } ],
          "code": {
            "coding": [ {
              "system": "http://fhir.de/CodeSystem/ifa/pzn",
              "code": "44958715"
            } ],
            "text": "Schmerzmittel"
          },
          "form": {
            "coding": [ {
              "system": "https://fhir.kbv.de/CodeSystem/KBV_CS_SFHIR_KBV_DARREICHUNGSFORM",
              "code": "TAB"
            } ]
          },
          "amount": {
            "numerator": {
              "extension": [ {
                "url": "https://fhir.kbv.de/StructureDefinition/KBV_EX_ERP_Medication_PackagingSize",
                "valueString": "1"
              } ],
              "unit": "Stk"
            },
            "denominator": {
              "value": 1
            }
          }
        }
      }, {
        "fullUrl": "https://pvs.gematik.de/fhir/MedicationRequest/faacea48-1687-4188-b9c7-a030a040c281",
        "resource": {
          "resourceType": "MedicationRequest",
          "id": "faacea48-1687-4188-b9c7-a030a040c281",
          "meta": {
            "profile": [ "https://fhir.kbv.de/StructureDefinition/KBV_PR_ERP_Prescription|1.1.0" ]
          },
          "extension": [ {
            "url": "https://fhir.kbv.de/StructureDefinition/KBV_EX_ERP_BVG",
            "valueBoolean": false
          }, {
            "url": "https://fhir.kbv.de/StructureDefinition/KBV_EX_ERP_EmergencyServicesFee",
            "valueBoolean": false
          }, {
            "url": "https://fhir.kbv.de/StructureDefinition/KBV_EX_ERP_Multiple_Prescription",
            "extension": [ {
              "url": "Kennzeichen",
              "valueBoolean": false
            } ]
          }, {
            "url": "https://fhir.kbv.de/StructureDefinition/KBV_EX_FOR_StatusCoPayment",
            "valueCoding": {
              "system": "https://fhir.kbv.de/CodeSystem/KBV_CS_FOR_StatusCoPayment",
              "code": "0"
            }
          } ],
          "status": "active",
          "intent": "order",
          "medicationReference": {
            "reference": "Medication/e217fe1a-074e-4854-9a8f-d4a01ef8ec36"
          },
          "subject": {
            "reference": "Patient/f7d522e4-9d0f-45e5-8b1e-033ed112aa56"
          },
          "authoredOn": "2025-03-28",
          "requester": {
            "reference": "Practitioner/a9d5847e-85c1-4941-bce6-a47febfd6082"
          },
          "insurance": [ {
            "reference": "Coverage/94231dd3-5b1e-4394-a25c-bda55c25b7d9"
          } ],
          "dosageInstruction": [ {
            "extension": [ {
              "url": "https://fhir.kbv.de/StructureDefinition/KBV_EX_ERP_DosageFlag",
              "valueBoolean": true
            } ],
            "text": "1-0-1-2-0-2-2"
          } ],
          "dispenseRequest": {
            "quantity": {
              "value": 1,
              "system": "http://unitsofmeasure.org",
              "code": "{Package}"
            }
          },
          "substitution": {
            "allowedBoolean": false
          }
        }
      } ],
      "signature": {
        "type": [ {
          "system": "urn:iso-astm:E1762-95:2013",
          "code": "1.2.840.10065.1.12.1.1"
        } ],
        "when": "2025-03-28T08:08:03.166+00:00",
        "who": {
          "reference": "https://erp-ref.zentral.erp.splitdns.ti-dienste.de/Device/1"
        },
        "sigFormat": "application/pkcs7-mime",
        "data": ""
      }
    }
  }, {
    "fullUrl": "urn:uuid:c8e70125-0000-0000-0003-000000000000",
    "resource": {
      "resourceType": "Bundle",
      "id": "c8e70125-0000-0000-0003-000000000000",
      "meta": {
        "profile": [ "https://gematik.de/fhir/erp/StructureDefinition/GEM_ERP_PR_Bundle|1.4" ]
      },
      "identifier": {
        "system": "https://gematik.de/fhir/erp/NamingSystem/GEM_ERP_NS_PrescriptionId",
        "value": "200.000.002.425.319.84"
      },
      "type": "document",
      "timestamp": "2025-03-28T08:08:02.600+00:00",
      "link": [ {
        "relation": "self",
        "url": "https://erp-ref.zentral.erp.splitdns.ti-dienste.de/Task/200.000.002.425.319.84/$close/"
      } ],
      "entry": [ {
        "fullUrl": "urn:uuid:a3ddb457-e38e-4525-b1c1-a7272512d174",
        "resource": {
          "resourceType": "Composition",
          "id": "a3ddb457-e38e-4525-b1c1-a7272512d174",
          "meta": {
            "profile": [ "https://gematik.de/fhir/erp/StructureDefinition/GEM_ERP_PR_Composition|1.4" ]
          },
          "extension": [ {
            "url": "https://gematik.de/fhir/erp/StructureDefinition/GEM_ERP_EX_Beneficiary",
            "valueIdentifier": {
              "system": "https://gematik.de/fhir/sid/telematik-id",
              "value": "3-SMC-B-Testkarte--883110000163973"
            }
          } ],
          "status": "final",
          "type": {
            "coding": [ {
              "system": "https://gematik.de/fhir/erp/CodeSystem/GEM_ERP_CS_DocumentType",
              "code": "3",
              "display": "Receipt"
            } ]
          },
          "date": "2025-03-28T08:08:02.590+00:00",
          "author": [ {
            "reference": "urn:uuid:2abd405f-4511-44c4-8c4f-9ed468d208f8"
          } ],
          "title": "Quittung",
          "event": [ {
            "period": {
              "start": "2025-03-28T08:08:02.236+00:00",
              "end": "2025-03-28T08:08:02.590+00:00"
            }
          } ],
          "section": [ {
            "entry": [ {
              "reference": "urn:uuid:788ae09c-79f1-4384-befa-58332611e0ee"
            } ]
          } ]
        }
      }, {
        "fullUrl": "urn:uuid:2abd405f-4511-44c4-8c4f-9ed468d208f8",
        "resource": {
          "resourceType": "Device",
          "id": "1",
          "meta": {
            "profile": [ "https://gematik.de/fhir/erp/StructureDefinition/GEM_ERP_PR_Device|1.4" ]
          },
          "status": "active",
          "serialNumber": "1.17.0",
          "deviceName": [ {
            "name": "E-Rezept Fachdienst",
            "type": "user-friendly-name"
          } ],
          "version": [ {
            "value": "1.17.0"
          } ],
          "contact": [ {
            "system": "email",
            "value": "betrieb@gematik.de"
          } ]
        }
      }, {
        "fullUrl": "urn:uuid:788ae09c-79f1-4384-befa-58332611e0ee",
        "resource": {
          "resourceType": "Binary",
          "id": "788ae09c-79f1-4384-befa-58332611e0ee",
          "meta": {
            "versionId": "1",
            "profile": [ "https://gematik.de/fhir/erp/StructureDefinition/GEM_ERP_PR_Digest|1.4" ]
          },
          "contentType": "application/octet-stream",
          "data": "q3hsp+PNE1z5Ye8AN26aNvAXcxeVcJznQfdp2KD8D1w="
        }
      } ],
      "signature": {
        "type": [ {
          "system": "urn:iso-astm:E1762-95:2013",
          "code": "1.2.840.10065.1.12.1.1"
        } ],
        "when": "2025-03-28T08:08:03.167+00:00",
        "who": {
          "reference": "https://erp-ref.zentral.erp.splitdns.ti-dienste.de/Device/1"
        },
        "sigFormat": "application/pkcs7-mime",
        "data": ""
      }
    }
  } ]
}