<Bundle xmlns="http://hl7.org/fhir"><id value="740cfa68-c0ac-4c28-9a2c-96d21622d41a"/><meta><lastUpdated value="2023-04-21T09:31:27.553+02:00"/><profile value="https://fhir.kbv.de/StructureDefinition/KBV_PR_ERP_Bundle|1.0.2"/></meta><identifier><system value="https://gematik.de/fhir/NamingSystem/PrescriptionID"/><value value="160.000.006.315.516.34"/></identifier><type value="document"/><timestamp value="2023-04-21T09:31:27.553+02:00"/><entry><fullUrl value="https://pvs.gematik.de/fhir/Composition/adb1c84d-dcd4-461d-91d3-cb7a6aeab12a"/><resource><Composition xmlns="http://hl7.org/fhir"><id value="adb1c84d-dcd4-461d-91d3-cb7a6aeab12a"/><meta><profile value="https://fhir.kbv.de/StructureDefinition/KBV_PR_ERP_Composition|1.0.2"/></meta><extension url="https://fhir.kbv.de/StructureDefinition/KBV_EX_FOR_Legal_basis"><valueCoding><system value="https://fhir.kbv.de/CodeSystem/KBV_CS_SFHIR_KBV_STATUSKENNZEICHEN"/><code value="00"/></valueCoding></extension><status value="final"/><type><coding><system value="https://fhir.kbv.de/CodeSystem/KBV_CS_SFHIR_KBV_FORMULAR_ART"/><code value="e16A"/></coding></type><subject><reference value="Patient/c0f0501b-7554-439d-83d1-853f5372d340"/></subject><date value="2023-04-21T09:31:27+02:00"/><author><reference value="Practitioner/5f809699-fffa-4b3e-aea8-2ec448b6212a"/><type value="Practitioner"/></author><author><type value="Device"/><identifier><system value="https://fhir.kbv.de/NamingSystem/KBV_NS_FOR_Pruefnummer"/><value value="GEMATIK/410/2109/36/123"/></identifier></author><title value="elektronische Arzneimittelverordnung"/><custodian><reference value="Organization/c078408a-b246-44e1-b698-e182526ba380"/></custodian><section><code><coding><system value="https://fhir.kbv.de/CodeSystem/KBV_CS_ERP_Section_Type"/><code value="Coverage"/></coding></code><entry><reference value="Coverage/895cf1df-2b88-4734-a875-769f9f7dae87"/></entry></section><section><code><coding><system value="https://fhir.kbv.de/CodeSystem/KBV_CS_ERP_Section_Type"/><code value="Prescription"/></coding></code><entry><reference value="MedicationRequest/c1339fda-5e49-4e70-ab40-99f71462a94e"/></entry></section></Composition></resource></entry><entry><fullUrl value="https://pvs.gematik.de/fhir/MedicationRequest/c1339fda-5e49-4e70-ab40-99f71462a94e"/><resource><MedicationRequest xmlns="http://hl7.org/fhir"><id value="c1339fda-5e49-4e70-ab40-99f71462a94e"/><meta><profile value="https://fhir.kbv.de/StructureDefinition/KBV_PR_ERP_Prescription|1.0.2"/></meta><extension url="https://fhir.kbv.de/StructureDefinition/KBV_EX_ERP_BVG"><valueBoolean value="false"/></extension><extension url="https://fhir.kbv.de/StructureDefinition/KBV_EX_ERP_EmergencyServicesFee"><valueBoolean value="false"/></extension><extension url="https://fhir.kbv.de/StructureDefinition/KBV_EX_ERP_Multiple_Prescription"><extension url="Kennzeichen"><valueBoolean value="false"/></extension></extension><extension url="https://fhir.kbv.de/StructureDefinition/KBV_EX_ERP_StatusCoPayment"><valueCoding><system value="https://fhir.kbv.de/CodeSystem/KBV_CS_ERP_StatusCoPayment"/><code value="0"/></valueCoding></extension><status value="active"/><intent value="order"/><medicationReference><reference value="Medication/118d5fa5-c5c3-4137-a220-6a80c27adce5"/></medicationReference><subject><reference value="Patient/c0f0501b-7554-439d-83d1-853f5372d340"/></subject><authoredOn value="2023-04-21"/><requester><reference value="Practitioner/5f809699-fffa-4b3e-aea8-2ec448b6212a"/></requester><insurance><reference value="Coverage/895cf1df-2b88-4734-a875-769f9f7dae87"/></insurance><dosageInstruction><extension url="https://fhir.kbv.de/StructureDefinition/KBV_EX_ERP_DosageFlag"><valueBoolean value="true"/></extension><text value="1-0-0-0"/></dosageInstruction><dispenseRequest><quantity><value value="1"/><system value="http://unitsofmeasure.org"/><code value="{Package}"/></quantity></dispenseRequest><substitution><allowedBoolean value="true"/></substitution></MedicationRequest></resource></entry><entry><fullUrl value="https://pvs.gematik.de/fhir/Medication/118d5fa5-c5c3-4137-a220-6a80c27adce5"/><resource><Medication xmlns="http://hl7.org/fhir"><id value="118d5fa5-c5c3-4137-a220-6a80c27adce5"/><meta><profile value="https://fhir.kbv.de/StructureDefinition/KBV_PR_ERP_Medication_PZN|1.0.2"/></meta><extension url="https://fhir.kbv.de/StructureDefinition/KBV_EX_ERP_Medication_Category"><valueCoding><system value="https://fhir.kbv.de/CodeSystem/KBV_CS_ERP_Medication_Category"/><code value="00"/></valueCoding></extension><extension url="https://fhir.kbv.de/StructureDefinition/KBV_EX_ERP_Medication_Vaccine"><valueBoolean value="false"/></extension><extension url="http://fhir.de/StructureDefinition/normgroesse"><valueCode value="NB"/></extension><code><coding><system value="http://fhir.de/CodeSystem/ifa/pzn"/><code value="12345678"/></coding><text value="Schmerzmittel"/></code><form><coding><system value="https://fhir.kbv.de/CodeSystem/KBV_CS_SFHIR_KBV_DARREICHUNGSFORM"/><code value="TAB"/></coding></form><amount><numerator><value value="1"/><unit value="Stk"/></numerator><denominator><value value="1"/></denominator></amount></Medication></resource></entry><entry><fullUrl value="https://pvs.gematik.de/fhir/Patient/c0f0501b-7554-439d-83d1-853f5372d340"/><resource><Patient xmlns="http://hl7.org/fhir"><id value="c0f0501b-7554-439d-83d1-853f5372d340"/><meta><profile value="https://fhir.kbv.de/StructureDefinition/KBV_PR_FOR_Patient|1.0.3"/></meta><identifier><type><coding><system value="http://fhir.de/CodeSystem/identifier-type-de-basis"/><code value="GKV"/></coding></type><system value="http://fhir.de/NamingSystem/gkv/kvid-10"/><value value="X110498565"/></identifier><name><use value="official"/><family value="Hüllmann"/><given value="Sina"/></name><birthDate value="1977-08-07"/><address><type value="both"/><line value="Am Kiesberg 92"><extension url="http://hl7.org/fhir/StructureDefinition/iso21090-ADXP-houseNumber"><valueString value="92"/></extension><extension url="http://hl7.org/fhir/StructureDefinition/iso21090-ADXP-streetName"><valueString value="Am Kiesberg"/></extension></line><city value="Pippigdorf"/><postalCode value="04986"/><country value="D"/></address></Patient></resource></entry><entry><fullUrl value="https://pvs.gematik.de/fhir/Organization/c078408a-b246-44e1-b698-e182526ba380"/><resource><Organization xmlns="http://hl7.org/fhir"><id value="c078408a-b246-44e1-b698-e182526ba380"/><meta><profile value="https://fhir.kbv.de/StructureDefinition/KBV_PR_FOR_Organization|1.0.3"/></meta><identifier><type><coding><system value="http://terminology.hl7.org/CodeSystem/v2-0203"/><code value="BSNR"/></coding></type><system value="https://fhir.kbv.de/NamingSystem/KBV_NS_Base_BSNR"/><value value="559785458"/></identifier><name value="Arztpraxis Schraßer"/><telecom><system value="phone"/><value value="+49-2458-95670788"/></telecom><telecom><system value="email"/><value value="stefan.wujak@assmus.net"/></telecom><address><type value="both"/><line value="Kneippstr. 6"><extension url="http://hl7.org/fhir/StructureDefinition/iso21090-ADXP-houseNumber"><valueString value="6"/></extension><extension url="http://hl7.org/fhir/StructureDefinition/iso21090-ADXP-streetName"><valueString value="Kneippstr."/></extension></line><city value="Klein Williamheim"/><postalCode value="43226"/><country value="D"/></address></Organization></resource></entry><entry><fullUrl value="https://pvs.gematik.de/fhir/Coverage/895cf1df-2b88-4734-a875-769f9f7dae87"/><resource><Coverage xmlns="http://hl7.org/fhir"><id value="895cf1df-2b88-4734-a875-769f9f7dae87"/><meta><profile value="https://fhir.kbv.de/StructureDefinition/KBV_PR_FOR_Coverage|1.0.3"/></meta><extension url="http://fhir.de/StructureDefinition/gkv/besondere-personengruppe"><valueCoding><system value="https://fhir.kbv.de/CodeSystem/KBV_CS_SFHIR_KBV_PERSONENGRUPPE"/><code value="00"/></valueCoding></extension><extension url="http://fhir.de/StructureDefinition/gkv/dmp-kennzeichen"><valueCoding><system value="https://fhir.kbv.de/CodeSystem/KBV_CS_SFHIR_KBV_DMP"/><code value="00"/></valueCoding></extension><extension url="http://fhir.de/StructureDefinition/gkv/wop"><valueCoding><system value="https://fhir.kbv.de/CodeSystem/KBV_CS_SFHIR_ITA_WOP"/><code value="20"/></valueCoding></extension><extension url="http://fhir.de/StructureDefinition/gkv/versichertenart"><valueCoding><system value="https://fhir.kbv.de/CodeSystem/KBV_CS_SFHIR_KBV_VERSICHERTENSTATUS"/><code value="1"/></valueCoding></extension><status value="active"/><type><coding><system value="http://fhir.de/CodeSystem/versicherungsart-de-basis"/><code value="GKV"/></coding></type><beneficiary><reference value="Patient/41416108-9dd9-4229-a846-01c18b53a59a"/></beneficiary><payor><identifier><system value="http://fhir.de/NamingSystem/arge-ik/iknr"/><value value="127642620"/></identifier><display value="KOA Saarland"/></payor></Coverage></resource></entry><entry><fullUrl value="https://pvs.gematik.de/fhir/Practitioner/5f809699-fffa-4b3e-aea8-2ec448b6212a"/><resource><Practitioner xmlns="http://hl7.org/fhir"><id value="5f809699-fffa-4b3e-aea8-2ec448b6212a"/><meta><profile value="https://fhir.kbv.de/StructureDefinition/KBV_PR_FOR_Practitioner|1.0.3"/></meta><identifier><type><coding><system value="http://terminology.hl7.org/CodeSystem/v2-0203"/><code value="LANR"/></coding></type><system value="https://fhir.kbv.de/NamingSystem/KBV_NS_Base_ANR"/><value value="000416651"/></identifier><name><use value="official"/><family value="Schraßer"/><given value="Dr."/><prefix value="Dr."><extension url="http://hl7.org/fhir/StructureDefinition/iso21090-EN-qualifier"><valueCode value="AC"/></extension></prefix></name><qualification><code><coding><system value="https://fhir.kbv.de/CodeSystem/KBV_CS_FOR_Qualification_Type"/><code value="00"/></coding></code></qualification><qualification><code><text value="Super-Facharzt für alles Mögliche"/></code></qualification></Practitioner></resource></entry></Bundle>