<Bundle xmlns="http://hl7.org/fhir">
    <id value="erp-chargeItem-09-GET-ChargeItem-Response"/>
    <type value="collection"/>
    <timestamp value="2023-04-21T07:12:31.692+00:00"/>
    <entry>
        <fullUrl value="https://erp-dev.zentral.erp.splitdns.ti-dienste.de/ChargeItem/200.000.001.944.091.20"/>
        <resource>
            <ChargeItem>
                <id value="200.000.001.944.091.20-1"/>
                <meta id="ChargeItem-erp-chargeItem-04-POST-ChargeItem-Response">
                    <profile value="https://gematik.de/fhir/erpchrg/StructureDefinition/GEM_ERPCHRG_PR_ChargeItem|1.0"/>
                </meta>
                <identifier>
                    <system value="https://gematik.de/fhir/erp/NamingSystem/GEM_ERP_NS_PrescriptionId"/>
                    <value value="200.000.001.944.091.20"/>
                </identifier>
                <status value="billable"/>
                <code>
                    <coding>
                        <system value="http://terminology.hl7.org/CodeSystem/data-absent-reason"/>
                        <code value="not-applicable"/>
                    </coding>
                </code>
                <subject>
                    <identifier>
                        <system value="http://fhir.de/sid/gkv/kvid-10"/>
                        <value value="X110465770"/>
                        <assigner>
                            <display value="KOA Hamburg"/>
                        </assigner>
                    </identifier>
                </subject>
                <enterer>
                    <identifier>
                        <system value="https://gematik.de/fhir/sid/telematik-id"/>
                        <value value="3-SMC-B-Testkarte-883110000116873"/>
                    </identifier>
                </enterer>
                <enteredDate value="2023-04-21T07:12:29.316+00:00"/>
                <supportingInformation>
                    <reference value="urn:uuid:c81baa1d-0000-0000-0001-000000000000"/>
                    <display value="https://fhir.kbv.de/StructureDefinition/KBV_PR_ERP_Bundle"/>
                </supportingInformation>
                <supportingInformation>
                    <reference value="urn:uuid:c81baa1d-0000-0000-0003-000000000000"/>
                    <display value="https://gematik.de/fhir/erp/StructureDefinition/GEM_ERP_PR_Bundle"/>
                </supportingInformation>
                <supportingInformation>
                    <reference value="urn:uuid:c81baa1d-0000-0000-0004-000000000000"/>
                    <display value="http://fhir.abda.de/eRezeptAbgabedaten/StructureDefinition/DAV-PKV-PR-ERP-AbgabedatenBundle"/>
                </supportingInformation>
            </ChargeItem>
        </resource>
    </entry>
    <entry>
        <fullUrl value="urn:uuid:c81baa1d-0000-0000-0004-000000000000"/>
        <resource>
            <Bundle>
                <id value="f1909de6-7d21-443b-a2ae-230b9cb62f70-1"/>
                <meta>
                    <lastUpdated value="2023-04-21T09:12:30.215+02:00"/>
                    <profile value="http://fhir.abda.de/eRezeptAbgabedaten/StructureDefinition/DAV-PKV-PR-ERP-AbgabedatenBundle|1.1"/>
                    <tag>
                        <display value="Dies ist ein unvollständiges Beispiel. Für die vollständige Darstellung bitte die entsprechenden Profile beachten."/>
                    </tag>
                </meta>
                <type value="document"/>
            </Bundle>
        </resource>
    </entry>
    <entry>
        <fullUrl value="urn:uuid:c81baa1d-0000-0000-0001-000000000000"/>
        <resource>
            <Bundle>
                <id value="d9a98ce4-9585-4031-ba85-3719bf0fc14a"/>
                <meta>
                    <lastUpdated value="2023-04-21T09:12:25.072+02:00"/>
                    <profile value="https://fhir.kbv.de/StructureDefinition/KBV_PR_ERP_Bundle|1.1.0"/>
                    <tag>
                        <display value="Dies ist ein unvollständiges Beispiel. Für die vollständige Darstellung bitte die entsprechenden Profile beachten."/>
                    </tag>
                </meta>
                <type value="document"/>
            </Bundle>
        </resource>
    </entry>
    <entry>
        <fullUrl value="urn:uuid:c81baa1d-0000-0000-0003-000000000000"/>
        <resource>
            <Bundle>
                <id value="Inline-Instance-for-cb0a5768-ed8f-47c3-ab25-88752a6c5be8-1"/>
                <meta>
                    <profile value="https://gematik.de/fhir/erp/StructureDefinition/GEM_ERP_PR_Bundle|1.4"/>
                    <tag>
                        <display value="Dies ist ein unvollständiges Beispiel. Für die vollständige Darstellung bitte die entsprechenden Profile beachten."/>
                    </tag>
                </meta>
                <type value="document"/>
            </Bundle>
        </resource>
    </entry>
</Bundle>