<Bundle xmlns="http://hl7.org/fhir"><id value="cb3cf011-f780-4eaf-aeb1-ddc042d5ea75"/><meta><lastUpdated value="2023-04-18T08:43:10.181+02:00"/><profile value="http://fhir.abda.de/eRezeptAbgabedaten/StructureDefinition/DAV-PKV-PR-ERP-AbgabedatenBundle|1.1"/></meta><identifier><system value="https://gematik.de/fhir/erp/NamingSystem/GEM_ERP_NS_PrescriptionId"/><value value="200.000.001.943.766.25"/></identifier><type value="document"/><timestamp value="2023-04-18T08:43:10.181+02:00"/><entry><fullUrl value="urn:uuid:4d6504df-d4dd-44fb-a4a0-61b0d73dc7e0"/><resource><Composition xmlns="http://hl7.org/fhir"><id value="4d6504df-d4dd-44fb-a4a0-61b0d73dc7e0"/><meta><profile value="http://fhir.abda.de/eRezeptAbgabedaten/StructureDefinition/DAV-PKV-PR-ERP-AbgabedatenComposition|1.1"/></meta><status value="final"/><type><coding><system value="http://fhir.abda.de/eRezeptAbgabedaten/CodeSystem/DAV-CS-ERP-CompositionTypes"/><code value="ERezeptAbgabedaten"/></coding></type><date value="2023-04-18T08:43:10+02:00"/><author><reference value="urn:uuid:fa1eeca6-13e4-4657-853a-198fea9527df"/></author><title value="ERezeptAbgabedaten"/><section><title value="Apotheke"/><entry><reference value="urn:uuid:fa1eeca6-13e4-4657-853a-198fea9527df"/></entry></section><section><title value="Abgabeinformationen"/><entry><reference value="urn:uuid:8f05a12f-decd-4913-8016-cf6328d45161"/></entry></section></Composition></resource></entry><entry><fullUrl value="urn:uuid:fa1eeca6-13e4-4657-853a-198fea9527df"/><resource><Organization xmlns="http://hl7.org/fhir"><id value="fa1eeca6-13e4-4657-853a-198fea9527df"/><meta><profile value="http://fhir.abda.de/eRezeptAbgabedaten/StructureDefinition/DAV-PKV-PR-ERP-Apotheke|1.1"/></meta><identifier><system value="http://fhir.de/sid/arge-ik/iknr"/><value value="557520322"/></identifier><name value="Apotheke Buddy System"/><address><type value="physical"/><line value="Dohrgasse 320"><extension url="http://hl7.org/fhir/StructureDefinition/iso21090-ADXP-houseNumber"><valueString value="320"/></extension><extension url="http://hl7.org/fhir/StructureDefinition/iso21090-ADXP-streetName"><valueString value="Dohrgasse"/></extension></line><city value="Ost Emeliebrunn"/><postalCode value="82961"/><country value="D"/></address></Organization></resource></entry><entry><fullUrl value="urn:uuid:08c46c36-9237-4655-8096-7b6bfa52e157"/><resource><Invoice xmlns="http://hl7.org/fhir"><id value="08c46c36-9237-4655-8096-7b6bfa52e157"/><meta><profile value="http://fhir.abda.de/eRezeptAbgabedaten/StructureDefinition/DAV-PKV-PR-ERP-Abrechnungszeilen|1.1"/></meta><status value="issued"/><type><coding><system value="http://fhir.abda.de/eRezeptAbgabedaten/CodeSystem/DAV-CS-ERP-InvoiceTyp"/><code value="Abrechnungszeilen"/></coding></type><lineItem><sequence value="1"/><chargeItemCodeableConcept><coding><system value="http://fhir.de/CodeSystem/ifa/pzn"/><code value="21972053"/></coding></chargeItemCodeableConcept><priceComponent><extension url="http://fhir.abda.de/eRezeptAbgabedaten/StructureDefinition/DAV-EX-ERP-KostenVersicherter"><extension url="Kategorie"><valueCodeableConcept><coding><system value="http://fhir.abda.de/eRezeptAbgabedaten/CodeSystem/DAV-PKV-CS-ERP-KostenVersicherterKategorie"/><code value="0"/></coding></valueCodeableConcept></extension><extension url="Kostenbetrag"><valueMoney><value value="85.10"/><currency value="EUR"/></valueMoney></extension></extension><extension url="http://fhir.abda.de/eRezeptAbgabedaten/StructureDefinition/DAV-EX-ERP-MwStSatz"><valueDecimal value="19.04"/></extension><type value="informational"/><factor value="1"/><amount><value value="573.82"/><currency value="EUR"/></amount></priceComponent></lineItem><totalGross><extension url="http://fhir.abda.de/eRezeptAbgabedaten/StructureDefinition/DAV-EX-ERP-Gesamtzuzahlung"><valueMoney><value value="85.10"/><currency value="EUR"/></valueMoney></extension><value value="573.82"/><currency value="EUR"/></totalGross></Invoice></resource></entry><entry><fullUrl value="urn:uuid:8f05a12f-decd-4913-8016-cf6328d45161"/><resource><MedicationDispense xmlns="http://hl7.org/fhir"><id value="8f05a12f-decd-4913-8016-cf6328d45161"/><meta><profile value="http://fhir.abda.de/eRezeptAbgabedaten/StructureDefinition/DAV-PKV-PR-ERP-Abgabeinformationen|1.1"/></meta><extension url="http://fhir.abda.de/eRezeptAbgabedaten/StructureDefinition/DAV-PKV-EX-ERP-AbrechnungsTyp"><valueCodeableConcept><coding><system value="http://fhir.abda.de/eRezeptAbgabedaten/CodeSystem/DAV-PKV-CS-ERP-AbrechnungsTyp"/><code value="1"/></coding></valueCodeableConcept></extension><extension url="http://fhir.abda.de/eRezeptAbgabedaten/StructureDefinition/DAV-EX-ERP-Abrechnungszeilen"><valueReference><reference value="urn:uuid:08c46c36-9237-4655-8096-7b6bfa52e157"/></valueReference></extension><status value="completed"/><medicationCodeableConcept><coding><system value="http://terminology.hl7.org/CodeSystem/data-absent-reason"/><code value="not-applicable"/></coding></medicationCodeableConcept><performer><actor><reference value="urn:uuid:fa1eeca6-13e4-4657-853a-198fea9527df"/></actor></performer><authorizingPrescription><identifier><system value="https://gematik.de/fhir/erp/NamingSystem/GEM_ERP_NS_PrescriptionId"/><value value="200.000.001.943.766.25"/></identifier></authorizingPrescription><type><coding><system value="http://fhir.abda.de/eRezeptAbgabedaten/CodeSystem/DAV-CS-ERP-MedicationDispenseTyp"/><code value="Abgabeinformationen"/></coding></type><whenHandedOver value="2023-04-18"/></MedicationDispense></resource></entry></Bundle>