<Bundle xmlns="http://hl7.org/fhir"><id value="981ece5d-2c2e-414d-8f11-9110234aba3d"/><meta><lastUpdated value="2023-04-18T08:43:11.041+02:00"/><profile value="http://fhir.abda.de/eRezeptAbgabedaten/StructureDefinition/DAV-PKV-PR-ERP-AbgabedatenBundle|1.1"/></meta><identifier><system value="https://gematik.de/fhir/erp/NamingSystem/GEM_ERP_NS_PrescriptionId"/><value value="200.000.001.943.766.25"/></identifier><type value="document"/><timestamp value="2023-04-18T08:43:11.041+02:00"/><entry><fullUrl value="urn:uuid:0a9388c1-33ac-4597-bdce-5b979f733cb6"/><resource><Composition xmlns="http://hl7.org/fhir"><id value="0a9388c1-33ac-4597-bdce-5b979f733cb6"/><meta><profile value="http://fhir.abda.de/eRezeptAbgabedaten/StructureDefinition/DAV-PKV-PR-ERP-AbgabedatenComposition|1.1"/></meta><status value="final"/><type><coding><system value="http://fhir.abda.de/eRezeptAbgabedaten/CodeSystem/DAV-CS-ERP-CompositionTypes"/><code value="ERezeptAbgabedaten"/></coding></type><date value="2023-04-18T08:43:11+02:00"/><author><reference value="urn:uuid:566b8cdf-502b-4ddc-ba00-74dd79725559"/></author><title value="ERezeptAbgabedaten"/><section><title value="Apotheke"/><entry><reference value="urn:uuid:566b8cdf-502b-4ddc-ba00-74dd79725559"/></entry></section><section><title value="Abgabeinformationen"/><entry><reference value="urn:uuid:04c4a8a7-f623-45a5-a98f-5e9db5187e87"/></entry></section></Composition></resource></entry><entry><fullUrl value="urn:uuid:566b8cdf-502b-4ddc-ba00-74dd79725559"/><resource><Organization xmlns="http://hl7.org/fhir"><id value="566b8cdf-502b-4ddc-ba00-74dd79725559"/><meta><profile value="http://fhir.abda.de/eRezeptAbgabedaten/StructureDefinition/DAV-PKV-PR-ERP-Apotheke|1.1"/></meta><identifier><system value="http://fhir.de/sid/arge-ik/iknr"/><value value="949636195"/></identifier><name value="Apotheke Liv Good"/><address><type value="physical"/><line value="Ludwig-Erhard-Platz 30c"><extension url="http://hl7.org/fhir/StructureDefinition/iso21090-ADXP-houseNumber"><valueString value="30c"/></extension><extension url="http://hl7.org/fhir/StructureDefinition/iso21090-ADXP-streetName"><valueString value="Ludwig-Erhard-Platz"/></extension></line><city value="Annybrunn"/><postalCode value="21834"/><country value="D"/></address></Organization></resource></entry><entry><fullUrl value="urn:uuid:c686e205-65ed-4215-9120-e1a171c665ed"/><resource><Invoice xmlns="http://hl7.org/fhir"><id value="c686e205-65ed-4215-9120-e1a171c665ed"/><meta><profile value="http://fhir.abda.de/eRezeptAbgabedaten/StructureDefinition/DAV-PKV-PR-ERP-Abrechnungszeilen|1.1"/></meta><status value="issued"/><type><coding><system value="http://fhir.abda.de/eRezeptAbgabedaten/CodeSystem/DAV-CS-ERP-InvoiceTyp"/><code value="Abrechnungszeilen"/></coding></type><lineItem><sequence value="1"/><chargeItemCodeableConcept><coding><system value="http://fhir.de/CodeSystem/ifa/pzn"/><code value="31392163"/></coding></chargeItemCodeableConcept><priceComponent><extension url="http://fhir.abda.de/eRezeptAbgabedaten/StructureDefinition/DAV-EX-ERP-KostenVersicherter"><extension url="Kategorie"><valueCodeableConcept><coding><system value="http://fhir.abda.de/eRezeptAbgabedaten/CodeSystem/DAV-PKV-CS-ERP-KostenVersicherterKategorie"/><code value="0"/></coding></valueCodeableConcept></extension><extension url="Kostenbetrag"><valueMoney><value value="85.19"/><currency value="EUR"/></valueMoney></extension></extension><extension url="http://fhir.abda.de/eRezeptAbgabedaten/StructureDefinition/DAV-EX-ERP-MwStSatz"><valueDecimal value="29.67"/></extension><type value="informational"/><factor value="1"/><amount><value value="361.95"/><currency value="EUR"/></amount></priceComponent></lineItem><totalGross><extension url="http://fhir.abda.de/eRezeptAbgabedaten/StructureDefinition/DAV-EX-ERP-Gesamtzuzahlung"><valueMoney><value value="85.19"/><currency value="EUR"/></valueMoney></extension><value value="361.95"/><currency value="EUR"/></totalGross></Invoice></resource></entry><entry><fullUrl value="urn:uuid:04c4a8a7-f623-45a5-a98f-5e9db5187e87"/><resource><MedicationDispense xmlns="http://hl7.org/fhir"><id value="04c4a8a7-f623-45a5-a98f-5e9db5187e87"/><meta><profile value="http://fhir.abda.de/eRezeptAbgabedaten/StructureDefinition/DAV-PKV-PR-ERP-Abgabeinformationen|1.1"/></meta><extension url="http://fhir.abda.de/eRezeptAbgabedaten/StructureDefinition/DAV-PKV-EX-ERP-AbrechnungsTyp"><valueCodeableConcept><coding><system value="http://fhir.abda.de/eRezeptAbgabedaten/CodeSystem/DAV-PKV-CS-ERP-AbrechnungsTyp"/><code value="1"/></coding></valueCodeableConcept></extension><extension url="http://fhir.abda.de/eRezeptAbgabedaten/StructureDefinition/DAV-EX-ERP-Abrechnungszeilen"><valueReference><reference value="urn:uuid:c686e205-65ed-4215-9120-e1a171c665ed"/></valueReference></extension><status value="completed"/><medicationCodeableConcept><coding><system value="http://terminology.hl7.org/CodeSystem/data-absent-reason"/><code value="not-applicable"/></coding></medicationCodeableConcept><performer><actor><reference value="urn:uuid:566b8cdf-502b-4ddc-ba00-74dd79725559"/></actor></performer><authorizingPrescription><identifier><system value="https://gematik.de/fhir/erp/NamingSystem/GEM_ERP_NS_PrescriptionId"/><value value="200.000.001.943.766.25"/></identifier></authorizingPrescription><type><coding><system value="http://fhir.abda.de/eRezeptAbgabedaten/CodeSystem/DAV-CS-ERP-MedicationDispenseTyp"/><code value="Abgabeinformationen"/></coding></type><whenHandedOver value="2023-04-18"/></MedicationDispense></resource></entry></Bundle>