<Bundle xmlns="http://hl7.org/fhir"><id value="668d4190-c092-4b82-b376-d7a81fb5cf26"/><meta><lastUpdated value="2023-11-27T08:36:43.882+01:00"/><profile value="http://fhir.abda.de/eRezeptAbgabedaten/StructureDefinition/DAV-PKV-PR-ERP-AbgabedatenBundle|1.2"/></meta><identifier><system value="https://gematik.de/fhir/erp/NamingSystem/GEM_ERP_NS_PrescriptionId"/><value value="200.000.000.042.780.62"/></identifier><type value="document"/><timestamp value="2023-11-27T08:36:43.882+01:00"/><entry><fullUrl value="urn:uuid:964c54b3-09ab-4343-9077-20dc91b33a75"/><resource><Composition xmlns="http://hl7.org/fhir"><id value="964c54b3-09ab-4343-9077-20dc91b33a75"/><meta><profile value="http://fhir.abda.de/eRezeptAbgabedaten/StructureDefinition/DAV-PKV-PR-ERP-AbgabedatenComposition|1.2"/></meta><status value="final"/><type><coding><system value="http://fhir.abda.de/eRezeptAbgabedaten/CodeSystem/DAV-CS-ERP-CompositionTypes"/><code value="ERezeptAbgabedaten"/></coding></type><date value="2023-11-27T08:36:43+01:00"/><author><reference value="urn:uuid:d27742b3-2b73-4347-b17c-e83f5fc4bb4d"/></author><title value="ERezeptAbgabedaten"/><section><title value="Apotheke"/><entry><reference value="urn:uuid:d27742b3-2b73-4347-b17c-e83f5fc4bb4d"/></entry></section><section><title value="Abgabeinformationen"/><entry><reference value="urn:uuid:a40a82d7-8053-4b8e-8b88-4259fb655870"/></entry></section></Composition></resource></entry><entry><fullUrl value="urn:uuid:d27742b3-2b73-4347-b17c-e83f5fc4bb4d"/><resource><Organization xmlns="http://hl7.org/fhir"><id value="d27742b3-2b73-4347-b17c-e83f5fc4bb4d"/><meta><profile value="http://fhir.abda.de/eRezeptAbgabedaten/StructureDefinition/DAV-PKV-PR-ERP-Apotheke|1.2"/></meta><identifier><system value="http://fhir.de/sid/arge-ik/iknr"/><value value="196229520"/></identifier><name value="Apotheke Barry D'Alive"/><address><type value="physical"/><line value="Kruppstr. 260"><extension url="http://hl7.org/fhir/StructureDefinition/iso21090-ADXP-houseNumber"><valueString value="260"/></extension><extension url="http://hl7.org/fhir/StructureDefinition/iso21090-ADXP-streetName"><valueString value="Kruppstr."/></extension></line><city value="Schüppelgrün"/><postalCode value="00894"/><country value="D"/></address></Organization></resource></entry><entry><fullUrl value="urn:uuid:6927a51f-b0b8-4e98-a2e6-be53243251bf"/><resource><Invoice xmlns="http://hl7.org/fhir"><id value="6927a51f-b0b8-4e98-a2e6-be53243251bf"/><meta><profile value="http://fhir.abda.de/eRezeptAbgabedaten/StructureDefinition/DAV-PKV-PR-ERP-Abrechnungszeilen|1.2"/></meta><status value="issued"/><type><coding><system value="http://fhir.abda.de/eRezeptAbgabedaten/CodeSystem/DAV-CS-ERP-InvoiceTyp"/><code value="Abrechnungszeilen"/></coding></type><lineItem><sequence value="1"/><chargeItemCodeableConcept><coding><system value="http://fhir.de/CodeSystem/ifa/pzn"/><code value="15765145"/></coding><text value="Eculglucorat"/></chargeItemCodeableConcept><priceComponent><extension url="http://fhir.abda.de/eRezeptAbgabedaten/StructureDefinition/DAV-EX-ERP-KostenVersicherter"><extension url="Kategorie"><valueCodeableConcept><coding><system value="http://fhir.abda.de/eRezeptAbgabedaten/CodeSystem/DAV-PKV-CS-ERP-KostenVersicherterKategorie"/><code value="0"/></coding></valueCodeableConcept></extension><extension url="Kostenbetrag"><valueMoney><value value="16.25"/><currency value="EUR"/></valueMoney></extension></extension><extension url="http://fhir.abda.de/eRezeptAbgabedaten/StructureDefinition/DAV-EX-ERP-MwStSatz"><valueDecimal value="26.85"/></extension><type value="informational"/><factor value="1"/><amount><value value="29.40"/><currency value="EUR"/></amount></priceComponent></lineItem><totalGross><extension url="http://fhir.abda.de/eRezeptAbgabedaten/StructureDefinition/DAV-EX-ERP-Gesamtzuzahlung"><valueMoney><value value="16.25"/><currency value="EUR"/></valueMoney></extension><value value="29.40"/><currency value="EUR"/></totalGross></Invoice></resource></entry><entry><fullUrl value="urn:uuid:a40a82d7-8053-4b8e-8b88-4259fb655870"/><resource><MedicationDispense xmlns="http://hl7.org/fhir"><id value="a40a82d7-8053-4b8e-8b88-4259fb655870"/><meta><profile value="http://fhir.abda.de/eRezeptAbgabedaten/StructureDefinition/DAV-PKV-PR-ERP-Abgabeinformationen|1.2"/></meta><extension url="http://fhir.abda.de/eRezeptAbgabedaten/StructureDefinition/DAV-PKV-EX-ERP-AbrechnungsTyp"><valueCodeableConcept><coding><system value="http://fhir.abda.de/eRezeptAbgabedaten/CodeSystem/DAV-PKV-CS-ERP-AbrechnungsTyp"/><code value="1"/></coding></valueCodeableConcept></extension><extension url="http://fhir.abda.de/eRezeptAbgabedaten/StructureDefinition/DAV-EX-ERP-Abrechnungszeilen"><valueReference><reference value="urn:uuid:6927a51f-b0b8-4e98-a2e6-be53243251bf"/></valueReference></extension><status value="completed"/><medicationCodeableConcept><coding><system value="http://terminology.hl7.org/CodeSystem/data-absent-reason"/><code value="not-applicable"/></coding></medicationCodeableConcept><performer><actor><reference value="urn:uuid:d27742b3-2b73-4347-b17c-e83f5fc4bb4d"/></actor></performer><authorizingPrescription><identifier><system value="https://gematik.de/fhir/erp/NamingSystem/GEM_ERP_NS_PrescriptionId"/><value value="200.000.000.042.780.62"/></identifier></authorizingPrescription><type><coding><system value="http://fhir.abda.de/eRezeptAbgabedaten/CodeSystem/DAV-CS-ERP-MedicationDispenseTyp"/><code value="Abgabeinformationen"/></coding></type><whenHandedOver value="2023-11-27"/></MedicationDispense></resource></entry></Bundle>