{
  "resourceType": "Bundle",
  "id": "374364a6-fd72-4711-8527-e0ceaadc0f3c",
  "meta": {
    "profile": [
      "http://fhir.abda.de/eRezeptAbgabedaten/StructureDefinition/DAV-PR-ERP-AbgabedatenBundle|1.4"
    ],
    "tag": [
      {
        "display": "Beispiel für Abgabedaten für eine PZN-Mehrfachverordnung 2/4 (7031f7f3-cf51-4e77-82d7-b9bdb0a5959f)"
      },
      {
        "display": "ACHTUNG! Der fachlich korrekte Inhalt der Beispielinstanz kann nicht gewährleistet werden. Wir sind jederzeit dankbar für Hinweise auf Fehler oder für Verbesserungsvorschläge."
      }
    ]
  },
  "identifier": {
    "system": "https://gematik.de/fhir/erp/NamingSystem/GEM_ERP_NS_PrescriptionId",
    "value": "160.100.000.000.015.94"
  },
  "type": "document",
  "timestamp": "2025-04-15T10:00:00+00:00",
  "entry": [
    {
      "fullUrl": "urn:uuid:b86cbb0f-b381-40db-8ab7-ce4713a15d65",
      "resource": {
        "resourceType": "Composition",
        "id": "b86cbb0f-b381-40db-8ab7-ce4713a15d65",
        "meta": {
          "profile": [
            "http://fhir.abda.de/eRezeptAbgabedaten/StructureDefinition/DAV-PR-ERP-AbgabedatenComposition|1.4"
          ]
        },
        "status": "final",
        "type": {
          "coding": [
            {
              "system": "http://fhir.abda.de/eRezeptAbgabedaten/CodeSystem/DAV-CS-ERP-CompositionTypes",
              "code": "ERezeptAbgabedaten"
            }
          ]
        },
        "date": "2025-04-15T10:00:00Z",
        "author": [
          {
            "reference": "urn:uuid:957a7524-28f7-44d4-ab4d-e6b6cf8360fa"
          }
        ],
        "title": "ERezeptAbgabedaten",
        "section": [
          {
            "title": "Abgabeinformationen",
            "entry": [
              {
                "reference": "urn:uuid:8cf6c05a-bcb4-49a2-aec4-ccd90b385325"
              }
            ]
          },
          {
            "title": "Apotheke",
            "entry": [
              {
                "reference": "urn:uuid:957a7524-28f7-44d4-ab4d-e6b6cf8360fa"
              }
            ]
          }
        ]
      }
    },
    {
      "fullUrl": "urn:uuid:957a7524-28f7-44d4-ab4d-e6b6cf8360fa",
      "resource": {
        "resourceType": "Organization",
        "id": "957a7524-28f7-44d4-ab4d-e6b6cf8360fa",
        "meta": {
          "profile": [
            "http://fhir.abda.de/eRezeptAbgabedaten/StructureDefinition/DAV-PR-ERP-Apotheke|1.4"
          ]
        },
        "identifier": [
          {
            "system": "http://fhir.de/sid/arge-ik/iknr",
            "value": "308412345"
          }
        ],
        "name": "Adler-Apotheke",
        "address": [
          {
            "type": "physical",
            "line": [
              "Taunusstraße 89"
            ],
            "_line": [
              {
                "extension": [
                  {
                    "url": "http://hl7.org/fhir/StructureDefinition/iso21090-ADXP-streetName",
                    "valueString": "Taunusstraße"
                  },
                  {
                    "url": "http://hl7.org/fhir/StructureDefinition/iso21090-ADXP-houseNumber",
                    "valueString": "89"
                  }
                ]
              }
            ],
            "city": "Langen",
            "postalCode": "63225",
            "country": "D"
          }
        ]
      }
    },
    {
      "fullUrl": "urn:uuid:8cf6c05a-bcb4-49a2-aec4-ccd90b385325",
      "resource": {
        "resourceType": "MedicationDispense",
        "id": "8cf6c05a-bcb4-49a2-aec4-ccd90b385325",
        "meta": {
          "profile": [
            "http://fhir.abda.de/eRezeptAbgabedaten/StructureDefinition/DAV-PR-ERP-Abgabeinformationen|1.4"
          ]
        },
        "extension": [
          {
            "url": "http://fhir.abda.de/eRezeptAbgabedaten/StructureDefinition/DAV-EX-ERP-Abrechnungszeilen",
            "valueReference": {
              "reference": "urn:uuid:47ab57a7-39db-4681-9414-b1d4abbb350b"
            }
          }
        ],
        "status": "completed",
        "medicationCodeableConcept": {
          "coding": [
            {
              "system": "http://terminology.hl7.org/CodeSystem/data-absent-reason",
              "code": "not-applicable"
            }
          ]
        },
        "performer": [
          {
            "actor": {
              "reference": "urn:uuid:957a7524-28f7-44d4-ab4d-e6b6cf8360fa"
            }
          }
        ],
        "authorizingPrescription": [
          {
            "identifier": {
              "system": "https://gematik.de/fhir/erp/NamingSystem/GEM_ERP_NS_PrescriptionId",
              "value": "160.100.000.000.015.94"
            }
          }
        ],
        "type": {
          "coding": [
            {
              "system": "http://fhir.abda.de/eRezeptAbgabedaten/CodeSystem/DAV-CS-ERP-MedicationDispenseTyp",
              "code": "Abgabeinformationen"
            }
          ]
        },
        "whenHandedOver": "2025-04-15"
      }
    },
    {
      "fullUrl": "urn:uuid:47ab57a7-39db-4681-9414-b1d4abbb350b",
      "resource": {
        "resourceType": "Invoice",
        "id": "47ab57a7-39db-4681-9414-b1d4abbb350b",
        "meta": {
          "profile": [
            "http://fhir.abda.de/eRezeptAbgabedaten/StructureDefinition/DAV-PR-ERP-Abrechnungszeilen|1.4"
          ]
        },
        "status": "issued",
        "type": {
          "coding": [
            {
              "system": "http://fhir.abda.de/eRezeptAbgabedaten/CodeSystem/DAV-CS-ERP-InvoiceTyp",
              "code": "Abrechnungszeilen"
            }
          ]
        },
        "lineItem": [
          {
            "extension": [
              {
                "extension": [
                  {
                    "extension": [
                      {
                        "extension": [
                          {
                            "url": "Schluessel",
                            "valueCodeableConcept": {
                              "coding": [
                                {
                                  "system": "http://fhir.abda.de/eRezeptAbgabedaten/CodeSystem/DAV-CS-ERP-ZusatzattributFAMSchluesselMarkt",
                                  "code": "5"
                                }
                              ]
                            }
                          },
                          {
                            "url": "Gruppe",
                            "valueCodeableConcept": {
                              "coding": [
                                {
                                  "system": "http://fhir.abda.de/eRezeptAbgabedaten/CodeSystem/DAV-CS-ERP-ZusatzattributGruppe",
                                  "code": "1"
                                }
                              ]
                            }
                          }
                        ],
                        "url": "Markt"
                      },
                      {
                        "extension": [
                          {
                            "url": "Gruppe",
                            "valueCodeableConcept": {
                              "coding": [
                                {
                                  "system": "http://fhir.abda.de/eRezeptAbgabedaten/CodeSystem/DAV-CS-ERP-ZusatzattributGruppe",
                                  "code": "2"
                                }
                              ]
                            }
                          },
                          {
                            "url": "Schluessel",
                            "valueCodeableConcept": {
                              "coding": [
                                {
                                  "system": "http://fhir.abda.de/eRezeptAbgabedaten/CodeSystem/DAV-CS-ERP-ZusatzattributFAMSchluesselAbgaberangfolge",
                                  "code": "0"
                                }
                              ]
                            }
                          }
                        ],
                        "url": "Rabattvertragserfuellung"
                      },
                      {
                        "extension": [
                          {
                            "url": "Gruppe",
                            "valueCodeableConcept": {
                              "coding": [
                                {
                                  "system": "http://fhir.abda.de/eRezeptAbgabedaten/CodeSystem/DAV-CS-ERP-ZusatzattributGruppe",
                                  "code": "3"
                                }
                              ]
                            }
                          },
                          {
                            "url": "Schluessel",
                            "valueCodeableConcept": {
                              "coding": [
                                {
                                  "system": "http://fhir.abda.de/eRezeptAbgabedaten/CodeSystem/DAV-CS-ERP-ZusatzattributFAMSchluesselAbgaberangfolge",
                                  "code": "0"
                                }
                              ]
                            }
                          }
                        ],
                        "url": "PreisguenstigesFAM"
                      },
                      {
                        "extension": [
                          {
                            "url": "Gruppe",
                            "valueCodeableConcept": {
                              "coding": [
                                {
                                  "system": "http://fhir.abda.de/eRezeptAbgabedaten/CodeSystem/DAV-CS-ERP-ZusatzattributGruppe",
                                  "code": "4"
                                }
                              ]
                            }
                          },
                          {
                            "url": "Schluessel",
                            "valueCodeableConcept": {
                              "coding": [
                                {
                                  "system": "http://fhir.abda.de/eRezeptAbgabedaten/CodeSystem/DAV-CS-ERP-ZusatzattributFAMSchluesselImportFAM",
                                  "code": "5"
                                }
                              ]
                            }
                          }
                        ],
                        "url": "ImportFAM"
                      }
                    ],
                    "url": "ZusatzattributFAM"
                  }
                ],
                "url": "http://fhir.abda.de/eRezeptAbgabedaten/StructureDefinition/DAV-EX-ERP-Zusatzattribute"
              },
              {
                "url": "http://fhir.abda.de/eRezeptAbgabedaten/StructureDefinition/DAV-EX-ERP-Chargenbezeichnung",
                "valueString": "A123456789-1"
              }
            ],
            "sequence": 1,
            "chargeItemCodeableConcept": {
              "coding": [
                {
                  "system": "http://fhir.de/CodeSystem/ifa/pzn",
                  "code": "02532741"
                }
              ]
            },
            "priceComponent": [
              {
                "extension": [
                  {
                    "url": "http://fhir.abda.de/eRezeptAbgabedaten/StructureDefinition/DAV-EX-ERP-MwStSatz",
                    "valueDecimal": 19.00
                  },
                  {
                    "extension": [
                      {
                        "url": "Kategorie",
                        "valueCodeableConcept": {
                          "coding": [
                            {
                              "system": "http://fhir.abda.de/eRezeptAbgabedaten/CodeSystem/DAV-CS-ERP-KostenVersicherterKategorie",
                              "code": "0"
                            }
                          ]
                        }
                      },
                      {
                        "url": "Kostenbetrag",
                        "valueMoney": {
                          "value": 5.00,
                          "currency": "EUR"
                        }
                      }
                    ],
                    "url": "http://fhir.abda.de/eRezeptAbgabedaten/StructureDefinition/DAV-EX-ERP-KostenVersicherter"
                  },
                  {
                    "extension": [
                      {
                        "url": "Kategorie",
                        "valueCodeableConcept": {
                          "coding": [
                            {
                              "system": "http://fhir.abda.de/eRezeptAbgabedaten/CodeSystem/DAV-CS-ERP-KostenVersicherterKategorie",
                              "code": "1"
                            }
                          ]
                        }
                      },
                      {
                        "url": "Kostenbetrag",
                        "valueMoney": {
                          "value": 0.56,
                          "currency": "EUR"
                        }
                      }
                    ],
                    "url": "http://fhir.abda.de/eRezeptAbgabedaten/StructureDefinition/DAV-EX-ERP-KostenVersicherter"
                  }
                ],
                "type": "informational",
                "factor": 1,
                "amount": {
                  "value": 15.16,
                  "currency": "EUR"
                }
              }
            ]
          }
        ],
        "totalGross": {
          "extension": [
            {
              "url": "http://fhir.abda.de/eRezeptAbgabedaten/StructureDefinition/DAV-EX-ERP-Gesamtzuzahlung",
              "valueMoney": {
                "value": 5.00,
                "currency": "EUR"
              }
            }
          ],
          "value": 15.16,
          "currency": "EUR"
        }
      }
    }
  ]
}