<Bundle xmlns="http://hl7.org/fhir"><id value="2e12d9bd-5e24-4fa6-af0f-3cc027a3152f"/><meta><lastUpdated value="2023-04-18T08:42:13.777+02:00"/><profile value="http://fhir.abda.de/eRezeptAbgabedaten/StructureDefinition/DAV-PKV-PR-ERP-AbgabedatenBundle|1.1"/></meta><identifier><system value="https://gematik.de/fhir/erp/NamingSystem/GEM_ERP_NS_PrescriptionId"/><value value="200.000.001.943.760.43"/></identifier><type value="document"/><timestamp value="2023-04-18T08:42:13.777+02:00"/><entry><fullUrl value="urn:uuid:50c28878-c5c7-4095-892a-a229703ac6eb"/><resource><Composition xmlns="http://hl7.org/fhir"><id value="50c28878-c5c7-4095-892a-a229703ac6eb"/><meta><profile value="http://fhir.abda.de/eRezeptAbgabedaten/StructureDefinition/DAV-PKV-PR-ERP-AbgabedatenComposition|1.1"/></meta><status value="final"/><type><coding><system value="http://fhir.abda.de/eRezeptAbgabedaten/CodeSystem/DAV-CS-ERP-CompositionTypes"/><code value="ERezeptAbgabedaten"/></coding></type><date value="2023-04-18T08:42:13+02:00"/><author><reference value="urn:uuid:691409bc-0670-44fd-93bc-1ad971cfafe9"/></author><title value="ERezeptAbgabedaten"/><section><title value="Apotheke"/><entry><reference value="urn:uuid:691409bc-0670-44fd-93bc-1ad971cfafe9"/></entry></section><section><title value="Abgabeinformationen"/><entry><reference value="urn:uuid:a04d552b-a0b5-40ac-b29f-b0d1aabfb0d0"/></entry></section></Composition></resource></entry><entry><fullUrl value="urn:uuid:691409bc-0670-44fd-93bc-1ad971cfafe9"/><resource><Organization xmlns="http://hl7.org/fhir"><id value="691409bc-0670-44fd-93bc-1ad971cfafe9"/><meta><profile value="http://fhir.abda.de/eRezeptAbgabedaten/StructureDefinition/DAV-PKV-PR-ERP-Apotheke|1.1"/></meta><identifier><system value="http://fhir.de/sid/arge-ik/iknr"/><value value="234932698"/></identifier><name value="Apotheke Chad Terbocks"/><address><type value="physical"/><line value="Am Vogelsang 20"><extension url="http://hl7.org/fhir/StructureDefinition/iso21090-ADXP-houseNumber"><valueString value="20"/></extension><extension url="http://hl7.org/fhir/StructureDefinition/iso21090-ADXP-streetName"><valueString value="Am Vogelsang"/></extension></line><city value="Büttnerfeld"/><postalCode value="82401"/><country value="D"/></address></Organization></resource></entry><entry><fullUrl value="urn:uuid:39239d8c-fe5c-4b9e-a705-bcbd4bd82c84"/><resource><Invoice xmlns="http://hl7.org/fhir"><id value="39239d8c-fe5c-4b9e-a705-bcbd4bd82c84"/><meta><profile value="http://fhir.abda.de/eRezeptAbgabedaten/StructureDefinition/DAV-PKV-PR-ERP-Abrechnungszeilen|1.1"/></meta><status value="issued"/><type><coding><system value="http://fhir.abda.de/eRezeptAbgabedaten/CodeSystem/DAV-CS-ERP-InvoiceTyp"/><code value="Abrechnungszeilen"/></coding></type><lineItem><sequence value="1"/><chargeItemCodeableConcept><coding><system value="http://fhir.de/CodeSystem/ifa/pzn"/><code value="82779495"/></coding></chargeItemCodeableConcept><priceComponent><extension url="http://fhir.abda.de/eRezeptAbgabedaten/StructureDefinition/DAV-EX-ERP-KostenVersicherter"><extension url="Kategorie"><valueCodeableConcept><coding><system value="http://fhir.abda.de/eRezeptAbgabedaten/CodeSystem/DAV-PKV-CS-ERP-KostenVersicherterKategorie"/><code value="0"/></coding></valueCodeableConcept></extension><extension url="Kostenbetrag"><valueMoney><value value="119.01"/><currency value="EUR"/></valueMoney></extension></extension><extension url="http://fhir.abda.de/eRezeptAbgabedaten/StructureDefinition/DAV-EX-ERP-MwStSatz"><valueDecimal value="12.52"/></extension><type value="informational"/><factor value="1"/><amount><value value="391.87"/><currency value="EUR"/></amount></priceComponent></lineItem><lineItem><sequence value="2"/><chargeItemCodeableConcept><coding><system value="http://fhir.de/CodeSystem/ifa/pzn"/><code value="78700109"/></coding></chargeItemCodeableConcept><priceComponent><extension url="http://fhir.abda.de/eRezeptAbgabedaten/StructureDefinition/DAV-EX-ERP-KostenVersicherter"><extension url="Kategorie"><valueCodeableConcept><coding><system value="http://fhir.abda.de/eRezeptAbgabedaten/CodeSystem/DAV-PKV-CS-ERP-KostenVersicherterKategorie"/><code value="0"/></coding></valueCodeableConcept></extension><extension url="Kostenbetrag"><valueMoney><value value="49.93"/><currency value="EUR"/></valueMoney></extension></extension><extension url="http://fhir.abda.de/eRezeptAbgabedaten/StructureDefinition/DAV-EX-ERP-MwStSatz"><valueDecimal value="12.52"/></extension><type value="informational"/><factor value="1"/><amount><value value="70.59"/><currency value="EUR"/></amount></priceComponent></lineItem><totalGross><extension url="http://fhir.abda.de/eRezeptAbgabedaten/StructureDefinition/DAV-EX-ERP-Gesamtzuzahlung"><valueMoney><value value="168.94"/><currency value="EUR"/></valueMoney></extension><value value="462.46"/><currency value="EUR"/></totalGross></Invoice></resource></entry><entry><fullUrl value="urn:uuid:a04d552b-a0b5-40ac-b29f-b0d1aabfb0d0"/><resource><MedicationDispense xmlns="http://hl7.org/fhir"><id value="a04d552b-a0b5-40ac-b29f-b0d1aabfb0d0"/><meta><profile value="http://fhir.abda.de/eRezeptAbgabedaten/StructureDefinition/DAV-PKV-PR-ERP-Abgabeinformationen|1.1"/></meta><extension url="http://fhir.abda.de/eRezeptAbgabedaten/StructureDefinition/DAV-PKV-EX-ERP-AbrechnungsTyp"><valueCodeableConcept><coding><system value="http://fhir.abda.de/eRezeptAbgabedaten/CodeSystem/DAV-PKV-CS-ERP-AbrechnungsTyp"/><code value="1"/></coding></valueCodeableConcept></extension><extension url="http://fhir.abda.de/eRezeptAbgabedaten/StructureDefinition/DAV-EX-ERP-Abrechnungszeilen"><valueReference><reference value="urn:uuid:39239d8c-fe5c-4b9e-a705-bcbd4bd82c84"/></valueReference></extension><status value="completed"/><medicationCodeableConcept><coding><system value="http://terminology.hl7.org/CodeSystem/data-absent-reason"/><code value="not-applicable"/></coding></medicationCodeableConcept><performer><actor><reference value="urn:uuid:691409bc-0670-44fd-93bc-1ad971cfafe9"/></actor></performer><authorizingPrescription><identifier><system value="https://gematik.de/fhir/erp/NamingSystem/GEM_ERP_NS_PrescriptionId"/><value value="200.000.001.943.760.43"/></identifier></authorizingPrescription><type><coding><system value="http://fhir.abda.de/eRezeptAbgabedaten/CodeSystem/DAV-CS-ERP-MedicationDispenseTyp"/><code value="Abgabeinformationen"/></coding></type><whenHandedOver value="2023-04-18"/></MedicationDispense></resource></entry></Bundle>