<Bundle xmlns="http://hl7.org/fhir"><id value="49f96071-801f-4c5b-b547-0ade608e87fe"/><meta><lastUpdated value="2023-11-27T08:42:17.635+01:00"/><profile value="https://fhir.kbv.de/StructureDefinition/KBV_PR_ERP_Bundle|1.1.0"/></meta><identifier><system value="https://gematik.de/fhir/erp/NamingSystem/GEM_ERP_NS_PrescriptionId"/><value value="160.000.006.420.775.89"/></identifier><type value="document"/><timestamp value="2023-11-27T08:42:17.635+01:00"/><entry><fullUrl value="https://pvs.gematik.de/fhir/Composition/522b3cba-910d-418c-b3db-4e2f20b0e887"/><resource><Composition xmlns="http://hl7.org/fhir"><id value="522b3cba-910d-418c-b3db-4e2f20b0e887"/><meta><profile value="https://fhir.kbv.de/StructureDefinition/KBV_PR_ERP_Composition|1.1.0"/></meta><extension url="https://fhir.kbv.de/StructureDefinition/KBV_EX_FOR_Legal_basis"><valueCoding><system value="https://fhir.kbv.de/CodeSystem/KBV_CS_SFHIR_KBV_STATUSKENNZEICHEN"/><code value="00"/></valueCoding></extension><status value="final"/><type><coding><system value="https://fhir.kbv.de/CodeSystem/KBV_CS_SFHIR_KBV_FORMULAR_ART"/><code value="e16A"/></coding></type><subject><reference value="Patient/ef3f0012-2987-459f-b02e-f53e26f62c98"/></subject><date value="2023-11-27T08:42:17+01:00"/><author><reference value="Practitioner/54946d73-3f66-4cb7-a87e-fd9939b8a29b"/><type value="Practitioner"/></author><author><type value="Device"/><identifier><system value="https://fhir.kbv.de/NamingSystem/KBV_NS_FOR_Pruefnummer"/><value value="GEMATIK/410/2109/36/123"/></identifier></author><title value="elektronische Arzneimittelverordnung"/><custodian><reference value="Organization/edf00e40-199c-4c7b-8ac5-30cc57dfc39f"/></custodian><section><code><coding><system value="https://fhir.kbv.de/CodeSystem/KBV_CS_ERP_Section_Type"/><code value="Coverage"/></coding></code><entry><reference value="Coverage/32aef094-84f6-4e2a-bf94-a932cb55bf97"/></entry></section><section><code><coding><system value="https://fhir.kbv.de/CodeSystem/KBV_CS_ERP_Section_Type"/><code value="Prescription"/></coding></code><entry><reference value="MedicationRequest/91c13795-0776-4b78-ae91-f7f29047730e"/></entry></section></Composition></resource></entry><entry><fullUrl value="https://pvs.gematik.de/fhir/Medication/ed3f239c-39c4-4888-9e24-b772bc1d7bd6"/><resource><Medication xmlns="http://hl7.org/fhir"><id value="ed3f239c-39c4-4888-9e24-b772bc1d7bd6"/><meta><profile value="https://fhir.kbv.de/StructureDefinition/KBV_PR_ERP_Medication_PZN|1.1.0"/></meta><extension url="https://fhir.kbv.de/StructureDefinition/KBV_EX_Base_Medication_Type"><valueCodeableConcept><coding><system value="http://snomed.info/sct"/><version value="http://snomed.info/sct/900000000000207008/version/20220331"/><code value="763158003"/><display value="Medicinal product (product)"/></coding></valueCodeableConcept></extension><extension url="https://fhir.kbv.de/StructureDefinition/KBV_EX_ERP_Medication_Category"><valueCoding><system value="https://fhir.kbv.de/CodeSystem/KBV_CS_ERP_Medication_Category"/><code value="00"/></valueCoding></extension><extension url="https://fhir.kbv.de/StructureDefinition/KBV_EX_ERP_Medication_Vaccine"><valueBoolean value="false"/></extension><extension url="http://fhir.de/StructureDefinition/normgroesse"><valueCode value="N1"/></extension><code><coding><system value="http://fhir.de/CodeSystem/ifa/pzn"/><code value="12345678"/></coding><text value="Schmerzmittel"/></code><form><coding><system value="https://fhir.kbv.de/CodeSystem/KBV_CS_SFHIR_KBV_DARREICHUNGSFORM"/><code value="TAB"/></coding></form><amount><numerator><extension url="https://fhir.kbv.de/StructureDefinition/KBV_EX_ERP_Medication_PackagingSize"><valueString value="1"/></extension><unit value="Stk"/></numerator><denominator><value value="1"/></denominator></amount></Medication></resource></entry><entry><fullUrl value="https://pvs.gematik.de/fhir/Patient/ef3f0012-2987-459f-b02e-f53e26f62c98"/><resource><Patient xmlns="http://hl7.org/fhir"><id value="ef3f0012-2987-459f-b02e-f53e26f62c98"/><meta><profile value="https://fhir.kbv.de/StructureDefinition/KBV_PR_FOR_Patient|1.1.0"/></meta><identifier><type><coding><system value="http://fhir.de/CodeSystem/identifier-type-de-basis"/><code value="GKV"/></coding></type><system value="http://fhir.de/sid/gkv/kvid-10"/><value value="X110498565"/></identifier><name><use value="official"/><family value="Hüllmann"><extension url="http://hl7.org/fhir/StructureDefinition/humanname-own-name"><valueString value="Hüllmann"/></extension></family><given value="Sina"/></name><birthDate value="1980-07-10"/><address><type value="both"/><line value="Im Weidenblech 26a"><extension url="http://hl7.org/fhir/StructureDefinition/iso21090-ADXP-houseNumber"><valueString value="26a"/></extension><extension url="http://hl7.org/fhir/StructureDefinition/iso21090-ADXP-streetName"><valueString value="Im Weidenblech"/></extension></line><city value="Julienberg"/><postalCode value="44420"/><country value="D"/></address></Patient></resource></entry><entry><fullUrl value="https://pvs.gematik.de/fhir/Organization/edf00e40-199c-4c7b-8ac5-30cc57dfc39f"/><resource><Organization xmlns="http://hl7.org/fhir"><id value="edf00e40-199c-4c7b-8ac5-30cc57dfc39f"/><meta><profile value="https://fhir.kbv.de/StructureDefinition/KBV_PR_FOR_Organization|1.1.0"/></meta><identifier><type><coding><system value="http://terminology.hl7.org/CodeSystem/v2-0203"/><code value="BSNR"/></coding></type><system value="https://fhir.kbv.de/NamingSystem/KBV_NS_Base_BSNR"/><value value="618271987"/></identifier><name value="Arztpraxis Schraßer"/><telecom><system value="phone"/><value value="+49-864-6468042"/></telecom><telecom><system value="email"/><value value="rania.giesche@madetzky.name"/></telecom><address><type value="both"/><line value="Weißdornweg 19c"><extension url="http://hl7.org/fhir/StructureDefinition/iso21090-ADXP-houseNumber"><valueString value="19c"/></extension><extension url="http://hl7.org/fhir/StructureDefinition/iso21090-ADXP-streetName"><valueString value="Weißdornweg"/></extension></line><city value="Spiegelburgheim"/><postalCode value="25488"/><country value="D"/></address></Organization></resource></entry><entry><fullUrl value="https://pvs.gematik.de/fhir/Coverage/32aef094-84f6-4e2a-bf94-a932cb55bf97"/><resource><Coverage xmlns="http://hl7.org/fhir"><id value="32aef094-84f6-4e2a-bf94-a932cb55bf97"/><meta><profile value="https://fhir.kbv.de/StructureDefinition/KBV_PR_FOR_Coverage|1.1.0"/></meta><extension url="http://fhir.de/StructureDefinition/gkv/besondere-personengruppe"><valueCoding><system value="https://fhir.kbv.de/CodeSystem/KBV_CS_SFHIR_KBV_PERSONENGRUPPE"/><code value="00"/></valueCoding></extension><extension url="http://fhir.de/StructureDefinition/gkv/dmp-kennzeichen"><valueCoding><system value="https://fhir.kbv.de/CodeSystem/KBV_CS_SFHIR_KBV_DMP"/><code value="00"/></valueCoding></extension><extension url="http://fhir.de/StructureDefinition/gkv/wop"><valueCoding><system value="https://fhir.kbv.de/CodeSystem/KBV_CS_SFHIR_ITA_WOP"/><code value="47"/></valueCoding></extension><extension url="http://fhir.de/StructureDefinition/gkv/versichertenart"><valueCoding><system value="https://fhir.kbv.de/CodeSystem/KBV_CS_SFHIR_KBV_VERSICHERTENSTATUS"/><code value="1"/></valueCoding></extension><status value="active"/><type><coding><system value="http://fhir.de/CodeSystem/versicherungsart-de-basis"/><code value="GKV"/></coding></type><beneficiary><reference value="Patient/503019d2-ead1-41ee-9f36-bc24103a9d91"/></beneficiary><payor><identifier><system value="http://fhir.de/sid/arge-ik/iknr"/><value value="101520078"/></identifier><display value="BKK MOBIL OIL"/></payor></Coverage></resource></entry><entry><fullUrl value="https://pvs.gematik.de/fhir/Practitioner/54946d73-3f66-4cb7-a87e-fd9939b8a29b"/><resource><Practitioner xmlns="http://hl7.org/fhir"><id value="54946d73-3f66-4cb7-a87e-fd9939b8a29b"/><meta><profile value="https://fhir.kbv.de/StructureDefinition/KBV_PR_FOR_Practitioner|1.1.0"/></meta><identifier><type><coding><system value="http://terminology.hl7.org/CodeSystem/v2-0203"/><code value="LANR"/></coding></type><system value="https://fhir.kbv.de/NamingSystem/KBV_NS_Base_ANR"/><value value="583038283"/></identifier><name><use value="official"/><family value="Schraßer"><extension url="http://hl7.org/fhir/StructureDefinition/humanname-own-name"><valueString value="Schraßer"/></extension></family><given value="Dr."/><prefix value="Dr."><extension url="http://hl7.org/fhir/StructureDefinition/iso21090-EN-qualifier"><valueCode value="AC"/></extension></prefix></name><qualification><code><coding><system value="https://fhir.kbv.de/CodeSystem/KBV_CS_FOR_Qualification_Type"/><code value="00"/></coding></code></qualification><qualification><code><coding><system value="https://fhir.kbv.de/CodeSystem/KBV_CS_FOR_Berufsbezeichnung"/><code value="Berufsbezeichnung"/></coding><text value="Super-Facharzt für alles Mögliche"/></code></qualification></Practitioner></resource></entry><entry><fullUrl value="https://pvs.gematik.de/fhir/MedicationRequest/91c13795-0776-4b78-ae91-f7f29047730e"/><resource><MedicationRequest xmlns="http://hl7.org/fhir"><id value="91c13795-0776-4b78-ae91-f7f29047730e"/><meta><profile value="https://fhir.kbv.de/StructureDefinition/KBV_PR_ERP_Prescription|1.1.0"/></meta><extension url="https://fhir.kbv.de/StructureDefinition/KBV_EX_ERP_BVG"><valueBoolean value="false"/></extension><extension url="https://fhir.kbv.de/StructureDefinition/KBV_EX_ERP_EmergencyServicesFee"><valueBoolean value="false"/></extension><extension url="https://fhir.kbv.de/StructureDefinition/KBV_EX_ERP_Multiple_Prescription"><extension url="Kennzeichen"><valueBoolean value="false"/></extension></extension><extension url="https://fhir.kbv.de/StructureDefinition/KBV_EX_FOR_StatusCoPayment"><valueCoding><system value="https://fhir.kbv.de/CodeSystem/KBV_CS_FOR_StatusCoPayment"/><code value="0"/></valueCoding></extension><status value="active"/><intent value="order"/><medicationReference><reference value="Medication/ed3f239c-39c4-4888-9e24-b772bc1d7bd6"/></medicationReference><subject><reference value="Patient/ef3f0012-2987-459f-b02e-f53e26f62c98"/></subject><authoredOn value="2023-11-27"/><requester><reference value="Practitioner/54946d73-3f66-4cb7-a87e-fd9939b8a29b"/></requester><insurance><reference value="Coverage/32aef094-84f6-4e2a-bf94-a932cb55bf97"/></insurance><dosageInstruction><extension url="https://fhir.kbv.de/StructureDefinition/KBV_EX_ERP_DosageFlag"><valueBoolean value="true"/></extension><text value="1-0-0-1"/></dosageInstruction><dispenseRequest><quantity><value value="3"/><system value="http://unitsofmeasure.org"/><code value="{Package}"/></quantity></dispenseRequest><substitution><allowedBoolean value="false"/></substitution></MedicationRequest></resource></entry></Bundle>