{
  "resourceType": "Bundle",
  "id": "ef14e8f2-2708-4dc1-a9fa-08ac707c4159",
  "meta": {
    "profile": [
      "http://fhir.abda.de/eRezeptAbgabedaten/StructureDefinition/DAV-PR-ERP-AbgabedatenBundle|1.1.0"
    ],
    "tag": [
      {
        "display": "Beispiel für Abgabedaten für eine Wirkstoff-Verordnung Variante 2 (Berufskrankheit) (218b581d-ccbe-480e-b8d7-f5f9b925e8c4)"
      },
      {
        "display": "ACHTUNG! Der fachlich korrekte Inhalt der Beispielinstanz kann nicht gewährleistet werden. Wir sind jederzeit dankbar für Hinweise auf Fehler oder für Verbesserungsvorschläge."
      }
    ]
  },
  "identifier": {
    "system": "https://gematik.de/fhir/NamingSystem/PrescriptionID",
    "value": "160.100.000.000.020.79"
  },
  "type": "document",
  "timestamp": "2022-05-27T10:00:00+00:00",
  "entry": [
    {
      "fullUrl": "urn:uuid:0ff87cec-6890-4efa-a313-2b0777fd1bb5",
      "resource": {
        "resourceType": "Composition",
        "id": "0ff87cec-6890-4efa-a313-2b0777fd1bb5",
        "meta": {
          "profile": [
            "http://fhir.abda.de/eRezeptAbgabedaten/StructureDefinition/DAV-PR-ERP-AbgabedatenComposition|1.1.0"
          ]
        },
        "status": "final",
        "type": {
          "coding": [
            {
              "system": "http://fhir.abda.de/eRezeptAbgabedaten/CodeSystem/DAV-CS-ERP-CompositionTypes",
              "code": "ERezeptAbgabedaten"
            }
          ]
        },
        "date": "2022-05-27T10:00:00Z",
        "author": [
          {
            "reference": "urn:uuid:26ad08d4-7aa0-45b3-b783-f9b3005bfc05"
          }
        ],
        "title": "ERezeptAbgabedaten",
        "section": [
          {
            "title": "Abgabeinformationen",
            "entry": [
              {
                "reference": "urn:uuid:5bb28f1b-4738-4bc2-b563-01bd299dfe92"
              }
            ]
          },
          {
            "title": "Apotheke",
            "entry": [
              {
                "reference": "urn:uuid:26ad08d4-7aa0-45b3-b783-f9b3005bfc05"
              }
            ]
          }
        ]
      }
    },
    {
      "fullUrl": "urn:uuid:26ad08d4-7aa0-45b3-b783-f9b3005bfc05",
      "resource": {
        "resourceType": "Organization",
        "id": "26ad08d4-7aa0-45b3-b783-f9b3005bfc05",
        "meta": {
          "profile": [
            "http://fhir.abda.de/eRezeptAbgabedaten/StructureDefinition/DAV-PR-ERP-Apotheke|1.1.0"
          ]
        },
        "identifier": [
          {
            "system": "http://fhir.de/NamingSystem/arge-ik/iknr",
            "value": "308412345"
          }
        ],
        "name": "Adler-Apotheke",
        "address": [
          {
            "type": "physical",
            "line": [
              "Taunusstraße 89"
            ],
            "_line": [
              {
                "extension": [
                  {
                    "url": "http://hl7.org/fhir/StructureDefinition/iso21090-ADXP-streetName",
                    "valueString": "Taunusstraße"
                  },
                  {
                    "url": "http://hl7.org/fhir/StructureDefinition/iso21090-ADXP-houseNumber",
                    "valueString": "89"
                  }
                ]
              }
            ],
            "city": "Langen",
            "postalCode": "63225",
            "country": "D"
          }
        ]
      }
    },
    {
      "fullUrl": "urn:uuid:5bb28f1b-4738-4bc2-b563-01bd299dfe92",
      "resource": {
        "resourceType": "MedicationDispense",
        "id": "5bb28f1b-4738-4bc2-b563-01bd299dfe92",
        "meta": {
          "profile": [
            "http://fhir.abda.de/eRezeptAbgabedaten/StructureDefinition/DAV-PR-ERP-Abgabeinformationen|1.1.0"
          ]
        },
        "extension": [
          {
            "url": "http://fhir.abda.de/eRezeptAbgabedaten/StructureDefinition/DAV-EX-ERP-Abrechnungszeilen",
            "valueReference": {
              "reference": "urn:uuid:cdcc1ed7-a784-4c7d-ad65-dbca81e4a13b"
            }
          }
        ],
        "status": "completed",
        "medicationCodeableConcept": {
          "coding": [
            {
              "system": "http://terminology.hl7.org/CodeSystem/data-absent-reason",
              "code": "not-applicable"
            }
          ]
        },
        "performer": [
          {
            "actor": {
              "reference": "urn:uuid:26ad08d4-7aa0-45b3-b783-f9b3005bfc05"
            }
          }
        ],
        "authorizingPrescription": [
          {
            "identifier": {
              "system": "https://gematik.de/fhir/NamingSystem/PrescriptionID",
              "value": "160.100.000.000.020.79"
            }
          }
        ],
        "type": {
          "coding": [
            {
              "system": "http://fhir.abda.de/eRezeptAbgabedaten/CodeSystem/DAV-CS-ERP-MedicationDispenseTyp",
              "code": "Abgabeinformationen"
            }
          ]
        },
        "whenHandedOver": "2022-05-27"
      }
    },
    {
      "fullUrl": "urn:uuid:cdcc1ed7-a784-4c7d-ad65-dbca81e4a13b",
      "resource": {
        "resourceType": "Invoice",
        "id": "cdcc1ed7-a784-4c7d-ad65-dbca81e4a13b",
        "meta": {
          "profile": [
            "http://fhir.abda.de/eRezeptAbgabedaten/StructureDefinition/DAV-PR-ERP-Abrechnungszeilen|1.1.0"
          ]
        },
        "status": "issued",
        "type": {
          "coding": [
            {
              "system": "http://fhir.abda.de/eRezeptAbgabedaten/CodeSystem/DAV-CS-ERP-InvoiceTyp",
              "code": "Abrechnungszeilen"
            }
          ]
        },
        "lineItem": [
          {
            "extension": [
              {
                "extension": [
                  {
                    "extension": [
                      {
                        "extension": [
                          {
                            "url": "Schluessel",
                            "valueCodeableConcept": {
                              "coding": [
                                {
                                  "system": "http://fhir.abda.de/eRezeptAbgabedaten/CodeSystem/DAV-CS-ERP-ZusatzattributFAMSchluesselMarkt",
                                  "code": "1"
                                }
                              ]
                            }
                          },
                          {
                            "url": "Gruppe",
                            "valueCodeableConcept": {
                              "coding": [
                                {
                                  "system": "http://fhir.abda.de/eRezeptAbgabedaten/CodeSystem/DAV-CS-ERP-ZusatzattributGruppe",
                                  "code": "1"
                                }
                              ]
                            }
                          }
                        ],
                        "url": "Markt"
                      },
                      {
                        "extension": [
                          {
                            "url": "Gruppe",
                            "valueCodeableConcept": {
                              "coding": [
                                {
                                  "system": "http://fhir.abda.de/eRezeptAbgabedaten/CodeSystem/DAV-CS-ERP-ZusatzattributGruppe",
                                  "code": "2"
                                }
                              ]
                            }
                          },
                          {
                            "url": "Schluessel",
                            "valueCodeableConcept": {
                              "coding": [
                                {
                                  "system": "http://fhir.abda.de/eRezeptAbgabedaten/CodeSystem/DAV-CS-ERP-ZusatzattributFAMSchluesselAbgaberangfolge",
                                  "code": "0"
                                }
                              ]
                            }
                          }
                        ],
                        "url": "Rabattvertragserfuellung"
                      },
                      {
                        "extension": [
                          {
                            "url": "Gruppe",
                            "valueCodeableConcept": {
                              "coding": [
                                {
                                  "system": "http://fhir.abda.de/eRezeptAbgabedaten/CodeSystem/DAV-CS-ERP-ZusatzattributGruppe",
                                  "code": "3"
                                }
                              ]
                            }
                          },
                          {
                            "url": "Schluessel",
                            "valueCodeableConcept": {
                              "coding": [
                                {
                                  "system": "http://fhir.abda.de/eRezeptAbgabedaten/CodeSystem/DAV-CS-ERP-ZusatzattributFAMSchluesselAbgaberangfolge",
                                  "code": "1"
                                }
                              ]
                            }
                          }
                        ],
                        "url": "PreisguenstigesFAM"
                      },
                      {
                        "extension": [
                          {
                            "url": "Gruppe",
                            "valueCodeableConcept": {
                              "coding": [
                                {
                                  "system": "http://fhir.abda.de/eRezeptAbgabedaten/CodeSystem/DAV-CS-ERP-ZusatzattributGruppe",
                                  "code": "4"
                                }
                              ]
                            }
                          },
                          {
                            "url": "Schluessel",
                            "valueCodeableConcept": {
                              "coding": [
                                {
                                  "system": "http://fhir.abda.de/eRezeptAbgabedaten/CodeSystem/DAV-CS-ERP-ZusatzattributFAMSchluesselAbgaberangfolge",
                                  "code": "0"
                                }
                              ]
                            }
                          }
                        ],
                        "url": "ImportFAM"
                      }
                    ],
                    "url": "ZusatzattributFAM"
                  }
                ],
                "url": "http://fhir.abda.de/eRezeptAbgabedaten/StructureDefinition/DAV-EX-ERP-Zusatzattribute"
              },
              {
                "url": "http://fhir.abda.de/eRezeptAbgabedaten/StructureDefinition/DAV-EX-ERP-Chargenbezeichnung",
                "valueString": "A123456789-1"
              }
            ],
            "sequence": 1,
            "chargeItemCodeableConcept": {
              "coding": [
                {
                  "system": "http://fhir.de/CodeSystem/ifa/pzn",
                  "code": "00407552"
                }
              ]
            },
            "priceComponent": [
              {
                "extension": [
                  {
                    "url": "http://fhir.abda.de/eRezeptAbgabedaten/StructureDefinition/DAV-EX-ERP-MwStSatz",
                    "valueDecimal": 19.00
                  },
                  {
                    "extension": [
                      {
                        "url": "Kategorie",
                        "valueCodeableConcept": {
                          "coding": [
                            {
                              "system": "http://fhir.abda.de/eRezeptAbgabedaten/CodeSystem/DAV-CS-ERP-KostenVersicherterKategorie",
                              "code": "0"
                            }
                          ]
                        }
                      },
                      {
                        "url": "Kostenbetrag",
                        "valueMoney": {
                          "value": 0.00,
                          "currency": "EUR"
                        }
                      }
                    ],
                    "url": "http://fhir.abda.de/eRezeptAbgabedaten/StructureDefinition/DAV-EX-ERP-KostenVersicherter"
                  }
                ],
                "type": "informational",
                "factor": 1,
                "amount": {
                  "value": 24.92,
                  "currency": "EUR"
                }
              }
            ]
          }
        ],
        "totalGross": {
          "extension": [
            {
              "url": "http://fhir.abda.de/eRezeptAbgabedaten/StructureDefinition/DAV-EX-ERP-Gesamtzuzahlung",
              "valueMoney": {
                "value": 0.00,
                "currency": "EUR"
              }
            }
          ],
          "value": 24.92,
          "currency": "EUR"
        }
      }
    }
  ]
}