<Bundle xmlns="http://hl7.org/fhir">
   <id value="b4bf1696-8e3a-4cab-b08f-f54bea6ec8e5"/>
   <meta>
      <lastUpdated value="2024-02-08T19:22:15.368+01:00"/>
      <profile value="https://fhir.kbv.de/StructureDefinition/KBV_PR_ERP_Bundle|1.1.0"/>
   </meta>
   <identifier>
      <system value="https://gematik.de/fhir/erp/NamingSystem/GEM_ERP_NS_PrescriptionId"/>
      <value value="209.000.000.033.000.19"/>
   </identifier>
   <type value="document"/>
   <timestamp value="2024-02-08T19:22:15.368+01:00"/>
   <entry>
      <fullUrl value="https://pvs.gematik.de/fhir/Composition/67937ba1-3517-4254-91e3-f712f8670939"/>
      <resource>
         <Composition xmlns="http://hl7.org/fhir">
            <id value="67937ba1-3517-4254-91e3-f712f8670939"/>
            <meta>
               <profile value="https://fhir.kbv.de/StructureDefinition/KBV_PR_ERP_Composition|1.1.0"/>
            </meta>
            <extension url="https://fhir.kbv.de/StructureDefinition/KBV_EX_FOR_Legal_basis">
               <valueCoding>
                  <system value="https://fhir.kbv.de/CodeSystem/KBV_CS_SFHIR_KBV_STATUSKENNZEICHEN"/>
                  <code value="00"/>
               </valueCoding>
            </extension>
            <status value="final"/>
            <type>
               <coding>
                  <system value="https://fhir.kbv.de/CodeSystem/KBV_CS_SFHIR_KBV_FORMULAR_ART"/>
                  <code value="e16A"/>
               </coding>
            </type>
            <subject>
               <reference value="Patient/c50e881c-543c-4d40-94f8-fcbeca3e1209"/>
            </subject>
            <date value="2024-02-08T19:22:15+01:00"/>
            <author>
               <reference value="Practitioner/7098d491-104d-41b2-88ba-47c8b726742e"/>
               <type value="Practitioner"/>
            </author>
            <author>
               <type value="Device"/>
               <identifier>
                  <system value="https://fhir.kbv.de/NamingSystem/KBV_NS_FOR_Pruefnummer"/>
                  <value value="GEMATIK/410/2109/36/123"/>
               </identifier>
            </author>
            <title value="elektronische Arzneimittelverordnung"/>
            <custodian>
               <reference value="Organization/61f02908-fa5a-4a22-b260-38df7e66e35e"/>
            </custodian>
            <section>
               <code>
                  <coding>
                     <system value="https://fhir.kbv.de/CodeSystem/KBV_CS_ERP_Section_Type"/>
                     <code value="Coverage"/>
                  </coding>
               </code>
               <entry>
                  <reference value="Coverage/028ccaa2-1cc3-4b6b-a17d-d85e0ba3088c"/>
               </entry>
            </section>
            <section>
               <code>
                  <coding>
                     <system value="https://fhir.kbv.de/CodeSystem/KBV_CS_ERP_Section_Type"/>
                     <code value="Prescription"/>
                  </coding>
               </code>
               <entry>
                  <reference value="MedicationRequest/ea671a1a-0514-454c-8fe9-5c730c9faaca"/>
               </entry>
            </section>
         </Composition>
      </resource>
   </entry>
   <entry>
      <fullUrl value="https://pvs.gematik.de/fhir/Medication/d321be67-767a-49d6-9882-55b76f937acb"/>
      <resource>
         <Medication xmlns="http://hl7.org/fhir">
            <id value="d321be67-767a-49d6-9882-55b76f937acb"/>
            <meta>
               <profile value="https://fhir.kbv.de/StructureDefinition/KBV_PR_ERP_Medication_PZN|1.1.0"/>
            </meta>
            <extension url="https://fhir.kbv.de/StructureDefinition/KBV_EX_Base_Medication_Type">
               <valueCodeableConcept>
                  <coding>
                     <system value="http://snomed.info/sct"/>
                     <version value="http://snomed.info/sct/900000000000207008/version/20220331"/>
                     <code value="763158003"/>
                     <display value="Medicinal product (product)"/>
                  </coding>
               </valueCodeableConcept>
            </extension>
            <extension url="https://fhir.kbv.de/StructureDefinition/KBV_EX_ERP_Medication_Category">
               <valueCoding>
                  <system value="https://fhir.kbv.de/CodeSystem/KBV_CS_ERP_Medication_Category"/>
                  <code value="00"/>
               </valueCoding>
            </extension>
            <extension url="https://fhir.kbv.de/StructureDefinition/KBV_EX_ERP_Medication_Vaccine">
               <valueBoolean value="false"/>
            </extension>
            <extension url="http://fhir.de/StructureDefinition/normgroesse">
               <valueCode value="NB"/>
            </extension>
            <code>
               <coding>
                  <system value="http://fhir.de/CodeSystem/ifa/pzn"/>
                  <code value="27677334"/>
               </coding>
               <text value="Zytostatika_WF209"/>
            </code>
            <form>
               <coding>
                  <system value="https://fhir.kbv.de/CodeSystem/KBV_CS_SFHIR_KBV_DARREICHUNGSFORM"/>
                  <code value="TAB"/>
               </coding>
            </form>
            <amount>
               <numerator>
                  <extension url="https://fhir.kbv.de/StructureDefinition/KBV_EX_ERP_Medication_PackagingSize">
                     <valueString value="1"/>
                  </extension>
                  <unit value="Stk"/>
               </numerator>
               <denominator>
                  <value value="1"/>
               </denominator>
            </amount>
         </Medication>
      </resource>
   </entry>
   <entry>
      <fullUrl value="https://pvs.gematik.de/fhir/Patient/c50e881c-543c-4d40-94f8-fcbeca3e1209"/>
      <resource>
         <Patient xmlns="http://hl7.org/fhir">
            <id value="c50e881c-543c-4d40-94f8-fcbeca3e1209"/>
            <meta>
               <profile value="https://fhir.kbv.de/StructureDefinition/KBV_PR_FOR_Patient|1.1.0"/>
            </meta>
            <identifier>
               <type>
                  <coding>
                     <system value="http://fhir.de/CodeSystem/identifier-type-de-basis"/>
                     <code value="PKV"/>
                  </coding>
               </type>
               <system value="http://fhir.de/sid/pkv/kvid-10"/>
               <value value="X110465770"/>
            </identifier>
            <name>
               <use value="official"/>
               <family value="Angermänn">
                  <extension url="http://hl7.org/fhir/StructureDefinition/humanname-own-name">
                     <valueString value="Angermänn"/>
                  </extension>
               </family>
               <given value="Günther"/>
            </name>
            <birthDate value="1986-01-12"/>
            <address>
               <type value="both"/>
               <line value="Am Blauen Berg 92a">
                  <extension url="http://hl7.org/fhir/StructureDefinition/iso21090-ADXP-houseNumber">
                     <valueString value="92a"/>
                  </extension>
                  <extension url="http://hl7.org/fhir/StructureDefinition/iso21090-ADXP-streetName">
                     <valueString value="Am Blauen Berg"/>
                  </extension>
               </line>
               <city value="Neu Titushagen"/>
               <postalCode value="06076"/>
               <country value="D"/>
            </address>
         </Patient>
      </resource>
   </entry>
   <entry>
      <fullUrl value="https://pvs.gematik.de/fhir/Organization/61f02908-fa5a-4a22-b260-38df7e66e35e"/>
      <resource>
         <Organization xmlns="http://hl7.org/fhir">
            <id value="61f02908-fa5a-4a22-b260-38df7e66e35e"/>
            <meta>
               <profile value="https://fhir.kbv.de/StructureDefinition/KBV_PR_FOR_Organization|1.1.0"/>
            </meta>
            <identifier>
               <type>
                  <coding>
                     <system value="http://terminology.hl7.org/CodeSystem/v2-0203"/>
                     <code value="BSNR"/>
                  </coding>
               </type>
               <system value="https://fhir.kbv.de/NamingSystem/KBV_NS_Base_BSNR"/>
               <value value="476736714"/>
            </identifier>
            <name value="Arztpraxis Schraßer"/>
            <telecom>
               <system value="phone"/>
               <value value="(0048) 622241522"/>
            </telecom>
            <telecom>
               <system value="email"/>
               <value value="ismael.riethmüller@brauer.org"/>
            </telecom>
            <address>
               <type value="both"/>
               <line value="Kanalstr. 01c">
                  <extension url="http://hl7.org/fhir/StructureDefinition/iso21090-ADXP-houseNumber">
                     <valueString value="01c"/>
                  </extension>
                  <extension url="http://hl7.org/fhir/StructureDefinition/iso21090-ADXP-streetName">
                     <valueString value="Kanalstr."/>
                  </extension>
               </line>
               <city value="Griemburg"/>
               <postalCode value="85414"/>
               <country value="D"/>
            </address>
         </Organization>
      </resource>
   </entry>
   <entry>
      <fullUrl value="https://pvs.gematik.de/fhir/Coverage/028ccaa2-1cc3-4b6b-a17d-d85e0ba3088c"/>
      <resource>
         <Coverage xmlns="http://hl7.org/fhir">
            <id value="028ccaa2-1cc3-4b6b-a17d-d85e0ba3088c"/>
            <meta>
               <profile value="https://fhir.kbv.de/StructureDefinition/KBV_PR_FOR_Coverage|1.1.0"/>
            </meta>
            <extension url="http://fhir.de/StructureDefinition/gkv/besondere-personengruppe">
               <valueCoding>
                  <system value="https://fhir.kbv.de/CodeSystem/KBV_CS_SFHIR_KBV_PERSONENGRUPPE"/>
                  <code value="00"/>
               </valueCoding>
            </extension>
            <extension url="http://fhir.de/StructureDefinition/gkv/dmp-kennzeichen">
               <valueCoding>
                  <system value="https://fhir.kbv.de/CodeSystem/KBV_CS_SFHIR_KBV_DMP"/>
                  <code value="00"/>
               </valueCoding>
            </extension>
            <extension url="http://fhir.de/StructureDefinition/gkv/wop">
               <valueCoding>
                  <system value="https://fhir.kbv.de/CodeSystem/KBV_CS_SFHIR_ITA_WOP"/>
                  <code value="83"/>
               </valueCoding>
            </extension>
            <extension url="http://fhir.de/StructureDefinition/gkv/versichertenart">
               <valueCoding>
                  <system value="https://fhir.kbv.de/CodeSystem/KBV_CS_SFHIR_KBV_VERSICHERTENSTATUS"/>
                  <code value="1"/>
               </valueCoding>
            </extension>
            <status value="active"/>
            <type>
               <coding>
                  <system value="http://fhir.de/CodeSystem/versicherungsart-de-basis"/>
                  <code value="PKV"/>
               </coding>
            </type>
            <beneficiary>
               <reference value="Patient/285bcd76-1bde-40bd-b99a-7bf9b923d768"/>
            </beneficiary>
            <payor>
               <identifier>
                  <system value="http://fhir.de/sid/arge-ik/iknr"/>
                  <value value="168140379"/>
               </identifier>
               <display value="Münchener Verein Versicherungsgruppe"/>
            </payor>
         </Coverage>
      </resource>
   </entry>
   <entry>
      <fullUrl value="https://pvs.gematik.de/fhir/Practitioner/7098d491-104d-41b2-88ba-47c8b726742e"/>
      <resource>
         <Practitioner xmlns="http://hl7.org/fhir">
            <id value="7098d491-104d-41b2-88ba-47c8b726742e"/>
            <meta>
               <profile value="https://fhir.kbv.de/StructureDefinition/KBV_PR_FOR_Practitioner|1.1.0"/>
            </meta>
            <identifier>
               <type>
                  <coding>
                     <system value="http://terminology.hl7.org/CodeSystem/v2-0203"/>
                     <code value="LANR"/>
                  </coding>
               </type>
               <system value="https://fhir.kbv.de/NamingSystem/KBV_NS_Base_ANR"/>
               <value value="874457048"/>
            </identifier>
            <name>
               <use value="official"/>
               <family value="Schraßer">
                  <extension url="http://hl7.org/fhir/StructureDefinition/humanname-own-name">
                     <valueString value="Schraßer"/>
                  </extension>
               </family>
               <given value="Dr."/>
               <prefix value="Dr.">
                  <extension url="http://hl7.org/fhir/StructureDefinition/iso21090-EN-qualifier">
                     <valueCode value="AC"/>
                  </extension>
               </prefix>
            </name>
            <qualification>
               <code>
                  <coding>
                     <system value="https://fhir.kbv.de/CodeSystem/KBV_CS_FOR_Qualification_Type"/>
                     <code value="00"/>
                  </coding>
               </code>
            </qualification>
            <qualification>
               <code>
                  <coding>
                     <system value="https://fhir.kbv.de/CodeSystem/KBV_CS_FOR_Berufsbezeichnung"/>
                     <code value="Berufsbezeichnung"/>
                  </coding>
                  <text value="Super-Facharzt für alles Mögliche"/>
               </code>
            </qualification>
         </Practitioner>
      </resource>
   </entry>
   <entry>
      <fullUrl value="https://pvs.gematik.de/fhir/MedicationRequest/ea671a1a-0514-454c-8fe9-5c730c9faaca"/>
      <resource>
         <MedicationRequest xmlns="http://hl7.org/fhir">
            <id value="ea671a1a-0514-454c-8fe9-5c730c9faaca"/>
            <meta>
               <profile value="https://fhir.kbv.de/StructureDefinition/KBV_PR_ERP_Prescription|1.1.0"/>
            </meta>
            <extension url="https://fhir.kbv.de/StructureDefinition/KBV_EX_ERP_BVG">
               <valueBoolean value="false"/>
            </extension>
            <extension url="https://fhir.kbv.de/StructureDefinition/KBV_EX_ERP_EmergencyServicesFee">
               <valueBoolean value="false"/>
            </extension>
            <extension url="https://fhir.kbv.de/StructureDefinition/KBV_EX_ERP_Multiple_Prescription">
               <extension url="Kennzeichen">
                  <valueBoolean value="false"/>
               </extension>
            </extension>
            <extension url="https://fhir.kbv.de/StructureDefinition/KBV_EX_FOR_StatusCoPayment">
               <valueCoding>
                  <system value="https://fhir.kbv.de/CodeSystem/KBV_CS_FOR_StatusCoPayment"/>
                  <code value="2"/>
               </valueCoding>
            </extension>
            <status value="active"/>
            <intent value="order"/>
            <medicationReference>
               <reference value="Medication/d321be67-767a-49d6-9882-55b76f937acb"/>
            </medicationReference>
            <subject>
               <reference value="Patient/c50e881c-543c-4d40-94f8-fcbeca3e1209"/>
            </subject>
            <authoredOn value="2024-02-08"/>
            <requester>
               <reference value="Practitioner/7098d491-104d-41b2-88ba-47c8b726742e"/>
            </requester>
            <insurance>
               <reference value="Coverage/028ccaa2-1cc3-4b6b-a17d-d85e0ba3088c"/>
            </insurance>
            <dispenseRequest>
               <quantity>
                  <value value="1"/>
                  <system value="http://unitsofmeasure.org"/>
                  <code value="{Package}"/>
               </quantity>
            </dispenseRequest>
            <substitution>
               <allowedBoolean value="false"/>
            </substitution>
         </MedicationRequest>
      </resource>
   </entry>
</Bundle>