<Bundle xmlns="http://hl7.org/fhir">
   <id value="f9c4ff65-a40c-4f05-b3f8-7e5c846add7d"/>
   <meta>
      <lastUpdated value="2024-02-08T19:13:50.574+01:00"/>
      <profile value="https://fhir.kbv.de/StructureDefinition/KBV_PR_ERP_Bundle|1.1.0"/>
   </meta>
   <identifier>
      <system value="https://gematik.de/fhir/erp/NamingSystem/GEM_ERP_NS_PrescriptionId"/>
      <value value="200.000.002.096.525.73"/>
   </identifier>
   <type value="document"/>
   <timestamp value="2024-02-08T19:13:50.574+01:00"/>
   <entry>
      <fullUrl value="https://pvs.gematik.de/fhir/Composition/a48037d8-a138-47fa-9537-e0eee623f21e"/>
      <resource>
         <Composition xmlns="http://hl7.org/fhir">
            <id value="a48037d8-a138-47fa-9537-e0eee623f21e"/>
            <meta>
               <profile value="https://fhir.kbv.de/StructureDefinition/KBV_PR_ERP_Composition|1.1.0"/>
            </meta>
            <extension url="https://fhir.kbv.de/StructureDefinition/KBV_EX_FOR_Legal_basis">
               <valueCoding>
                  <system value="https://fhir.kbv.de/CodeSystem/KBV_CS_SFHIR_KBV_STATUSKENNZEICHEN"/>
                  <code value="00"/>
               </valueCoding>
            </extension>
            <status value="final"/>
            <type>
               <coding>
                  <system value="https://fhir.kbv.de/CodeSystem/KBV_CS_SFHIR_KBV_FORMULAR_ART"/>
                  <code value="e16A"/>
               </coding>
            </type>
            <subject>
               <reference value="Patient/a45926b5-f444-486c-bf5b-694f2e8d2ced"/>
            </subject>
            <date value="2024-02-08T19:13:50+01:00"/>
            <author>
               <reference value="Practitioner/6305b2ce-75b5-4589-8a17-f2b621449a2b"/>
               <type value="Practitioner"/>
            </author>
            <author>
               <type value="Device"/>
               <identifier>
                  <system value="https://fhir.kbv.de/NamingSystem/KBV_NS_FOR_Pruefnummer"/>
                  <value value="GEMATIK/410/2109/36/123"/>
               </identifier>
            </author>
            <title value="elektronische Arzneimittelverordnung"/>
            <custodian>
               <reference value="Organization/62ca9c57-bac2-418b-8449-56116ca1f3bb"/>
            </custodian>
            <section>
               <code>
                  <coding>
                     <system value="https://fhir.kbv.de/CodeSystem/KBV_CS_ERP_Section_Type"/>
                     <code value="Coverage"/>
                  </coding>
               </code>
               <entry>
                  <reference value="Coverage/987f0453-b121-4067-91d0-26252954aed5"/>
               </entry>
            </section>
            <section>
               <code>
                  <coding>
                     <system value="https://fhir.kbv.de/CodeSystem/KBV_CS_ERP_Section_Type"/>
                     <code value="Prescription"/>
                  </coding>
               </code>
               <entry>
                  <reference value="MedicationRequest/f1b38b26-ee45-492b-9b8e-1113b948d06b"/>
               </entry>
            </section>
         </Composition>
      </resource>
   </entry>
   <entry>
      <fullUrl value="https://pvs.gematik.de/fhir/Medication/f5b4d81a-1800-4c6c-8771-3e39d16c2c30"/>
      <resource>
         <Medication xmlns="http://hl7.org/fhir">
            <id value="f5b4d81a-1800-4c6c-8771-3e39d16c2c30"/>
            <meta>
               <profile value="https://fhir.kbv.de/StructureDefinition/KBV_PR_ERP_Medication_PZN|1.1.0"/>
            </meta>
            <extension url="https://fhir.kbv.de/StructureDefinition/KBV_EX_Base_Medication_Type">
               <valueCodeableConcept>
                  <coding>
                     <system value="http://snomed.info/sct"/>
                     <version value="http://snomed.info/sct/900000000000207008/version/20220331"/>
                     <code value="763158003"/>
                     <display value="Medicinal product (product)"/>
                  </coding>
               </valueCodeableConcept>
            </extension>
            <extension url="https://fhir.kbv.de/StructureDefinition/KBV_EX_ERP_Medication_Category">
               <valueCoding>
                  <system value="https://fhir.kbv.de/CodeSystem/KBV_CS_ERP_Medication_Category"/>
                  <code value="00"/>
               </valueCoding>
            </extension>
            <extension url="https://fhir.kbv.de/StructureDefinition/KBV_EX_ERP_Medication_Vaccine">
               <valueBoolean value="false"/>
            </extension>
            <extension url="http://fhir.de/StructureDefinition/normgroesse">
               <valueCode value="NB"/>
            </extension>
            <code>
               <coding>
                  <system value="http://fhir.de/CodeSystem/ifa/pzn"/>
                  <code value="12345678"/>
               </coding>
               <text value="Schmerzmittel"/>
            </code>
            <form>
               <coding>
                  <system value="https://fhir.kbv.de/CodeSystem/KBV_CS_SFHIR_KBV_DARREICHUNGSFORM"/>
                  <code value="TAB"/>
               </coding>
            </form>
            <amount>
               <numerator>
                  <extension url="https://fhir.kbv.de/StructureDefinition/KBV_EX_ERP_Medication_PackagingSize">
                     <valueString value="1"/>
                  </extension>
                  <unit value="Stk"/>
               </numerator>
               <denominator>
                  <value value="1"/>
               </denominator>
            </amount>
         </Medication>
      </resource>
   </entry>
   <entry>
      <fullUrl value="https://pvs.gematik.de/fhir/Patient/a45926b5-f444-486c-bf5b-694f2e8d2ced"/>
      <resource>
         <Patient xmlns="http://hl7.org/fhir">
            <id value="a45926b5-f444-486c-bf5b-694f2e8d2ced"/>
            <meta>
               <profile value="https://fhir.kbv.de/StructureDefinition/KBV_PR_FOR_Patient|1.1.0"/>
            </meta>
            <identifier>
               <type>
                  <coding>
                     <system value="http://fhir.de/CodeSystem/identifier-type-de-basis"/>
                     <code value="PKV"/>
                  </coding>
               </type>
               <system value="http://fhir.de/sid/pkv/kvid-10"/>
               <value value="X110465770"/>
            </identifier>
            <name>
               <use value="official"/>
               <family value="Angermänn">
                  <extension url="http://hl7.org/fhir/StructureDefinition/humanname-own-name">
                     <valueString value="Angermänn"/>
                  </extension>
               </family>
               <given value="Günther"/>
            </name>
            <birthDate value="1969-03-29"/>
            <address>
               <type value="both"/>
               <line value="Lortzingstr. 2">
                  <extension url="http://hl7.org/fhir/StructureDefinition/iso21090-ADXP-houseNumber">
                     <valueString value="2"/>
                  </extension>
                  <extension url="http://hl7.org/fhir/StructureDefinition/iso21090-ADXP-streetName">
                     <valueString value="Lortzingstr."/>
                  </extension>
               </line>
               <city value="West Karloscheid"/>
               <postalCode value="77428"/>
               <country value="D"/>
            </address>
         </Patient>
      </resource>
   </entry>
   <entry>
      <fullUrl value="https://pvs.gematik.de/fhir/Organization/62ca9c57-bac2-418b-8449-56116ca1f3bb"/>
      <resource>
         <Organization xmlns="http://hl7.org/fhir">
            <id value="62ca9c57-bac2-418b-8449-56116ca1f3bb"/>
            <meta>
               <profile value="https://fhir.kbv.de/StructureDefinition/KBV_PR_FOR_Organization|1.1.0"/>
            </meta>
            <identifier>
               <type>
                  <coding>
                     <system value="http://terminology.hl7.org/CodeSystem/v2-0203"/>
                     <code value="BSNR"/>
                  </coding>
               </type>
               <system value="https://fhir.kbv.de/NamingSystem/KBV_NS_Base_BSNR"/>
               <value value="932596891"/>
            </identifier>
            <name value="Arztpraxis Schraßer"/>
            <telecom>
               <system value="phone"/>
               <value value="(0419) 301209056"/>
            </telecom>
            <telecom>
               <system value="email"/>
               <value value="soraya.rau@kron.de"/>
            </telecom>
            <address>
               <type value="both"/>
               <line value="Erich-Heckel-Str. 25c">
                  <extension url="http://hl7.org/fhir/StructureDefinition/iso21090-ADXP-houseNumber">
                     <valueString value="25c"/>
                  </extension>
                  <extension url="http://hl7.org/fhir/StructureDefinition/iso21090-ADXP-streetName">
                     <valueString value="Erich-Heckel-Str."/>
                  </extension>
               </line>
               <city value="Bergerscheid"/>
               <postalCode value="64326"/>
               <country value="D"/>
            </address>
         </Organization>
      </resource>
   </entry>
   <entry>
      <fullUrl value="https://pvs.gematik.de/fhir/Coverage/987f0453-b121-4067-91d0-26252954aed5"/>
      <resource>
         <Coverage xmlns="http://hl7.org/fhir">
            <id value="987f0453-b121-4067-91d0-26252954aed5"/>
            <meta>
               <profile value="https://fhir.kbv.de/StructureDefinition/KBV_PR_FOR_Coverage|1.1.0"/>
            </meta>
            <extension url="http://fhir.de/StructureDefinition/gkv/besondere-personengruppe">
               <valueCoding>
                  <system value="https://fhir.kbv.de/CodeSystem/KBV_CS_SFHIR_KBV_PERSONENGRUPPE"/>
                  <code value="00"/>
               </valueCoding>
            </extension>
            <extension url="http://fhir.de/StructureDefinition/gkv/dmp-kennzeichen">
               <valueCoding>
                  <system value="https://fhir.kbv.de/CodeSystem/KBV_CS_SFHIR_KBV_DMP"/>
                  <code value="00"/>
               </valueCoding>
            </extension>
            <extension url="http://fhir.de/StructureDefinition/gkv/wop">
               <valueCoding>
                  <system value="https://fhir.kbv.de/CodeSystem/KBV_CS_SFHIR_ITA_WOP"/>
                  <code value="71"/>
               </valueCoding>
            </extension>
            <extension url="http://fhir.de/StructureDefinition/gkv/versichertenart">
               <valueCoding>
                  <system value="https://fhir.kbv.de/CodeSystem/KBV_CS_SFHIR_KBV_VERSICHERTENSTATUS"/>
                  <code value="1"/>
               </valueCoding>
            </extension>
            <status value="active"/>
            <type>
               <coding>
                  <system value="http://fhir.de/CodeSystem/versicherungsart-de-basis"/>
                  <code value="PKV"/>
               </coding>
            </type>
            <beneficiary>
               <reference value="Patient/3499c22a-410c-488c-9ef1-71c2e2c7d895"/>
            </beneficiary>
            <payor>
               <identifier>
                  <system value="http://fhir.de/sid/arge-ik/iknr"/>
                  <value value="168140288"/>
               </identifier>
               <display value="Debeka"/>
            </payor>
         </Coverage>
      </resource>
   </entry>
   <entry>
      <fullUrl value="https://pvs.gematik.de/fhir/Practitioner/6305b2ce-75b5-4589-8a17-f2b621449a2b"/>
      <resource>
         <Practitioner xmlns="http://hl7.org/fhir">
            <id value="6305b2ce-75b5-4589-8a17-f2b621449a2b"/>
            <meta>
               <profile value="https://fhir.kbv.de/StructureDefinition/KBV_PR_FOR_Practitioner|1.1.0"/>
            </meta>
            <identifier>
               <type>
                  <coding>
                     <system value="http://terminology.hl7.org/CodeSystem/v2-0203"/>
                     <code value="LANR"/>
                  </coding>
               </type>
               <system value="https://fhir.kbv.de/NamingSystem/KBV_NS_Base_ANR"/>
               <value value="411539329"/>
            </identifier>
            <name>
               <use value="official"/>
               <family value="Schraßer">
                  <extension url="http://hl7.org/fhir/StructureDefinition/humanname-own-name">
                     <valueString value="Schraßer"/>
                  </extension>
               </family>
               <given value="Dr."/>
               <prefix value="Dr.">
                  <extension url="http://hl7.org/fhir/StructureDefinition/iso21090-EN-qualifier">
                     <valueCode value="AC"/>
                  </extension>
               </prefix>
            </name>
            <qualification>
               <code>
                  <coding>
                     <system value="https://fhir.kbv.de/CodeSystem/KBV_CS_FOR_Qualification_Type"/>
                     <code value="00"/>
                  </coding>
               </code>
            </qualification>
            <qualification>
               <code>
                  <coding>
                     <system value="https://fhir.kbv.de/CodeSystem/KBV_CS_FOR_Berufsbezeichnung"/>
                     <code value="Berufsbezeichnung"/>
                  </coding>
                  <text value="Super-Facharzt für alles Mögliche"/>
               </code>
            </qualification>
         </Practitioner>
      </resource>
   </entry>
   <entry>
      <fullUrl value="https://pvs.gematik.de/fhir/MedicationRequest/f1b38b26-ee45-492b-9b8e-1113b948d06b"/>
      <resource>
         <MedicationRequest xmlns="http://hl7.org/fhir">
            <id value="f1b38b26-ee45-492b-9b8e-1113b948d06b"/>
            <meta>
               <profile value="https://fhir.kbv.de/StructureDefinition/KBV_PR_ERP_Prescription|1.1.0"/>
            </meta>
            <extension url="https://fhir.kbv.de/StructureDefinition/KBV_EX_ERP_BVG">
               <valueBoolean value="false"/>
            </extension>
            <extension url="https://fhir.kbv.de/StructureDefinition/KBV_EX_ERP_EmergencyServicesFee">
               <valueBoolean value="false"/>
            </extension>
            <extension url="https://fhir.kbv.de/StructureDefinition/KBV_EX_ERP_Multiple_Prescription">
               <extension url="Kennzeichen">
                  <valueBoolean value="false"/>
               </extension>
            </extension>
            <extension url="https://fhir.kbv.de/StructureDefinition/KBV_EX_FOR_StatusCoPayment">
               <valueCoding>
                  <system value="https://fhir.kbv.de/CodeSystem/KBV_CS_FOR_StatusCoPayment"/>
                  <code value="2"/>
               </valueCoding>
            </extension>
            <status value="active"/>
            <intent value="order"/>
            <medicationReference>
               <reference value="Medication/f5b4d81a-1800-4c6c-8771-3e39d16c2c30"/>
            </medicationReference>
            <subject>
               <reference value="Patient/a45926b5-f444-486c-bf5b-694f2e8d2ced"/>
            </subject>
            <authoredOn value="2024-02-08"/>
            <requester>
               <reference value="Practitioner/6305b2ce-75b5-4589-8a17-f2b621449a2b"/>
            </requester>
            <insurance>
               <reference value="Coverage/987f0453-b121-4067-91d0-26252954aed5"/>
            </insurance>
            <dispenseRequest>
               <quantity>
                  <value value="1"/>
                  <system value="http://unitsofmeasure.org"/>
                  <code value="{Package}"/>
               </quantity>
            </dispenseRequest>
            <substitution>
               <allowedBoolean value="false"/>
            </substitution>
         </MedicationRequest>
      </resource>
   </entry>
</Bundle>