<Bundle xmlns="http://hl7.org/fhir">
    <id value="erp-chargeItem-05-GET-ChargeItem-Response"/>
    <type value="collection"/>
    <timestamp value="2025-01-15T15:29:00.434+00:00"/>
    <entry>
        <fullUrl value="https://erp-ref.zentral.erp.splitdns.ti-dienste.de/ChargeItem/200.000.000.000.000.01"/>
        <resource>
            <ChargeItem>
                <id value="200.000.000.000.000.01"/>
                <meta>
                    <profile value="https://gematik.de/fhir/erpchrg/StructureDefinition/GEM_ERPCHRG_PR_ChargeItem|1.0"/>
                </meta>
                <identifier>
                    <system value="https://gematik.de/fhir/erp/NamingSystem/GEM_ERP_NS_PrescriptionId"/>
                    <value value="200.000.000.000.000.01"/>
                </identifier>
                <status value="billable"/>
                <code>
                    <coding>
                        <system value="http://terminology.hl7.org/CodeSystem/data-absent-reason"/>
                        <code value="not-applicable"/>
                    </coding>
                </code>
                <subject>
                    <identifier>
                        <system value="http://fhir.de/sid/pkv/kvid-10"/>
                        <value value="P987654321"/>
                    </identifier>
                </subject>
                <enterer>
                    <identifier>
                        <system value="https://gematik.de/fhir/sid/telematik-id"/>
                        <value value="3-SMC-B-Testkarte-883110000116873"/>
                    </identifier>
                </enterer>
                <enteredDate value="2025-01-15T15:29:00.434+00:00"/>
                <supportingInformation>
                    <reference value="urn:uuid:d9a98ce4-9585-4031-ba85-3719bf0fc14a"/>
                    <display value="https://fhir.kbv.de/StructureDefinition/KBV_PR_ERP_Bundle"/>
                </supportingInformation>
                <supportingInformation>
                    <reference value="urn:uuid:f1909de6-7d21-443b-a2ae-230b9cb62f70-1"/>
                    <display value="http://fhir.abda.de/eRezeptAbgabedaten/StructureDefinition/DAV-PKV-PR-ERP-AbgabedatenBundle"/>
                </supportingInformation>
                <supportingInformation>
                    <reference value="urn:uuid:d45fa5b0-7b01-457f-a41f-b1ea28982963"/>
                    <display value="https://gematik.de/fhir/erp/StructureDefinition/GEM_ERP_PR_Bundle"/>
                </supportingInformation>
            </ChargeItem>
        </resource>
    </entry>
    <entry>
        <fullUrl value="urn:uuid:f1909de6-7d21-443b-a2ae-230b9cb62f70-1"/>
        <resource>
            <Bundle>
                <id value="f1909de6-7d21-443b-a2ae-230b9cb62f70-1"/>
                <meta>
                    <profile value="https://gematik.de/fhir/erp/StructureDefinition/GEM_ERP_PR_Bundle|1.5"/>
                </meta>
                <identifier>
                    <system value="https://gematik.de/fhir/erp/NamingSystem/GEM_ERP_NS_PrescriptionId"/>
                    <value value="160.000.000.000.000.01"/>
                </identifier>
                <type value="document"/>
                <timestamp value="2025-01-15T15:29:00.434+00:00"/>
                <link>
                    <relation value="self"/>
                    <url value="https://erp-ref.zentral.erp.splitdns.ti-dienste.de/Task/160.000.000.000.000.01/$close/"/>
                </link>
                <entry>
                    <fullUrl value="urn:uuid:c624cf47-e235-4624-af71-0a09dc9254dc"/>
                    <resource>
                        <Composition>
                            <id value="c624cf47-e235-4624-af71-0a09dc9254dc"/>
                            <meta>
                                <profile value="https://gematik.de/fhir/erp/StructureDefinition/GEM_ERP_PR_Composition|1.5"/>
                            </meta>
                            <extension url="https://gematik.de/fhir/erp/StructureDefinition/GEM_ERP_EX_Beneficiary">
                                <valueIdentifier>
                                    <system value="https://gematik.de/fhir/sid/telematik-id"/>
                                    <value value="3-SMC-B-Testkarte-883110000129070"/>
                                </valueIdentifier>
                            </extension>
                            <status value="final"/>
                            <type>
                                <coding>
                                    <system value="https://gematik.de/fhir/erp/CodeSystem/GEM_ERP_CS_DocumentType"/>
                                    <code value="3"/>
                                    <display value="Receipt"/>
                                </coding>
                            </type>
                            <date value="2025-01-15T15:29:00.434+00:00"/>
                            <author>
                                <reference value="urn:uuid:65ea903d-b3ea-4b5e-acbd-3e8c2c695542"/>
                            </author>
                            <title value="Quittung"/>
                            <event>
                                <period>
                                    <start value="2025-01-15T15:29:00.434+00:00"/>
                                    <end value="2025-01-15T16:29:00.434+00:00"/>
                                </period>
                            </event>
                            <section>
                                <entry>
                                    <reference value="urn:uuid:073ef818-3d18-4cf0-a5b7-9321ec838f94"/>
                                </entry>
                            </section>
                        </Composition>
                    </resource>
                </entry>
                <entry>
                    <fullUrl value="urn:uuid:65ea903d-b3ea-4b5e-acbd-3e8c2c695542"/>
                    <resource>
                        <Device>
                            <id value="1"/>
                            <meta>
                                <profile value="https://gematik.de/fhir/erp/StructureDefinition/GEM_ERP_PR_Device|1.5"/>
                            </meta>
                            <status value="active"/>
                            <serialNumber value="1.16.0"/>
                            <deviceName>
                                <name value="E-Rezept-Fachdienst"/>
                                <type value="user-friendly-name"/>
                            </deviceName>
                            <version>
                                <value value="1.16.0"/>
                            </version>
                            <contact>
                                <system value="email"/>
                                <value value="betrieb@gematik.de"/>
                            </contact>
                        </Device>
                    </resource>
                </entry>
                <entry>
                    <fullUrl value="urn:uuid:073ef818-3d18-4cf0-a5b7-9321ec838f94"/>
                    <resource>
                        <Binary>
                            <id value="073ef818-3d18-4cf0-a5b7-9321ec838f94"/>
                            <meta>
                                <versionId value="1"/>
                                <profile value="https://gematik.de/fhir/erp/StructureDefinition/GEM_ERP_PR_Digest|1.5"/>
                            </meta>
                            <contentType value="application/octet-stream"/>
                            <data value="tJg8c5ZtdhzEEhJ0ZpAsUVFx5dKuYgQFs5oKgthi17M="/>
                        </Binary>
                    </resource>
                </entry>
                <signature>
                    <type>
                        <system value="urn:iso-astm:E1762-95:2013"/>
                        <code value="1.2.840.10065.1.12.1.1"/>
                    </type>
                    <when value="2025-01-15T15:29:00.434+00:00"/>
                    <who>
                        <reference value="https://erp.zentral.erp.splitdns.ti-dienste.de/Device/1"/>
                    </who>
                    <sigFormat value="application/pkcs7-mime"/>
                    <data value="RGllcyBpc3QgZWluIEJlaXNwaWVs"/>
                </signature>
            </Bundle>
        </resource>
    </entry>
    <entry>
        <fullUrl value="urn:uuid:d9a98ce4-9585-4031-ba85-3719bf0fc14a"/>
        <resource>
            <Bundle>
                <id value="d9a98ce4-9585-4031-ba85-3719bf0fc14a"/>
                <meta>
                    <lastUpdated value="2025-01-15T15:29:00.434+00:00"/>
                    <profile value="https://fhir.kbv.de/StructureDefinition/KBV_PR_ERP_Bundle|1.2"/>
                </meta>
                <identifier>
                    <system value="https://gematik.de/fhir/erp/NamingSystem/GEM_ERP_NS_PrescriptionId"/>
                    <value value="200.000.000.000.000.01"/>
                </identifier>
                <type value="document"/>
                <timestamp value="2025-01-15T15:29:00.434+00:00"/>
                <entry>
                    <fullUrl value="http://pvs.praxis-topp-gluecklich.local/fhir/Composition/b0e22b86-e7e9-46c1-80fe-e6e24442dPKV"/>
                    <resource>
                        <Composition>
                            <id value="b0e22b86-e7e9-46c1-80fe-e6e24442dPKV"/>
                            <meta>
                                <profile value="https://fhir.kbv.de/StructureDefinition/KBV_PR_ERP_Composition|1.2"/>
                            </meta>
                            <extension url="https://fhir.kbv.de/StructureDefinition/KBV_EX_FOR_Legal_basis">
                                <valueCoding>
                                    <system value="https://fhir.kbv.de/CodeSystem/KBV_CS_SFHIR_KBV_STATUSKENNZEICHEN"/>
                                    <code value="00"/>
                                </valueCoding>
                            </extension>
                            <extension url="https://fhir.kbv.de/StructureDefinition/KBV_EX_FOR_PKV_Tariff">
                                <valueCoding>
                                    <system value="https://fhir.kbv.de/CodeSystem/KBV_CS_SFHIR_KBV_PKV_TARIFF"/>
                                    <code value="03"/>
                                </valueCoding>
                            </extension>
                            <status value="final"/>
                            <type>
                                <coding>
                                    <system value="https://fhir.kbv.de/CodeSystem/KBV_CS_SFHIR_KBV_FORMULAR_ART"/>
                                    <code value="e16A"/>
                                </coding>
                            </type>
                            <subject>
                                <reference value="Patient/9774f67f-a238-4daf-b4e6-Pat-PKV"/>
                            </subject>
                            <date value="2025-01-15T15:29:00+00:00"/>
                            <author>
                                <reference value="Practitioner/d8463daf-258e-4cad-a86a-6fd42fac1PKV"/>
                                <type value="Practitioner"/>
                            </author>
                            <author>
                                <type value="Device"/>
                                <identifier>
                                    <system value="https://fhir.kbv.de/NamingSystem/KBV_NS_FOR_Pruefnummer"/>
                                    <value value="Y/400/1910/36/346"/>
                                </identifier>
                            </author>
                            <title value="elektronische Arzneimittelverordnung"/>
                            <custodian>
                                <reference value="Organization/cf042e44-086a-4d51-9c77-172f9a972PKV"/>
                            </custodian>
                            <section>
                                <code>
                                    <coding>
                                        <system value="https://fhir.kbv.de/CodeSystem/KBV_CS_ERP_Section_Type"/>
                                        <code value="Prescription"/>
                                    </coding>
                                </code>
                                <entry>
                                    <reference value="MedicationRequest/f58f4403-7a3a-4a12-bb15-b2fa25b02PKV"/>
                                </entry>
                            </section>
                            <section>
                                <code>
                                    <coding>
                                        <system value="https://fhir.kbv.de/CodeSystem/KBV_CS_ERP_Section_Type"/>
                                        <code value="Coverage"/>
                                    </coding>
                                </code>
                                <entry>
                                    <reference value="Coverage/1b1ffb6e-eb05-43d7-87eb-Cov-PKV"/>
                                </entry>
                            </section>
                        </Composition>
                    </resource>
                </entry>
                <entry>
                    <fullUrl value="http://pvs.praxis-topp-gluecklich.local/fhir/MedicationRequest/f58f4403-7a3a-4a12-bb15-b2fa25b02PKV"/>
                    <resource>
                        <MedicationRequest>
                            <id value="f58f4403-7a3a-4a12-bb15-b2fa25b02PKV"/>
                            <meta>
                                <profile value="https://fhir.kbv.de/StructureDefinition/KBV_PR_ERP_Prescription|1.2"/>
                            </meta>
                            <extension url="https://fhir.kbv.de/StructureDefinition/KBV_EX_ERP_EmergencyServicesFee">
                                <valueBoolean value="false"/>
                            </extension>
                            <extension url="https://fhir.kbv.de/StructureDefinition/KBV_EX_FOR_SER">
                                <valueBoolean value="false"/>
                            </extension>
                            <extension url="https://fhir.kbv.de/StructureDefinition/KBV_EX_ERP_Multiple_Prescription">
                                <extension url="Kennzeichen">
                                    <valueBoolean value="true"/>
                                </extension>
                                <extension url="Nummerierung">
                                    <valueRatio>
                                        <numerator>
                                            <value value="2"/>
                                        </numerator>
                                        <denominator>
                                            <value value="4"/>
                                        </denominator>
                                    </valueRatio>
                                </extension>
                                <extension url="Zeitraum">
                                    <valuePeriod>
                                        <start value="2023-07-02"/>
                                        <end value="2023-09-30"/>
                                    </valuePeriod>
                                </extension>
                                <extension url="ID">
                                    <valueIdentifier>
                                        <system value="urn:ietf:rfc:3986"/>
                                        <value value="urn:uuid:24e2e10d-e962-4d1c-be4f-8760e690a5f0"/>
                                    </valueIdentifier>
                                </extension>
                            </extension>
                            <extension url="https://fhir.kbv.de/StructureDefinition/KBV_EX_FOR_StatusCoPayment">
                                <valueCoding>
                                    <system value="https://fhir.kbv.de/CodeSystem/KBV_CS_FOR_StatusCoPayment"/>
                                    <code value="0"/>
                                </valueCoding>
                            </extension>
                            <extension url="https://fhir.kbv.de/StructureDefinition/KBV_EX_FOR_Accident">
                                <extension url="Unfallkennzeichen">
                                    <valueCoding>
                                        <system value="https://fhir.kbv.de/CodeSystem/KBV_CS_FOR_Ursache_Type"/>
                                        <code value="1"/>
                                    </valueCoding>
                                </extension>
                                <extension url="Unfalltag">
                                    <valueDate value="2023-07-01"/>
                                </extension>
                            </extension>
                            <status value="active"/>
                            <intent value="order"/>
                            <medicationReference>
                                <reference value="Medication/e3a4efa7-84fc-465b-b14c-720195097PKV"/>
                            </medicationReference>
                            <subject>
                                <reference value="Patient/9774f67f-a238-4daf-b4e6-Pat-PKV"/>
                            </subject>
                            <authoredOn value="2025-01-15"/>
                            <requester>
                                <reference value="Practitioner/d8463daf-258e-4cad-a86a-6fd42fac1PKV"/>
                            </requester>
                            <insurance>
                                <reference value="Coverage/1b1ffb6e-eb05-43d7-87eb-Cov-PKV"/>
                            </insurance>
                            <note>
                                <text value="Dummy-Hinweis für die Apotheke"/>
                            </note>
                            <dosageInstruction>
                                <extension url="https://fhir.kbv.de/StructureDefinition/KBV_EX_ERP_DosageFlag">
                                    <valueBoolean value="false"/>
                                </extension>
                            </dosageInstruction>
                            <dispenseRequest>
                                <quantity>
                                    <value value="2"/>
                                    <unit value="Packung"/>
                                    <system value="http://unitsofmeasure.org"/>
                                    <code value="{Package}"/>
                                </quantity>
                            </dispenseRequest>
                        </MedicationRequest>
                    </resource>
                </entry>
                <entry>
                    <fullUrl value="http://pvs.praxis-topp-gluecklich.local/fhir/Medication/e3a4efa7-84fc-465b-b14c-720195097PKV"/>
                    <resource>
                        <Medication>
                            <id value="e3a4efa7-84fc-465b-b14c-720195097PKV"/>
                            <meta>
                                <profile value="https://fhir.kbv.de/StructureDefinition/KBV_PR_ERP_Medication_Ingredient|1.2"/>
                            </meta>
                            <extension url="https://fhir.kbv.de/StructureDefinition/KBV_EX_ERP_Medication_Category">
                                <valueCoding>
                                    <system value="https://fhir.kbv.de/CodeSystem/KBV_CS_ERP_Medication_Category"/>
                                    <code value="00"/>
                                </valueCoding>
                            </extension>
                            <extension url="https://fhir.kbv.de/StructureDefinition/KBV_EX_ERP_Medication_Vaccine">
                                <valueBoolean value="false"/>
                            </extension>
                            <code>
                                <coding>
                                    <system value="https://fhir.kbv.de/CodeSystem/KBV_CS_ERP_Medication_Type"/>
                                    <code value="wirkstoff"/>
                                </coding>
                            </code>
                            <form>
                                <text value="Tabletten"/>
                            </form>
                            <amount>
                                <numerator>
                                    <extension url="https://fhir.kbv.de/StructureDefinition/KBV_EX_ERP_Medication_PackagingSize">
                                        <valueString value="2x20"/>
                                    </extension>
                                    <unit value="Stk"/>
                                </numerator>
                                <denominator>
                                    <value value="1"/>
                                </denominator>
                            </amount>
                            <ingredient>
                                <itemCodeableConcept>
                                    <coding>
                                        <system value="http://fhir.de/CodeSystem/ask"/>
                                        <code value="Dummy-ASK"/>
                                    </coding>
                                    <text value="Ibuprofen"/>
                                </itemCodeableConcept>
                                <strength>
                                    <numerator>
                                        <value value="800"/>
                                        <unit value="mg"/>
                                    </numerator>
                                    <denominator>
                                        <value value="1"/>
                                    </denominator>
                                </strength>
                            </ingredient>
                        </Medication>
                    </resource>
                </entry>
                <entry>
                    <fullUrl value="http://pvs.praxis-topp-gluecklich.local/fhir/Patient/9774f67f-a238-4daf-b4e6-Pat-PKV"/>
                    <resource>
                        <Patient>
                            <id value="9774f67f-a238-4daf-b4e6-Pat-PKV"/>
                            <meta>
                                <profile value="https://fhir.kbv.de/StructureDefinition/KBV_PR_FOR_Patient|1.2"/>
                            </meta>
                            <identifier>
                                <type>
                                    <coding>
                                        <system value="http://fhir.de/CodeSystem/identifier-type-de-basis"/>
                                        <code value="KVZ10"/>
                                    </coding>
                                </type>
                                <system value="http://fhir.de/sid/gkv/kvid-10"/>
                                <value value="P123464117"/>
                            </identifier>
                            <name>
                                <use value="official"/>
                                <family value="Ludger Königsstein">
                                    <extension url="http://hl7.org/fhir/StructureDefinition/humanname-own-name">
                                        <valueString value="Königsstein"/>
                                    </extension>
                                </family>
                                <given value="Ludger"/>
                            </name>
                            <birthDate value="1935-06-22"/>
                            <address>
                                <type value="both"/>
                                <line value="Musterstr. 1">
                                    <extension url="http://hl7.org/fhir/StructureDefinition/iso21090-ADXP-houseNumber">
                                        <valueString value="1"/>
                                    </extension>
                                    <extension url="http://hl7.org/fhir/StructureDefinition/iso21090-ADXP-streetName">
                                        <valueString value="Musterstr."/>
                                    </extension>
                                </line>
                                <city value="Berlin"/>
                                <postalCode value="10623"/>
                            </address>
                        </Patient>
                    </resource>
                </entry>
                <entry>
                    <fullUrl value="http://pvs.praxis-topp-gluecklich.local/fhir/Practitioner/d8463daf-258e-4cad-a86a-6fd42fac1PKV"/>
                    <resource>
                        <Practitioner>
                            <id value="d8463daf-258e-4cad-a86a-6fd42fac1PKV"/>
                            <meta>
                                <profile value="https://fhir.kbv.de/StructureDefinition/KBV_PR_FOR_Practitioner|1.2"/>
                            </meta>
                            <identifier>
                                <type>
                                    <coding>
                                        <system value="http://terminology.hl7.org/CodeSystem/v2-0203"/>
                                        <code value="LANR"/>
                                    </coding>
                                </type>
                                <system value="https://fhir.kbv.de/NamingSystem/KBV_NS_Base_ANR"/>
                                <value value="838382210"/>
                            </identifier>
                            <name>
                                <use value="official"/>
                                <family value="Meier">
                                    <extension url="http://hl7.org/fhir/StructureDefinition/humanname-own-name">
                                        <valueString value="Meier"/>
                                    </extension>
                                </family>
                                <given value="Jörgen"/>
                            </name>
                            <qualification>
                                <code>
                                    <coding>
                                        <system value="https://fhir.kbv.de/CodeSystem/KBV_CS_FOR_Qualification_Type"/>
                                        <code value="03"/>
                                    </coding>
                                </code>
                            </qualification>
                            <qualification>
                                <code>
                                    <coding>
                                        <system value="https://fhir.kbv.de/CodeSystem/KBV_CS_FOR_Berufsbezeichnung"/>
                                        <code value="Berufsbezeichnung"/>
                                    </coding>
                                    <text value="FA Onkologie"/>
                                </code>
                            </qualification>
                        </Practitioner>
                    </resource>
                </entry>
                <entry>
                    <fullUrl value="http://pvs.praxis-topp-gluecklich.local/fhir/Organization/cf042e44-086a-4d51-9c77-172f9a972PKV"/>
                    <resource>
                        <Organization>
                            <id value="cf042e44-086a-4d51-9c77-172f9a972PKV"/>
                            <meta>
                                <profile value="https://fhir.kbv.de/StructureDefinition/KBV_PR_FOR_Organization|1.2"/>
                            </meta>
                            <identifier>
                                <type>
                                    <coding>
                                        <system value="http://terminology.hl7.org/CodeSystem/v2-0203"/>
                                        <code value="BSNR"/>
                                    </coding>
                                </type>
                                <system value="https://fhir.kbv.de/NamingSystem/KBV_NS_Base_BSNR"/>
                                <value value="031234567"/>
                            </identifier>
                            <name value="Hausarztpraxis Dr. Topp-Glücklich"/>
                            <telecom>
                                <system value="phone"/>
                                <value value="0301234567"/>
                            </telecom>
                            <address>
                                <type value="both"/>
                                <line value="Musterstr. 2">
                                    <extension url="http://hl7.org/fhir/StructureDefinition/iso21090-ADXP-houseNumber">
                                        <valueString value="2"/>
                                    </extension>
                                    <extension url="http://hl7.org/fhir/StructureDefinition/iso21090-ADXP-streetName">
                                        <valueString value="Musterstr."/>
                                    </extension>
                                </line>
                                <city value="Berlin"/>
                                <postalCode value="10623"/>
                            </address>
                        </Organization>
                    </resource>
                </entry>
                <entry>
                    <fullUrl value="http://pvs.praxis-topp-gluecklich.local/fhir/Coverage/1b1ffb6e-eb05-43d7-87eb-Cov-PKV"/>
                    <resource>
                        <Coverage>
                            <id value="1b1ffb6e-eb05-43d7-87eb-Cov-PKV"/>
                            <meta>
                                <profile value="https://fhir.kbv.de/StructureDefinition/KBV_PR_FOR_Coverage|1.2"/>
                            </meta>
                            <extension url="http://fhir.de/StructureDefinition/gkv/besondere-personengruppe">
                                <valueCoding>
                                    <system value="https://fhir.kbv.de/CodeSystem/KBV_CS_SFHIR_KBV_PERSONENGRUPPE"/>
                                    <code value="00"/>
                                </valueCoding>
                            </extension>
                            <extension url="http://fhir.de/StructureDefinition/gkv/dmp-kennzeichen">
                                <valueCoding>
                                    <system value="https://fhir.kbv.de/CodeSystem/KBV_CS_SFHIR_KBV_DMP"/>
                                    <code value="00"/>
                                </valueCoding>
                            </extension>
                            <extension url="http://fhir.de/StructureDefinition/gkv/versichertenart">
                                <valueCoding>
                                    <system value="https://fhir.kbv.de/CodeSystem/KBV_CS_SFHIR_KBV_VERSICHERTENSTATUS"/>
                                    <code value="1"/>
                                </valueCoding>
                            </extension>
                            <status value="active"/>
                            <type>
                                <coding>
                                    <system value="http://fhir.de/CodeSystem/versicherungsart-de-basis"/>
                                    <code value="PKV"/>
                                </coding>
                            </type>
                            <beneficiary>
                                <reference value="Patient/9774f67f-a238-4daf-b4e6-Pat-PKV"/>
                            </beneficiary>
                            <payor>
                                <identifier>
                                    <system value="http://fhir.de/sid/arge-ik/iknr"/>
                                    <value value="168140346"/>
                                </identifier>
                                <display value="Allianz Private Krankenversicherungs-AG"/>
                            </payor>
                        </Coverage>
                    </resource>
                </entry>
            </Bundle>
        </resource>
    </entry>
    <entry>
        <fullUrl value="urn:uuid:d45fa5b0-7b01-457f-a41f-b1ea28982963"/>
        <resource>
            <Bundle>
                <id value="6d240a29-144f-477b-b8e7-92d4b4bcebfd"/>
                <meta>
                    <profile value="http://fhir.abda.de/eRezeptAbgabedaten/StructureDefinition/DAV-PKV-PR-ERP-AbgabedatenBundle|1.3"/>
                </meta>
                <identifier>
                    <system value="https://gematik.de/fhir/erp/NamingSystem/GEM_ERP_NS_PrescriptionId"/>
                    <value value="200.000.000.000.000.01"/>
                </identifier>
                <type value="document"/>
                <timestamp value="2025-01-15T15:29:00.434+00:00"/>
                <entry>
                    <fullUrl value="urn:uuid:bf4e0e75-9433-43b2-bcd5-46046479c306"/>
                    <resource>
                        <Composition>
                            <id value="bf4e0e75-9433-43b2-bcd5-46046479c306"/>
                            <meta>
                                <profile value="http://fhir.abda.de/eRezeptAbgabedaten/StructureDefinition/DAV-PKV-PR-ERP-AbgabedatenComposition|1.3"/>
                            </meta>
                            <status value="final"/>
                            <type>
                                <coding>
                                    <system value="http://fhir.abda.de/eRezeptAbgabedaten/CodeSystem/DAV-CS-ERP-CompositionTypes"/>
                                    <code value="ERezeptAbgabedaten"/>
                                </coding>
                            </type>
                            <date value="2025-01-15T15:29:00+00:00"/>
                            <author>
                                <reference value="urn:uuid:d0ddcdff-f582-4a23-b86a-58e22402d105"/>
                            </author>
                            <title value="ERezeptAbgabedaten"/>
                            <section>
                                <title value="Abgabeinformationen"/>
                                <entry>
                                    <reference value="urn:uuid:27231a52-71fb-4bbe-9c5a-2e865efd8526"/>
                                </entry>
                            </section>
                            <section>
                                <title value="Apotheke"/>
                                <entry>
                                    <reference value="urn:uuid:d0ddcdff-f582-4a23-b86a-58e22402d105"/>
                                </entry>
                            </section>
                        </Composition>
                    </resource>
                </entry>
                <entry>
                    <fullUrl value="urn:uuid:d0ddcdff-f582-4a23-b86a-58e22402d105"/>
                    <resource>
                        <Organization>
                            <id value="d0ddcdff-f582-4a23-b86a-58e22402d105"/>
                            <meta>
                                <profile value="http://fhir.abda.de/eRezeptAbgabedaten/StructureDefinition/DAV-PKV-PR-ERP-Apotheke|1.3"/>
                            </meta>
                            <identifier>
                                <system value="http://fhir.de/sid/arge-ik/iknr"/>
                                <value value="308412345"/>
                            </identifier>
                            <name value="Adler-Apotheke"/>
                            <address>
                                <type value="physical"/>
                                <line value="Taunusstraße 89">
                                    <extension url="http://hl7.org/fhir/StructureDefinition/iso21090-ADXP-streetName">
                                        <valueString value="Taunusstraße"/>
                                    </extension>
                                    <extension url="http://hl7.org/fhir/StructureDefinition/iso21090-ADXP-houseNumber">
                                        <valueString value="89"/>
                                    </extension>
                                </line>
                                <city value="Langen"/>
                                <postalCode value="63225"/>
                                <country value="D"/>
                            </address>
                        </Organization>
                    </resource>
                </entry>
                <entry>
                    <fullUrl value="urn:uuid:27231a52-71fb-4bbe-9c5a-2e865efd8526"/>
                    <resource>
                        <MedicationDispense>
                            <id value="27231a52-71fb-4bbe-9c5a-2e865efd8526"/>
                            <meta>
                                <profile value="http://fhir.abda.de/eRezeptAbgabedaten/StructureDefinition/DAV-PKV-PR-ERP-Abgabeinformationen|1.3"/>
                            </meta>
                            <extension url="http://fhir.abda.de/eRezeptAbgabedaten/StructureDefinition/DAV-EX-ERP-Abrechnungszeilen">
                                <valueReference>
                                    <reference value="urn:uuid:d2475944-f853-48b9-b101-be9280b81a71"/>
                                </valueReference>
                            </extension>
                            <extension url="http://fhir.abda.de/eRezeptAbgabedaten/StructureDefinition/DAV-PKV-EX-ERP-AbrechnungsTyp">
                                <valueCodeableConcept>
                                    <coding>
                                        <system value="http://fhir.abda.de/eRezeptAbgabedaten/CodeSystem/DAV-PKV-CS-ERP-AbrechnungsTyp"/>
                                        <code value="1"/>
                                    </coding>
                                </valueCodeableConcept>
                            </extension>
                            <status value="completed"/>
                            <medicationCodeableConcept>
                                <coding>
                                    <system value="http://terminology.hl7.org/CodeSystem/data-absent-reason"/>
                                    <code value="not-applicable"/>
                                </coding>
                            </medicationCodeableConcept>
                            <performer>
                                <actor>
                                    <reference value="urn:uuid:d0ddcdff-f582-4a23-b86a-58e22402d105"/>
                                </actor>
                            </performer>
                            <authorizingPrescription>
                                <identifier>
                                    <system value="https://gematik.de/fhir/erp/NamingSystem/GEM_ERP_NS_PrescriptionId"/>
                                    <value value="200.000.000.000.000.01"/>
                                </identifier>
                            </authorizingPrescription>
                            <type>
                                <coding>
                                    <system value="http://fhir.abda.de/eRezeptAbgabedaten/CodeSystem/DAV-CS-ERP-MedicationDispenseTyp"/>
                                    <code value="Abgabeinformationen"/>
                                </coding>
                            </type>
                            <whenHandedOver value="2025-01-15"/>
                        </MedicationDispense>
                    </resource>
                </entry>
                <entry>
                    <fullUrl value="urn:uuid:d2475944-f853-48b9-b101-be9280b81a71"/>
                    <resource>
                        <Invoice>
                            <id value="d2475944-f853-48b9-b101-be9280b81a71"/>
                            <meta>
                                <profile value="http://fhir.abda.de/eRezeptAbgabedaten/StructureDefinition/DAV-PKV-PR-ERP-Abrechnungszeilen|1.3"/>
                            </meta>
                            <status value="issued"/>
                            <type>
                                <coding>
                                    <system value="http://fhir.abda.de/eRezeptAbgabedaten/CodeSystem/DAV-CS-ERP-InvoiceTyp"/>
                                    <code value="Abrechnungszeilen"/>
                                </coding>
                            </type>
                            <lineItem>
                                <sequence value="1"/>
                                <chargeItemCodeableConcept>
                                    <coding>
                                        <system value="http://fhir.de/CodeSystem/ifa/pzn"/>
                                        <code value="03879429"/>
                                    </coding>
                                    <text value="BELOC-ZOK mite 47,5 mg Retardtabletten 30 St"/>
                                </chargeItemCodeableConcept>
                                <priceComponent>
                                    <extension url="http://fhir.abda.de/eRezeptAbgabedaten/StructureDefinition/DAV-EX-ERP-MwStSatz">
                                        <valueDecimal value="19.00"/>
                                    </extension>
                                    <extension url="http://fhir.abda.de/eRezeptAbgabedaten/StructureDefinition/DAV-EX-ERP-KostenVersicherter">
                                        <extension url="Kategorie">
                                            <valueCodeableConcept>
                                                <coding>
                                                    <system value="http://fhir.abda.de/eRezeptAbgabedaten/CodeSystem/DAV-PKV-CS-ERP-KostenVersicherterKategorie"/>
                                                    <code value="0"/>
                                                </coding>
                                            </valueCodeableConcept>
                                        </extension>
                                        <extension url="Kostenbetrag">
                                            <valueMoney>
                                                <value value="0.00"/>
                                                <currency value="EUR"/>
                                            </valueMoney>
                                        </extension>
                                    </extension>
                                    <type value="informational"/>
                                    <factor value="1"/>
                                    <amount>
                                        <value value="21.04"/>
                                        <currency value="EUR"/>
                                    </amount>
                                </priceComponent>
                            </lineItem>
                            <totalGross>
                                <extension url="http://fhir.abda.de/eRezeptAbgabedaten/StructureDefinition/DAV-EX-ERP-Gesamtzuzahlung">
                                    <valueMoney>
                                        <value value="0.00"/>
                                        <currency value="EUR"/>
                                    </valueMoney>
                                </extension>
                                <value value="21.04"/>
                                <currency value="EUR"/>
                            </totalGross>
                        </Invoice>
                    </resource>
                </entry>
            </Bundle>
        </resource>
    </entry>
</Bundle>