{
  "resourceType": "Bundle",
  "id": "erp-chargeItem-09-GET-ChargeItem-Response",
  "type": "collection",
  "timestamp": "2025-01-15T15:29:00.434+00:00",
  "entry": [
    {
      "fullUrl": "https://erp-dev.zentral.erp.splitdns.ti-dienste.de/ChargeItem/200.000.000.000.000.01",
      "resource": {
        "resourceType": "ChargeItem",
        "id": "200.000.000.000.000.01",
        "meta": {
          "profile": [
            "https://gematik.de/fhir/erpchrg/StructureDefinition/GEM_ERPCHRG_PR_ChargeItem|1.0"
          ]
        },
        "status": "billable",
        "identifier": [
          {
            "system": "https://gematik.de/fhir/erp/NamingSystem/GEM_ERP_NS_PrescriptionId",
            "value": "200.000.000.000.000.01"
          },
          {
            "system": "https://gematik.de/fhir/erp/NamingSystem/GEM_ERP_NS_AccessCode",
            "value": "555bjf73jr8d9si2ceec14aec3ddee2263325dc2c6c699db115f58fe423607ea"
          }
        ],
        "enterer": {
          "identifier": {
            "system": "https://gematik.de/fhir/sid/telematik-id",
            "value": "3-SMC-B-Testkarte-883110000116873"
          }
        },
        "supportingInformation": [
          {
            "display": "https://fhir.kbv.de/StructureDefinition/KBV_PR_ERP_Bundle",
            "reference": "urn:uuid:42a8260d-579f-4cde-a288-4de0bfb6e6d9"
          },
          {
            "display": "http://fhir.abda.de/eRezeptAbgabedaten/StructureDefinition/DAV-PKV-PR-ERP-AbgabedatenBundle",
            "reference": "urn:uuid:f1909de6-7d21-443b-a2ae-230b9cb62f70-1"
          },
          {
            "display": "https://gematik.de/fhir/erp/StructureDefinition/GEM_ERP_PR_Bundle",
            "reference": "urn:uuid:42772ecc-3d67-4351-a719-2d728426a06b"
          }
        ],
        "subject": {
          "identifier": {
            "system": "http://fhir.de/sid/pkv/kvid-10",
            "value": "P987654321"
          }
        },
        "code": {
          "coding": [
            {
              "code": "not-applicable",
              "system": "http://terminology.hl7.org/CodeSystem/data-absent-reason"
            }
          ]
        },
        "enteredDate": "2025-01-15T15:29:00.434+00:00"
      }
    },
    {
      "fullUrl": "urn:uuid:f1909de6-7d21-443b-a2ae-230b9cb62f70-1",
      "resource": {
        "resourceType": "Bundle",
        "id": "f1909de6-7d21-443b-a2ae-230b9cb62f70-1",
        "meta": {
          "profile": [
            "https://gematik.de/fhir/erp/StructureDefinition/GEM_ERP_PR_Bundle|1.5"
          ]
        },
        "type": "document",
        "identifier": {
          "system": "https://gematik.de/fhir/erp/NamingSystem/GEM_ERP_NS_PrescriptionId",
          "value": "160.000.000.000.000.01"
        },
        "timestamp": "2025-01-15T15:29:00.434+00:00",
        "link": [
          {
            "relation": "self",
            "url": "https://erp-ref.zentral.erp.splitdns.ti-dienste.de/Task/160.000.000.000.000.01/$close/"
          }
        ],
        "entry": [
          {
            "fullUrl": "urn:uuid:c624cf47-e235-4624-af71-0a09dc9254dc",
            "resource": {
              "resourceType": "Composition",
              "id": "c624cf47-e235-4624-af71-0a09dc9254dc",
              "meta": {
                "profile": [
                  "https://gematik.de/fhir/erp/StructureDefinition/GEM_ERP_PR_Composition|1.5"
                ]
              },
              "status": "final",
              "title": "Quittung",
              "extension": [
                {
                  "url": "https://gematik.de/fhir/erp/StructureDefinition/GEM_ERP_EX_Beneficiary",
                  "valueIdentifier": {
                    "system": "https://gematik.de/fhir/sid/telematik-id",
                    "value": "3-SMC-B-Testkarte-883110000129070"
                  }
                }
              ],
              "type": {
                "coding": [
                  {
                    "system": "https://gematik.de/fhir/erp/CodeSystem/GEM_ERP_CS_DocumentType",
                    "code": "3",
                    "display": "Receipt"
                  }
                ]
              },
              "date": "2025-01-15T15:29:00.434+00:00",
              "author": [
                {
                  "reference": "urn:uuid:65ea903d-b3ea-4b5e-acbd-3e8c2c695542"
                }
              ],
              "event": [
                {
                  "period": {
                    "start": "2025-01-15T15:29:00.434+00:00",
                    "end": "2025-01-15T16:29:00.434+00:00"
                  }
                }
              ],
              "section": [
                {
                  "entry": [
                    {
                      "reference": "urn:uuid:073ef818-3d18-4cf0-a5b7-9321ec838f94"
                    }
                  ]
                }
              ]
            }
          },
          {
            "fullUrl": "urn:uuid:65ea903d-b3ea-4b5e-acbd-3e8c2c695542",
            "resource": {
              "resourceType": "Device",
              "id": "1",
              "meta": {
                "profile": [
                  "https://gematik.de/fhir/erp/StructureDefinition/GEM_ERP_PR_Device|1.5"
                ]
              },
              "status": "active",
              "serialNumber": "1.16.0",
              "version": [
                {
                  "value": "1.16.0"
                }
              ],
              "deviceName": [
                {
                  "name": "E-Rezept-Fachdienst",
                  "type": "user-friendly-name"
                }
              ],
              "contact": [
                {
                  "system": "email",
                  "value": "betrieb@gematik.de"
                }
              ]
            }
          },
          {
            "fullUrl": "urn:uuid:073ef818-3d18-4cf0-a5b7-9321ec838f94",
            "resource": {
              "resourceType": "Binary",
              "id": "073ef818-3d18-4cf0-a5b7-9321ec838f94",
              "meta": {
                "profile": [
                  "https://gematik.de/fhir/erp/StructureDefinition/GEM_ERP_PR_Digest|1.5"
                ],
                "versionId": "1"
              },
              "contentType": "application/octet-stream",
              "data": "tJg8c5ZtdhzEEhJ0ZpAsUVFx5dKuYgQFs5oKgthi17M="
            }
          }
        ],
        "signature": {
          "type": [
            {
              "system": "urn:iso-astm:E1762-95:2013",
              "code": "1.2.840.10065.1.12.1.1"
            }
          ],
          "when": "2025-01-15T15:29:00.434+00:00",
          "who": {
            "reference": "https://erp.zentral.erp.splitdns.ti-dienste.de/Device/1"
          },
          "sigFormat": "application/pkcs7-mime",
          "data": "RGllcyBpc3QgZWluIEJlaXNwaWVs"
        }
      }
    },
    {
      "fullUrl": "urn:uuid:42a8260d-579f-4cde-a288-4de0bfb6e6d9",
      "resource": {
        "resourceType": "Bundle",
        "id": "42a8260d-579f-4cde-a288-4de0bfb6e6d9",
        "meta": {
          "profile": [
            "https://fhir.kbv.de/StructureDefinition/KBV_PR_ERP_Bundle|1.2"
          ],
          "lastUpdated": "2025-01-15T15:29:00.434+00:00"
        },
        "type": "document",
        "identifier": {
          "system": "https://gematik.de/fhir/erp/NamingSystem/GEM_ERP_NS_PrescriptionId",
          "value": "200.000.000.000.000.01"
        },
        "timestamp": "2025-01-15T15:29:00.434+00:00",
        "entry": [
          {
            "fullUrl": "http://pvs.praxis-topp-gluecklich.local/fhir/Composition/b0e22b86-e7e9-46c1-80fe-e6e24442dPKV",
            "resource": {
              "resourceType": "Composition",
              "id": "b0e22b86-e7e9-46c1-80fe-e6e24442dPKV",
              "meta": {
                "profile": [
                  "https://fhir.kbv.de/StructureDefinition/KBV_PR_ERP_Composition|1.2"
                ]
              },
              "status": "final",
              "title": "elektronische Arzneimittelverordnung",
              "author": [
                {
                  "type": "Practitioner",
                  "reference": "Practitioner/d8463daf-258e-4cad-a86a-6fd42fac1PKV"
                },
                {
                  "identifier": {
                    "system": "https://fhir.kbv.de/NamingSystem/KBV_NS_FOR_Pruefnummer",
                    "value": "Y/400/1910/36/346"
                  },
                  "type": "Device"
                }
              ],
              "type": {
                "coding": [
                  {
                    "system": "https://fhir.kbv.de/CodeSystem/KBV_CS_SFHIR_KBV_FORMULAR_ART",
                    "code": "e16A"
                  }
                ]
              },
              "extension": [
                {
                  "url": "https://fhir.kbv.de/StructureDefinition/KBV_EX_FOR_Legal_basis",
                  "valueCoding": {
                    "code": "00",
                    "system": "https://fhir.kbv.de/CodeSystem/KBV_CS_SFHIR_KBV_STATUSKENNZEICHEN"
                  }
                },
                {
                  "url": "https://fhir.kbv.de/StructureDefinition/KBV_EX_FOR_PKV_Tariff",
                  "valueCoding": {
                    "code": "03",
                    "system": "https://fhir.kbv.de/CodeSystem/KBV_CS_SFHIR_KBV_PKV_TARIFF"
                  }
                }
              ],
              "section": [
                {
                  "code": {
                    "coding": [
                      {
                        "system": "https://fhir.kbv.de/CodeSystem/KBV_CS_ERP_Section_Type",
                        "code": "Prescription"
                      }
                    ]
                  },
                  "entry": [
                    {
                      "reference": "MedicationRequest/f58f4403-7a3a-4a12-bb15-b2fa25b02PKV"
                    }
                  ]
                },
                {
                  "code": {
                    "coding": [
                      {
                        "system": "https://fhir.kbv.de/CodeSystem/KBV_CS_ERP_Section_Type",
                        "code": "Coverage"
                      }
                    ]
                  },
                  "entry": [
                    {
                      "reference": "Coverage/1b1ffb6e-eb05-43d7-87eb-Cov-PKV"
                    }
                  ]
                }
              ],
              "subject": {
                "reference": "Patient/9774f67f-a238-4daf-b4e6-Pat-PKV"
              },
              "date": "2025-01-15T15:29:00+00:00",
              "custodian": {
                "reference": "Organization/cf042e44-086a-4d51-9c77-172f9a972PKV"
              }
            }
          },
          {
            "fullUrl": "http://pvs.praxis-topp-gluecklich.local/fhir/MedicationRequest/f58f4403-7a3a-4a12-bb15-b2fa25b02PKV",
            "resource": {
              "resourceType": "MedicationRequest",
              "id": "f58f4403-7a3a-4a12-bb15-b2fa25b02PKV",
              "meta": {
                "profile": [
                  "https://fhir.kbv.de/StructureDefinition/KBV_PR_ERP_Prescription|1.2"
                ]
              },
              "status": "active",
              "intent": "order",
              "extension": [
                {
                  "url": "https://fhir.kbv.de/StructureDefinition/KBV_EX_ERP_EmergencyServicesFee",
                  "valueBoolean": false
                },
                {
                  "url": "https://fhir.kbv.de/StructureDefinition/KBV_EX_FOR_SER",
                  "valueBoolean": false
                },
                {
                  "url": "https://fhir.kbv.de/StructureDefinition/KBV_EX_ERP_Multiple_Prescription",
                  "extension": [
                    {
                      "url": "Kennzeichen",
                      "valueBoolean": true
                    },
                    {
                      "url": "Nummerierung",
                      "valueRatio": {
                        "numerator": {
                          "value": 2
                        },
                        "denominator": {
                          "value": 4
                        }
                      }
                    },
                    {
                      "url": "Zeitraum",
                      "valuePeriod": {
                        "start": "2023-07-02",
                        "end": "2023-09-30"
                      }
                    },
                    {
                      "valueIdentifier": {
                        "system": "urn:ietf:rfc:3986",
                        "value": "urn:uuid:24e2e10d-e962-4d1c-be4f-8760e690a5f0"
                      },
                      "url": "ID"
                    }
                  ]
                },
                {
                  "url": "https://fhir.kbv.de/StructureDefinition/KBV_EX_FOR_StatusCoPayment",
                  "valueCoding": {
                    "code": "0",
                    "system": "https://fhir.kbv.de/CodeSystem/KBV_CS_FOR_StatusCoPayment"
                  }
                },
                {
                  "extension": [
                    {
                      "url": "Unfallkennzeichen",
                      "valueCoding": {
                        "code": "1",
                        "system": "https://fhir.kbv.de/CodeSystem/KBV_CS_FOR_Ursache_Type"
                      }
                    },
                    {
                      "url": "Unfalltag",
                      "valueDate": "2023-07-01"
                    }
                  ],
                  "url": "https://fhir.kbv.de/StructureDefinition/KBV_EX_FOR_Accident"
                }
              ],
              "dispenseRequest": {
                "quantity": {
                  "unit": "Packung",
                  "value": 2,
                  "code": "{Package}",
                  "system": "http://unitsofmeasure.org"
                }
              },
              "dosageInstruction": [
                {
                  "extension": [
                    {
                      "url": "https://fhir.kbv.de/StructureDefinition/KBV_EX_ERP_DosageFlag",
                      "valueBoolean": false
                    }
                  ]
                }
              ],
              "medicationReference": {
                "reference": "Medication/e3a4efa7-84fc-465b-b14c-720195097PKV"
              },
              "subject": {
                "reference": "Patient/9774f67f-a238-4daf-b4e6-Pat-PKV"
              },
              "authoredOn": "2025-01-15",
              "requester": {
                "reference": "Practitioner/d8463daf-258e-4cad-a86a-6fd42fac1PKV"
              },
              "insurance": [
                {
                  "reference": "Coverage/1b1ffb6e-eb05-43d7-87eb-Cov-PKV"
                }
              ],
              "note": [
                {
                  "text": "Dummy-Hinweis für die Apotheke"
                }
              ]
            }
          },
          {
            "fullUrl": "http://pvs.praxis-topp-gluecklich.local/fhir/Medication/e3a4efa7-84fc-465b-b14c-720195097PKV",
            "resource": {
              "resourceType": "Medication",
              "id": "e3a4efa7-84fc-465b-b14c-720195097PKV",
              "meta": {
                "profile": [
                  "https://fhir.kbv.de/StructureDefinition/KBV_PR_ERP_Medication_Ingredient|1.2"
                ]
              },
              "extension": [
                {
                  "url": "https://fhir.kbv.de/StructureDefinition/KBV_EX_ERP_Medication_Category",
                  "valueCoding": {
                    "code": "00",
                    "system": "https://fhir.kbv.de/CodeSystem/KBV_CS_ERP_Medication_Category"
                  }
                },
                {
                  "url": "https://fhir.kbv.de/StructureDefinition/KBV_EX_ERP_Medication_Vaccine",
                  "valueBoolean": false
                }
              ],
              "code": {
                "coding": [
                  {
                    "system": "https://fhir.kbv.de/CodeSystem/KBV_CS_ERP_Medication_Type",
                    "code": "wirkstoff"
                  }
                ]
              },
              "ingredient": [
                {
                  "strength": {
                    "denominator": {
                      "value": 1
                    },
                    "numerator": {
                      "value": 800,
                      "unit": "mg"
                    }
                  },
                  "itemCodeableConcept": {
                    "coding": [
                      {
                        "code": "Dummy-ASK",
                        "system": "http://fhir.de/CodeSystem/ask"
                      }
                    ],
                    "text": "Ibuprofen"
                  }
                }
              ],
              "amount": {
                "numerator": {
                  "extension": [
                    {
                      "url": "https://fhir.kbv.de/StructureDefinition/KBV_EX_ERP_Medication_PackagingSize",
                      "valueString": "2x20"
                    }
                  ],
                  "unit": "Stk"
                },
                "denominator": {
                  "value": 1
                }
              },
              "form": {
                "text": "Tabletten"
              }
            }
          },
          {
            "fullUrl": "http://pvs.praxis-topp-gluecklich.local/fhir/Patient/9774f67f-a238-4daf-b4e6-Pat-PKV",
            "resource": {
              "resourceType": "Patient",
              "id": "9774f67f-a238-4daf-b4e6-Pat-PKV",
              "meta": {
                "profile": [
                  "https://fhir.kbv.de/StructureDefinition/KBV_PR_FOR_Patient|1.2"
                ]
              },
              "name": [
                {
                  "use": "official",
                  "family": "Ludger Königsstein",
                  "_family": {
                    "extension": [
                      {
                        "url": "http://hl7.org/fhir/StructureDefinition/humanname-own-name",
                        "valueString": "Königsstein"
                      }
                    ]
                  },
                  "given": [
                    "Ludger"
                  ]
                }
              ],
              "identifier": [
                {
                  "type": {
                    "coding": [
                      {
                        "system": "http://fhir.de/CodeSystem/identifier-type-de-basis",
                        "code": "KVZ10"
                      }
                    ]
                  },
                  "system": "http://fhir.de/sid/gkv/kvid-10",
                  "value": "P123464117"
                }
              ],
              "address": [
                {
                  "type": "both",
                  "line": [
                    "Musterstr. 1"
                  ],
                  "_line": [
                    {
                      "extension": [
                        {
                          "url": "http://hl7.org/fhir/StructureDefinition/iso21090-ADXP-houseNumber",
                          "valueString": "1"
                        },
                        {
                          "url": "http://hl7.org/fhir/StructureDefinition/iso21090-ADXP-streetName",
                          "valueString": "Musterstr."
                        }
                      ]
                    }
                  ],
                  "city": "Berlin",
                  "postalCode": "10623"
                }
              ],
              "birthDate": "1935-06-22"
            }
          },
          {
            "fullUrl": "http://pvs.praxis-topp-gluecklich.local/fhir/Practitioner/d8463daf-258e-4cad-a86a-6fd42fac1PKV",
            "resource": {
              "resourceType": "Practitioner",
              "id": "d8463daf-258e-4cad-a86a-6fd42fac1PKV",
              "meta": {
                "profile": [
                  "https://fhir.kbv.de/StructureDefinition/KBV_PR_FOR_Practitioner|1.2"
                ]
              },
              "name": [
                {
                  "use": "official",
                  "family": "Meier",
                  "_family": {
                    "extension": [
                      {
                        "url": "http://hl7.org/fhir/StructureDefinition/humanname-own-name",
                        "valueString": "Meier"
                      }
                    ]
                  },
                  "given": [
                    "Jörgen"
                  ]
                }
              ],
              "qualification": [
                {
                  "code": {
                    "coding": [
                      {
                        "system": "https://fhir.kbv.de/CodeSystem/KBV_CS_FOR_Qualification_Type",
                        "code": "03"
                      }
                    ]
                  }
                },
                {
                  "code": {
                    "coding": [
                      {
                        "system": "https://fhir.kbv.de/CodeSystem/KBV_CS_FOR_Berufsbezeichnung",
                        "code": "Berufsbezeichnung"
                      }
                    ],
                    "text": "FA Onkologie"
                  }
                }
              ],
              "identifier": [
                {
                  "type": {
                    "coding": [
                      {
                        "system": "http://terminology.hl7.org/CodeSystem/v2-0203",
                        "code": "LANR"
                      }
                    ]
                  },
                  "system": "https://fhir.kbv.de/NamingSystem/KBV_NS_Base_ANR",
                  "value": "838382210"
                }
              ]
            }
          },
          {
            "fullUrl": "http://pvs.praxis-topp-gluecklich.local/fhir/Organization/cf042e44-086a-4d51-9c77-172f9a972PKV",
            "resource": {
              "resourceType": "Organization",
              "id": "cf042e44-086a-4d51-9c77-172f9a972PKV",
              "meta": {
                "profile": [
                  "https://fhir.kbv.de/StructureDefinition/KBV_PR_FOR_Organization|1.2"
                ]
              },
              "telecom": [
                {
                  "system": "phone",
                  "value": "0301234567"
                }
              ],
              "address": [
                {
                  "type": "both",
                  "line": [
                    "Musterstr. 2"
                  ],
                  "_line": [
                    {
                      "extension": [
                        {
                          "url": "http://hl7.org/fhir/StructureDefinition/iso21090-ADXP-houseNumber",
                          "valueString": "2"
                        },
                        {
                          "url": "http://hl7.org/fhir/StructureDefinition/iso21090-ADXP-streetName",
                          "valueString": "Musterstr."
                        }
                      ]
                    }
                  ],
                  "city": "Berlin",
                  "postalCode": "10623"
                }
              ],
              "identifier": [
                {
                  "type": {
                    "coding": [
                      {
                        "system": "http://terminology.hl7.org/CodeSystem/v2-0203",
                        "code": "BSNR"
                      }
                    ]
                  },
                  "system": "https://fhir.kbv.de/NamingSystem/KBV_NS_Base_BSNR",
                  "value": "031234567"
                }
              ],
              "name": "Hausarztpraxis Dr. Topp-Glücklich"
            }
          },
          {
            "fullUrl": "http://pvs.praxis-topp-gluecklich.local/fhir/Coverage/1b1ffb6e-eb05-43d7-87eb-Cov-PKV",
            "resource": {
              "resourceType": "Coverage",
              "id": "1b1ffb6e-eb05-43d7-87eb-Cov-PKV",
              "meta": {
                "profile": [
                  "https://fhir.kbv.de/StructureDefinition/KBV_PR_FOR_Coverage|1.2"
                ]
              },
              "status": "active",
              "payor": [
                {
                  "identifier": {
                    "system": "http://fhir.de/sid/arge-ik/iknr",
                    "value": "168140346"
                  },
                  "display": "Allianz Private Krankenversicherungs-AG"
                }
              ],
              "extension": [
                {
                  "url": "http://fhir.de/StructureDefinition/gkv/besondere-personengruppe",
                  "valueCoding": {
                    "code": "00",
                    "system": "https://fhir.kbv.de/CodeSystem/KBV_CS_SFHIR_KBV_PERSONENGRUPPE"
                  }
                },
                {
                  "url": "http://fhir.de/StructureDefinition/gkv/dmp-kennzeichen",
                  "valueCoding": {
                    "code": "00",
                    "system": "https://fhir.kbv.de/CodeSystem/KBV_CS_SFHIR_KBV_DMP"
                  }
                },
                {
                  "url": "http://fhir.de/StructureDefinition/gkv/versichertenart",
                  "valueCoding": {
                    "code": "1",
                    "system": "https://fhir.kbv.de/CodeSystem/KBV_CS_SFHIR_KBV_VERSICHERTENSTATUS"
                  }
                }
              ],
              "type": {
                "coding": [
                  {
                    "code": "PKV",
                    "system": "http://fhir.de/CodeSystem/versicherungsart-de-basis"
                  }
                ]
              },
              "beneficiary": {
                "reference": "Patient/9774f67f-a238-4daf-b4e6-Pat-PKV"
              }
            }
          }
        ],
        "signature": {
          "type": [
            {
              "system": "urn:iso-astm:E1762-95:2013",
              "code": "1.2.840.10065.1.12.1.1"
            }
          ],
          "when": "2025-01-15T15:29:00.434+00:00",
          "who": {
            "reference": "https://erp.zentral.erp.splitdns.ti-dienste.de/Device/1"
          },
          "sigFormat": "application/pkcs7-mime",
          "data": "RGllcyBpc3QgZWluIEJlaXNwaWVs"
        }
      }
    },
    {
      "fullUrl": "urn:uuid:42772ecc-3d67-4351-a719-2d728426a06b",
      "resource": {
        "resourceType": "Bundle",
        "id": "6d240a29-144f-477b-b8e7-92d4b4bcebfd",
        "meta": {
          "profile": [
            "http://fhir.abda.de/eRezeptAbgabedaten/StructureDefinition/DAV-PKV-PR-ERP-AbgabedatenBundle|1.3"
          ]
        },
        "type": "document",
        "identifier": {
          "system": "https://gematik.de/fhir/erp/NamingSystem/GEM_ERP_NS_PrescriptionId",
          "value": "200.000.000.000.000.01"
        },
        "timestamp": "2025-01-15T15:29:00.434+00:00",
        "entry": [
          {
            "fullUrl": "urn:uuid:bf4e0e75-9433-43b2-bcd5-46046479c306",
            "resource": {
              "resourceType": "Composition",
              "id": "bf4e0e75-9433-43b2-bcd5-46046479c306",
              "meta": {
                "profile": [
                  "http://fhir.abda.de/eRezeptAbgabedaten/StructureDefinition/DAV-PKV-PR-ERP-AbgabedatenComposition|1.3"
                ]
              },
              "status": "final",
              "type": {
                "coding": [
                  {
                    "system": "http://fhir.abda.de/eRezeptAbgabedaten/CodeSystem/DAV-CS-ERP-CompositionTypes",
                    "code": "ERezeptAbgabedaten"
                  }
                ]
              },
              "title": "ERezeptAbgabedaten",
              "section": [
                {
                  "title": "Abgabeinformationen",
                  "entry": [
                    {
                      "reference": "urn:uuid:27231a52-71fb-4bbe-9c5a-2e865efd8526"
                    }
                  ]
                },
                {
                  "title": "Apotheke",
                  "entry": [
                    {
                      "reference": "urn:uuid:d0ddcdff-f582-4a23-b86a-58e22402d105"
                    }
                  ]
                }
              ],
              "date": "2025-01-15T15:29:00+00:00",
              "author": [
                {
                  "reference": "urn:uuid:d0ddcdff-f582-4a23-b86a-58e22402d105"
                }
              ]
            }
          },
          {
            "fullUrl": "urn:uuid:d0ddcdff-f582-4a23-b86a-58e22402d105",
            "resource": {
              "resourceType": "Organization",
              "id": "d0ddcdff-f582-4a23-b86a-58e22402d105",
              "meta": {
                "profile": [
                  "http://fhir.abda.de/eRezeptAbgabedaten/StructureDefinition/DAV-PKV-PR-ERP-Apotheke|1.3"
                ]
              },
              "identifier": [
                {
                  "system": "http://fhir.de/sid/arge-ik/iknr",
                  "value": "308412345"
                }
              ],
              "address": [
                {
                  "type": "physical",
                  "line": [
                    "Taunusstraße 89"
                  ],
                  "_line": [
                    {
                      "extension": [
                        {
                          "url": "http://hl7.org/fhir/StructureDefinition/iso21090-ADXP-streetName",
                          "valueString": "Taunusstraße"
                        },
                        {
                          "url": "http://hl7.org/fhir/StructureDefinition/iso21090-ADXP-houseNumber",
                          "valueString": "89"
                        }
                      ]
                    }
                  ],
                  "city": "Langen",
                  "postalCode": "63225",
                  "country": "D"
                }
              ],
              "name": "Adler-Apotheke"
            }
          },
          {
            "fullUrl": "urn:uuid:27231a52-71fb-4bbe-9c5a-2e865efd8526",
            "resource": {
              "resourceType": "MedicationDispense",
              "id": "27231a52-71fb-4bbe-9c5a-2e865efd8526",
              "meta": {
                "profile": [
                  "http://fhir.abda.de/eRezeptAbgabedaten/StructureDefinition/DAV-PKV-PR-ERP-Abgabeinformationen|1.3"
                ]
              },
              "status": "completed",
              "medicationCodeableConcept": {
                "coding": [
                  {
                    "system": "http://terminology.hl7.org/CodeSystem/data-absent-reason",
                    "code": "not-applicable"
                  }
                ]
              },
              "type": {
                "coding": [
                  {
                    "system": "http://fhir.abda.de/eRezeptAbgabedaten/CodeSystem/DAV-CS-ERP-MedicationDispenseTyp",
                    "code": "Abgabeinformationen"
                  }
                ]
              },
              "extension": [
                {
                  "url": "http://fhir.abda.de/eRezeptAbgabedaten/StructureDefinition/DAV-EX-ERP-Abrechnungszeilen",
                  "valueReference": {
                    "reference": "urn:uuid:d2475944-f853-48b9-b101-be9280b81a71"
                  }
                },
                {
                  "url": "http://fhir.abda.de/eRezeptAbgabedaten/StructureDefinition/DAV-PKV-EX-ERP-AbrechnungsTyp",
                  "valueCodeableConcept": {
                    "coding": [
                      {
                        "code": "1",
                        "system": "http://fhir.abda.de/eRezeptAbgabedaten/CodeSystem/DAV-PKV-CS-ERP-AbrechnungsTyp"
                      }
                    ]
                  }
                }
              ],
              "authorizingPrescription": [
                {
                  "identifier": {
                    "system": "https://gematik.de/fhir/erp/NamingSystem/GEM_ERP_NS_PrescriptionId",
                    "value": "200.000.000.000.000.01"
                  }
                }
              ],
              "performer": [
                {
                  "actor": {
                    "reference": "urn:uuid:d0ddcdff-f582-4a23-b86a-58e22402d105"
                  }
                }
              ],
              "whenHandedOver": "2025-01-15"
            }
          },
          {
            "fullUrl": "urn:uuid:d2475944-f853-48b9-b101-be9280b81a71",
            "resource": {
              "resourceType": "Invoice",
              "id": "d2475944-f853-48b9-b101-be9280b81a71",
              "meta": {
                "profile": [
                  "http://fhir.abda.de/eRezeptAbgabedaten/StructureDefinition/DAV-PKV-PR-ERP-Abrechnungszeilen|1.3"
                ]
              },
              "status": "issued",
              "type": {
                "coding": [
                  {
                    "system": "http://fhir.abda.de/eRezeptAbgabedaten/CodeSystem/DAV-CS-ERP-InvoiceTyp",
                    "code": "Abrechnungszeilen"
                  }
                ]
              },
              "totalGross": {
                "currency": "EUR",
                "extension": [
                  {
                    "url": "http://fhir.abda.de/eRezeptAbgabedaten/StructureDefinition/DAV-EX-ERP-Gesamtzuzahlung",
                    "valueMoney": {
                      "currency": "EUR",
                      "value": 0
                    }
                  }
                ],
                "value": 21.04
              },
              "lineItem": [
                {
                  "priceComponent": [
                    {
                      "type": "informational",
                      "extension": [
                        {
                          "url": "http://fhir.abda.de/eRezeptAbgabedaten/StructureDefinition/DAV-EX-ERP-MwStSatz",
                          "valueDecimal": 19
                        },
                        {
                          "url": "http://fhir.abda.de/eRezeptAbgabedaten/StructureDefinition/DAV-EX-ERP-KostenVersicherter",
                          "extension": [
                            {
                              "url": "Kategorie",
                              "valueCodeableConcept": {
                                "coding": [
                                  {
                                    "code": "0",
                                    "system": "http://fhir.abda.de/eRezeptAbgabedaten/CodeSystem/DAV-PKV-CS-ERP-KostenVersicherterKategorie"
                                  }
                                ]
                              }
                            },
                            {
                              "url": "Kostenbetrag",
                              "valueMoney": {
                                "currency": "EUR",
                                "value": 0
                              }
                            }
                          ]
                        }
                      ],
                      "amount": {
                        "currency": "EUR",
                        "value": 21.04
                      },
                      "factor": 1
                    }
                  ],
                  "sequence": 1,
                  "chargeItemCodeableConcept": {
                    "coding": [
                      {
                        "code": "03879429",
                        "system": "http://fhir.de/CodeSystem/ifa/pzn"
                      }
                    ],
                    "text": "BELOC-ZOK mite 47,5 mg Retardtabletten 30 St"
                  }
                }
              ]
            }
          }
        ],
        "signature": {
          "type": [
            {
              "system": "urn:iso-astm:E1762-95:2013",
              "code": "1.2.840.10065.1.12.1.1"
            }
          ],
          "when": "2025-01-15T15:29:00.434+00:00",
          "who": {
            "reference": "https://erp.zentral.erp.splitdns.ti-dienste.de/Device/1"
          },
          "sigFormat": "application/pkcs7-mime",
          "data": "RGllcyBpc3QgZWluIEJlaXNwaWVs"
        }
      }
    }
  ]
}
