<Bundle xmlns="http://hl7.org/fhir"><id value="227044a9-f982-4dee-81ab-173288e3bdfc"/><meta><lastUpdated value="2024-02-08T19:14:55.065+01:00"/><profile value="http://fhir.abda.de/eRezeptAbgabedaten/StructureDefinition/DAV-PKV-PR-ERP-AbgabedatenBundle|1.4"/></meta><identifier><system value="https://gematik.de/fhir/erp/NamingSystem/GEM_ERP_NS_PrescriptionId"/><value value="200.000.002.096.529.61"/></identifier><type value="document"/><timestamp value="2024-02-08T19:14:55.065+01:00"/><entry><fullUrl value="urn:uuid:d5e2a330-3a59-47ea-9a8f-e035c6e51c01"/><resource><Composition xmlns="http://hl7.org/fhir"><id value="d5e2a330-3a59-47ea-9a8f-e035c6e51c01"/><meta><profile value="http://fhir.abda.de/eRezeptAbgabedaten/StructureDefinition/DAV-PKV-PR-ERP-AbgabedatenComposition|1.4"/></meta><status value="final"/><type><coding><system value="http://fhir.abda.de/eRezeptAbgabedaten/CodeSystem/DAV-CS-ERP-CompositionTypes"/><code value="ERezeptAbgabedaten"/></coding></type><date value="2024-02-08T19:14:55+01:00"/><author><reference value="urn:uuid:14f6e388-3f16-422b-a666-8995d5e5f7e8"/></author><title value="ERezeptAbgabedaten"/><section><title value="Apotheke"/><entry><reference value="urn:uuid:14f6e388-3f16-422b-a666-8995d5e5f7e8"/></entry></section><section><title value="Abgabeinformationen"/><entry><reference value="urn:uuid:85bb2e8b-705f-4975-bf5c-78b13995d848"/></entry></section></Composition></resource></entry><entry><fullUrl value="urn:uuid:14f6e388-3f16-422b-a666-8995d5e5f7e8"/><resource><Organization xmlns="http://hl7.org/fhir"><id value="14f6e388-3f16-422b-a666-8995d5e5f7e8"/><meta><profile value="http://fhir.abda.de/eRezeptAbgabedaten/StructureDefinition/DAV-PKV-PR-ERP-Apotheke|1.4"/></meta><identifier><system value="http://fhir.de/sid/arge-ik/iknr"/><value value="727702208"/></identifier><name value="Apotheke Easton West"/><address><type value="physical"/><line value="Weißenseestr. 15"><extension url="http://hl7.org/fhir/StructureDefinition/iso21090-ADXP-houseNumber"><valueString value="15"/></extension><extension url="http://hl7.org/fhir/StructureDefinition/iso21090-ADXP-streetName"><valueString value="Weißenseestr."/></extension></line><city value="Hamzaburg"/><postalCode value="81717"/><country value="D"/></address></Organization></resource></entry><entry><fullUrl value="urn:uuid:a412cf53-fbb6-44ed-a268-9c945e934662"/><resource><Invoice xmlns="http://hl7.org/fhir"><id value="a412cf53-fbb6-44ed-a268-9c945e934662"/><meta><profile value="http://fhir.abda.de/eRezeptAbgabedaten/StructureDefinition/DAV-PKV-PR-ERP-Abrechnungszeilen|1.4"/></meta><status value="issued"/><type><coding><system value="http://fhir.abda.de/eRezeptAbgabedaten/CodeSystem/DAV-CS-ERP-InvoiceTyp"/><code value="Abrechnungszeilen"/></coding></type><lineItem><sequence value="1"/><chargeItemCodeableConcept><coding><system value="http://fhir.de/CodeSystem/ifa/pzn"/><code value="66680315"/></coding><text value="Hepterab"/></chargeItemCodeableConcept><priceComponent><extension url="http://fhir.abda.de/eRezeptAbgabedaten/StructureDefinition/DAV-EX-ERP-KostenVersicherter"><extension url="Kategorie"><valueCodeableConcept><coding><system value="http://fhir.abda.de/eRezeptAbgabedaten/CodeSystem/DAV-PKV-CS-ERP-KostenVersicherterKategorie"/><code value="0"/></coding></valueCodeableConcept></extension><extension url="Kostenbetrag"><valueMoney><value value="5.40"/><currency value="EUR"/></valueMoney></extension></extension><extension url="http://fhir.abda.de/eRezeptAbgabedaten/StructureDefinition/DAV-EX-ERP-MwStSatz"><valueDecimal value="11.80"/></extension><type value="informational"/><factor value="1"/><amount><value value="6.07"/><currency value="EUR"/></amount></priceComponent></lineItem><lineItem><sequence value="2"/><chargeItemCodeableConcept><coding><system value="http://fhir.de/CodeSystem/ifa/pzn"/><code value="05814150"/></coding><text value="Busimorat"/></chargeItemCodeableConcept><priceComponent><extension url="http://fhir.abda.de/eRezeptAbgabedaten/StructureDefinition/DAV-EX-ERP-KostenVersicherter"><extension url="Kategorie"><valueCodeableConcept><coding><system value="http://fhir.abda.de/eRezeptAbgabedaten/CodeSystem/DAV-PKV-CS-ERP-KostenVersicherterKategorie"/><code value="0"/></coding></valueCodeableConcept></extension><extension url="Kostenbetrag"><valueMoney><value value="10.92"/><currency value="EUR"/></valueMoney></extension></extension><extension url="http://fhir.abda.de/eRezeptAbgabedaten/StructureDefinition/DAV-EX-ERP-MwStSatz"><valueDecimal value="11.80"/></extension><type value="informational"/><factor value="1"/><amount><value value="11.84"/><currency value="EUR"/></amount></priceComponent></lineItem><totalGross><extension url="http://fhir.abda.de/eRezeptAbgabedaten/StructureDefinition/DAV-EX-ERP-Gesamtzuzahlung"><valueMoney><value value="16.32"/><currency value="EUR"/></valueMoney></extension><value value="17.91"/><currency value="EUR"/></totalGross></Invoice></resource></entry><entry><fullUrl value="urn:uuid:85bb2e8b-705f-4975-bf5c-78b13995d848"/><resource><MedicationDispense xmlns="http://hl7.org/fhir"><id value="85bb2e8b-705f-4975-bf5c-78b13995d848"/><meta><profile value="http://fhir.abda.de/eRezeptAbgabedaten/StructureDefinition/DAV-PKV-PR-ERP-Abgabeinformationen|1.4"/></meta><extension url="http://fhir.abda.de/eRezeptAbgabedaten/StructureDefinition/DAV-PKV-EX-ERP-AbrechnungsTyp"><valueCodeableConcept><coding><system value="http://fhir.abda.de/eRezeptAbgabedaten/CodeSystem/DAV-PKV-CS-ERP-AbrechnungsTyp"/><code value="1"/></coding></valueCodeableConcept></extension><extension url="http://fhir.abda.de/eRezeptAbgabedaten/StructureDefinition/DAV-EX-ERP-Abrechnungszeilen"><valueReference><reference value="urn:uuid:a412cf53-fbb6-44ed-a268-9c945e934662"/></valueReference></extension><status value="completed"/><medicationCodeableConcept><coding><system value="http://terminology.hl7.org/CodeSystem/data-absent-reason"/><code value="not-applicable"/></coding></medicationCodeableConcept><performer><actor><reference value="urn:uuid:14f6e388-3f16-422b-a666-8995d5e5f7e8"/></actor></performer><authorizingPrescription><identifier><system value="https://gematik.de/fhir/erp/NamingSystem/GEM_ERP_NS_PrescriptionId"/><value value="200.000.002.096.529.61"/></identifier></authorizingPrescription><type><coding><system value="http://fhir.abda.de/eRezeptAbgabedaten/CodeSystem/DAV-CS-ERP-MedicationDispenseTyp"/><code value="Abgabeinformationen"/></coding></type><whenHandedOver value="2024-02-08"/></MedicationDispense></resource></entry></Bundle>