<Bundle xmlns="http://hl7.org/fhir">
	<id value="0ea014e2-4132-453c-b3d3-0f2c56af543f" />
	<meta>
		<lastUpdated value="2025-03-28T09:07:12.991+01:00" />
		<profile value="http://fhir.abda.de/eRezeptAbgabedaten/StructureDefinition/DAV-PKV-PR-ERP-AbgabedatenBundle|1.3" />
	</meta>
	<identifier>
		<system value="https://gematik.de/fhir/erp/NamingSystem/GEM_ERP_NS_PrescriptionId" />
		<value value="200.000.002.425.313.05" />
	</identifier>
	<type value="document" />
	<timestamp value="2025-03-28T09:07:12.991+01:00" />
	<entry>
		<fullUrl value="urn:uuid:a3b3b76b-5023-49aa-8b4e-188203e47b47" />
		<resource>
			<Composition xmlns="http://hl7.org/fhir">
				<id value="a3b3b76b-5023-49aa-8b4e-188203e47b47" />
				<meta>
					<profile value="http://fhir.abda.de/eRezeptAbgabedaten/StructureDefinition/DAV-PKV-PR-ERP-AbgabedatenComposition|1.3" />
				</meta>
				<status value="final" />
				<type>
					<coding>
						<system value="http://fhir.abda.de/eRezeptAbgabedaten/CodeSystem/DAV-CS-ERP-CompositionTypes" />
						<code value="ERezeptAbgabedaten" />
					</coding>
				</type>
				<date value="2025-03-28T09:07:12+01:00" />
				<author>
					<reference value="urn:uuid:c876790e-75a1-43b0-8277-ef1639fcdfaa" />
				</author>
				<title value="ERezeptAbgabedaten" />
				<section>
					<title value="Apotheke" />
					<entry>
						<reference value="urn:uuid:c876790e-75a1-43b0-8277-ef1639fcdfaa" />
					</entry>
				</section>
				<section>
					<title value="Abgabeinformationen" />
					<entry>
						<reference value="urn:uuid:af437318-229c-463b-8dc0-7f5592352eb9" />
					</entry>
				</section>
			</Composition>
		</resource>
	</entry>
	<entry>
		<fullUrl value="urn:uuid:c876790e-75a1-43b0-8277-ef1639fcdfaa" />
		<resource>
			<Organization xmlns="http://hl7.org/fhir">
				<id value="c876790e-75a1-43b0-8277-ef1639fcdfaa" />
				<meta>
					<profile value="http://fhir.abda.de/eRezeptAbgabedaten/StructureDefinition/DAV-PKV-PR-ERP-Apotheke|1.3" />
				</meta>
				<identifier>
					<system value="http://fhir.de/sid/arge-ik/iknr" />
					<value value="220042395" />
				</identifier>
				<name value="Apotheke Winnie Bago" />
				<address>
					<type value="physical" />
					<line value="Helmestr. 048">
						<extension url="http://hl7.org/fhir/StructureDefinition/iso21090-ADXP-houseNumber">
							<valueString value="048" />
						</extension>
						<extension url="http://hl7.org/fhir/StructureDefinition/iso21090-ADXP-streetName">
							<valueString value="Helmestr." />
						</extension>
					</line>
					<city value="Leeheim" />
					<postalCode value="03556" />
					<country value="CDN" />
				</address>
			</Organization>
		</resource>
	</entry>
	<entry>
		<fullUrl value="urn:uuid:2d71d053-e9da-43ac-a80c-ced712754fc4" />
		<resource>
			<Invoice xmlns="http://hl7.org/fhir">
				<id value="2d71d053-e9da-43ac-a80c-ced712754fc4" />
				<meta>
					<profile value="http://fhir.abda.de/eRezeptAbgabedaten/StructureDefinition/DAV-PKV-PR-ERP-Abrechnungszeilen|1.3" />
				</meta>
				<status value="issued" />
				<type>
					<coding>
						<system value="http://fhir.abda.de/eRezeptAbgabedaten/CodeSystem/DAV-CS-ERP-InvoiceTyp" />
						<code value="Abrechnungszeilen" />
					</coding>
				</type>
				<lineItem>
					<sequence value="1" />
					<chargeItemCodeableConcept>
						<coding>
							<system value="http://fhir.de/CodeSystem/ifa/pzn" />
							<code value="67155255" />
						</coding>
						<text value="Infludoron® Set 550 mg" />
					</chargeItemCodeableConcept>
					<priceComponent>
						<extension url="http://fhir.abda.de/eRezeptAbgabedaten/StructureDefinition/DAV-EX-ERP-KostenVersicherter">
							<extension url="Kategorie">
								<valueCodeableConcept>
									<coding>
										<system value="http://fhir.abda.de/eRezeptAbgabedaten/CodeSystem/DAV-PKV-CS-ERP-KostenVersicherterKategorie" />
										<code value="0" />
									</coding>
								</valueCodeableConcept>
							</extension>
							<extension url="Kostenbetrag">
								<valueMoney>
									<value value="18.17" />
									<currency value="EUR" />
								</valueMoney>
							</extension>
						</extension>
						<extension url="http://fhir.abda.de/eRezeptAbgabedaten/StructureDefinition/DAV-EX-ERP-MwStSatz">
							<valueDecimal value="22.41" />
						</extension>
						<type value="informational" />
						<factor value="1" />
						<amount>
							<value value="73.60" />
							<currency value="EUR" />
						</amount>
					</priceComponent>
				</lineItem>
				<lineItem>
					<sequence value="2" />
					<chargeItemCodeableConcept>
						<coding>
							<system value="http://fhir.de/CodeSystem/ifa/pzn" />
							<code value="23915647" />
						</coding>
						<text value="vivinox® SLEEP Kapseln 600 mg" />
					</chargeItemCodeableConcept>
					<priceComponent>
						<extension url="http://fhir.abda.de/eRezeptAbgabedaten/StructureDefinition/DAV-EX-ERP-KostenVersicherter">
							<extension url="Kategorie">
								<valueCodeableConcept>
									<coding>
										<system value="http://fhir.abda.de/eRezeptAbgabedaten/CodeSystem/DAV-PKV-CS-ERP-KostenVersicherterKategorie" />
										<code value="0" />
									</coding>
								</valueCodeableConcept>
							</extension>
							<extension url="Kostenbetrag">
								<valueMoney>
									<value value="10.26" />
									<currency value="EUR" />
								</valueMoney>
							</extension>
						</extension>
						<extension url="http://fhir.abda.de/eRezeptAbgabedaten/StructureDefinition/DAV-EX-ERP-MwStSatz">
							<valueDecimal value="22.41" />
						</extension>
						<type value="informational" />
						<factor value="1" />
						<amount>
							<value value="17.01" />
							<currency value="EUR" />
						</amount>
					</priceComponent>
				</lineItem>
				<lineItem>
					<sequence value="3" />
					<chargeItemCodeableConcept>
						<coding>
							<system value="http://fhir.de/CodeSystem/ifa/pzn" />
							<code value="76854897" />
						</coding>
						<text value="Symbioflor® 1 Beutel 100 mg" />
					</chargeItemCodeableConcept>
					<priceComponent>
						<extension url="http://fhir.abda.de/eRezeptAbgabedaten/StructureDefinition/DAV-EX-ERP-KostenVersicherter">
							<extension url="Kategorie">
								<valueCodeableConcept>
									<coding>
										<system value="http://fhir.abda.de/eRezeptAbgabedaten/CodeSystem/DAV-PKV-CS-ERP-KostenVersicherterKategorie" />
										<code value="0" />
									</coding>
								</valueCodeableConcept>
							</extension>
							<extension url="Kostenbetrag">
								<valueMoney>
									<value value="43.53" />
									<currency value="EUR" />
								</valueMoney>
							</extension>
						</extension>
						<extension url="http://fhir.abda.de/eRezeptAbgabedaten/StructureDefinition/DAV-EX-ERP-MwStSatz">
							<valueDecimal value="22.41" />
						</extension>
						<type value="informational" />
						<factor value="1" />
						<amount>
							<value value="61.56" />
							<currency value="EUR" />
						</amount>
					</priceComponent>
				</lineItem>
				<totalGross>
					<extension url="http://fhir.abda.de/eRezeptAbgabedaten/StructureDefinition/DAV-EX-ERP-Gesamtzuzahlung">
						<valueMoney>
							<value value="71.96" />
							<currency value="EUR" />
						</valueMoney>
					</extension>
					<value value="152.17" />
					<currency value="EUR" />
				</totalGross>
			</Invoice>
		</resource>
	</entry>
	<entry>
		<fullUrl value="urn:uuid:af437318-229c-463b-8dc0-7f5592352eb9" />
		<resource>
			<MedicationDispense xmlns="http://hl7.org/fhir">
				<id value="af437318-229c-463b-8dc0-7f5592352eb9" />
				<meta>
					<profile value="http://fhir.abda.de/eRezeptAbgabedaten/StructureDefinition/DAV-PKV-PR-ERP-Abgabeinformationen|1.3" />
				</meta>
				<extension url="http://fhir.abda.de/eRezeptAbgabedaten/StructureDefinition/DAV-PKV-EX-ERP-AbrechnungsTyp">
					<valueCodeableConcept>
						<coding>
							<system value="http://fhir.abda.de/eRezeptAbgabedaten/CodeSystem/DAV-PKV-CS-ERP-AbrechnungsTyp" />
							<code value="1" />
						</coding>
					</valueCodeableConcept>
				</extension>
				<extension url="http://fhir.abda.de/eRezeptAbgabedaten/StructureDefinition/DAV-EX-ERP-Abrechnungszeilen">
					<valueReference>
						<reference value="urn:uuid:2d71d053-e9da-43ac-a80c-ced712754fc4" />
					</valueReference>
				</extension>
				<status value="completed" />
				<medicationCodeableConcept>
					<coding>
						<system value="http://terminology.hl7.org/CodeSystem/data-absent-reason" />
						<code value="not-applicable" />
					</coding>
				</medicationCodeableConcept>
				<performer>
					<actor>
						<reference value="urn:uuid:c876790e-75a1-43b0-8277-ef1639fcdfaa" />
					</actor>
				</performer>
				<authorizingPrescription>
					<identifier>
						<system value="https://gematik.de/fhir/erp/NamingSystem/GEM_ERP_NS_PrescriptionId" />
						<value value="200.000.002.425.313.05" />
					</identifier>
				</authorizingPrescription>
				<type>
					<coding>
						<system value="http://fhir.abda.de/eRezeptAbgabedaten/CodeSystem/DAV-CS-ERP-MedicationDispenseTyp" />
						<code value="Abgabeinformationen" />
					</coding>
				</type>
				<whenHandedOver value="2025-03-28" />
			</MedicationDispense>
		</resource>
	</entry>
</Bundle>
