<Bundle xmlns="http://hl7.org/fhir"><id value="25c495fe-146a-4137-9513-196d01c48878"/><meta><lastUpdated value="2023-04-18T08:41:55.086+02:00"/><profile value="https://fhir.kbv.de/StructureDefinition/KBV_PR_ERP_Bundle|1.1.0"/></meta><identifier><system value="https://gematik.de/fhir/erp/NamingSystem/GEM_ERP_NS_PrescriptionId"/><value value="200.000.001.943.759.46"/></identifier><type value="document"/><timestamp value="2023-04-18T08:41:55.086+02:00"/><entry><fullUrl value="https://pvs.gematik.de/fhir/Composition/a9e7db93-25a3-4f41-b87a-cb5653c684b2"/><resource><Composition xmlns="http://hl7.org/fhir"><id value="a9e7db93-25a3-4f41-b87a-cb5653c684b2"/><meta><profile value="https://fhir.kbv.de/StructureDefinition/KBV_PR_ERP_Composition|1.1.0"/></meta><extension url="https://fhir.kbv.de/StructureDefinition/KBV_EX_FOR_Legal_basis"><valueCoding><system value="https://fhir.kbv.de/CodeSystem/KBV_CS_SFHIR_KBV_STATUSKENNZEICHEN"/><code value="00"/></valueCoding></extension><status value="final"/><type><coding><system value="https://fhir.kbv.de/CodeSystem/KBV_CS_SFHIR_KBV_FORMULAR_ART"/><code value="e16A"/></coding></type><subject><reference value="Patient/00a811bb-867f-4311-996f-e0e366df9d7e"/></subject><date value="2023-04-18T08:41:55+02:00"/><author><reference value="Practitioner/32e5b308-00ff-402b-8b36-ecf6303c0eba"/><type value="Practitioner"/></author><author><type value="Device"/><identifier><system value="https://fhir.kbv.de/NamingSystem/KBV_NS_FOR_Pruefnummer"/><value value="GEMATIK/410/2109/36/123"/></identifier></author><title value="elektronische Arzneimittelverordnung"/><custodian><reference value="Organization/d99cc787-f548-4192-9148-a82dea66b879"/></custodian><section><code><coding><system value="https://fhir.kbv.de/CodeSystem/KBV_CS_ERP_Section_Type"/><code value="Coverage"/></coding></code><entry><reference value="Coverage/043a0928-136f-4820-8f03-507e2af6987d"/></entry></section><section><code><coding><system value="https://fhir.kbv.de/CodeSystem/KBV_CS_ERP_Section_Type"/><code value="Prescription"/></coding></code><entry><reference value="MedicationRequest/b1fecaa4-f06a-4fbc-9b15-85fba12ed243"/></entry></section></Composition></resource></entry><entry><fullUrl value="https://pvs.gematik.de/fhir/MedicationRequest/b1fecaa4-f06a-4fbc-9b15-85fba12ed243"/><resource><MedicationRequest xmlns="http://hl7.org/fhir"><id value="b1fecaa4-f06a-4fbc-9b15-85fba12ed243"/><meta><profile value="https://fhir.kbv.de/StructureDefinition/KBV_PR_ERP_Prescription|1.1.0"/></meta><extension url="https://fhir.kbv.de/StructureDefinition/KBV_EX_ERP_BVG"><valueBoolean value="false"/></extension><extension url="https://fhir.kbv.de/StructureDefinition/KBV_EX_ERP_EmergencyServicesFee"><valueBoolean value="false"/></extension><extension url="https://fhir.kbv.de/StructureDefinition/KBV_EX_ERP_Multiple_Prescription"><extension url="Kennzeichen"><valueBoolean value="false"/></extension></extension><extension url="https://fhir.kbv.de/StructureDefinition/KBV_EX_FOR_StatusCoPayment"><valueCoding><system value="https://fhir.kbv.de/CodeSystem/KBV_CS_FOR_StatusCoPayment"/><code value="0"/></valueCoding></extension><status value="active"/><intent value="order"/><medicationReference><reference value="Medication/ce678804-aaff-4651-b661-d8328b2c403a"/></medicationReference><subject><reference value="Patient/00a811bb-867f-4311-996f-e0e366df9d7e"/></subject><authoredOn value="2023-04-18"/><requester><reference value="Practitioner/32e5b308-00ff-402b-8b36-ecf6303c0eba"/></requester><insurance><reference value="Coverage/043a0928-136f-4820-8f03-507e2af6987d"/></insurance><dosageInstruction><extension url="https://fhir.kbv.de/StructureDefinition/KBV_EX_ERP_DosageFlag"><valueBoolean value="true"/></extension><text value="1-0-0-0"/></dosageInstruction><dispenseRequest><quantity><value value="1"/><system value="http://unitsofmeasure.org"/><code value="{Package}"/></quantity></dispenseRequest><substitution><allowedBoolean value="true"/></substitution></MedicationRequest></resource></entry><entry><fullUrl value="https://pvs.gematik.de/fhir/Medication/ce678804-aaff-4651-b661-d8328b2c403a"/><resource><Medication xmlns="http://hl7.org/fhir"><id value="ce678804-aaff-4651-b661-d8328b2c403a"/><meta><profile value="https://fhir.kbv.de/StructureDefinition/KBV_PR_ERP_Medication_PZN|1.1.0"/></meta><extension url="https://fhir.kbv.de/StructureDefinition/KBV_EX_Base_Medication_Type"><valueCodeableConcept><coding><system value="http://snomed.info/sct"/><version value="http://snomed.info/sct/900000000000207008/version/20220331"/><code value="763158003"/><display value="Medicinal product (product)"/></coding></valueCodeableConcept></extension><extension url="https://fhir.kbv.de/StructureDefinition/KBV_EX_ERP_Medication_Category"><valueCoding><system value="https://fhir.kbv.de/CodeSystem/KBV_CS_ERP_Medication_Category"/><code value="00"/></valueCoding></extension><extension url="https://fhir.kbv.de/StructureDefinition/KBV_EX_ERP_Medication_Vaccine"><valueBoolean value="false"/></extension><extension url="http://fhir.de/StructureDefinition/normgroesse"><valueCode value="NB"/></extension><code><coding><system value="http://fhir.de/CodeSystem/ifa/pzn"/><code value="13056162"/></coding><text value="Schmerzmittel"/></code><form><coding><system value="https://fhir.kbv.de/CodeSystem/KBV_CS_SFHIR_KBV_DARREICHUNGSFORM"/><code value="TAB"/></coding></form><amount><numerator><extension url="https://fhir.kbv.de/StructureDefinition/KBV_EX_ERP_Medication_PackagingSize"><valueString value="1"/></extension><unit value="Stk"/></numerator><denominator><value value="1"/></denominator></amount></Medication></resource></entry><entry><fullUrl value="https://pvs.gematik.de/fhir/Patient/00a811bb-867f-4311-996f-e0e366df9d7e"/><resource><Patient xmlns="http://hl7.org/fhir"><id value="00a811bb-867f-4311-996f-e0e366df9d7e"/><meta><profile value="https://fhir.kbv.de/StructureDefinition/KBV_PR_FOR_Patient|1.1.0"/></meta><identifier><type><coding><system value="http://fhir.de/CodeSystem/identifier-type-de-basis"/><code value="PKV"/></coding></type><system value="http://fhir.de/sid/pkv/kvid-10"/><value value="X110465770"/></identifier><name><use value="official"/><family value="Angermänn"><extension url="http://hl7.org/fhir/StructureDefinition/humanname-own-name"><valueString value="Angermänn"/></extension></family><given value="Günther"/></name><birthDate value="1971-01-12"/><address><type value="both"/><line value="Leinestr. 19"><extension url="http://hl7.org/fhir/StructureDefinition/iso21090-ADXP-houseNumber"><valueString value="19"/></extension><extension url="http://hl7.org/fhir/StructureDefinition/iso21090-ADXP-streetName"><valueString value="Leinestr."/></extension></line><city value="Süd Janekburg"/><postalCode value="36906"/><country value="D"/></address></Patient></resource></entry><entry><fullUrl value="https://pvs.gematik.de/fhir/Organization/d99cc787-f548-4192-9148-a82dea66b879"/><resource><Organization xmlns="http://hl7.org/fhir"><id value="d99cc787-f548-4192-9148-a82dea66b879"/><meta><profile value="https://fhir.kbv.de/StructureDefinition/KBV_PR_FOR_Organization|1.1.0"/></meta><identifier><type><coding><system value="http://terminology.hl7.org/CodeSystem/v2-0203"/><code value="BSNR"/></coding></type><system value="https://fhir.kbv.de/NamingSystem/KBV_NS_Base_BSNR"/><value value="523779661"/></identifier><name value="Arztpraxis Schraßer"/><telecom><system value="phone"/><value value="+49-8321-52457332"/></telecom><telecom><system value="email"/><value value="mirja.einert@knippel.com"/></telecom><address><type value="both"/><line value="Max-Liebermann-Str. 02a"><extension url="http://hl7.org/fhir/StructureDefinition/iso21090-ADXP-houseNumber"><valueString value="02a"/></extension><extension url="http://hl7.org/fhir/StructureDefinition/iso21090-ADXP-streetName"><valueString value="Max-Liebermann-Str."/></extension></line><city value="Ost Leylabrunn"/><postalCode value="17497"/><country value="D"/></address></Organization></resource></entry><entry><fullUrl value="https://pvs.gematik.de/fhir/Coverage/043a0928-136f-4820-8f03-507e2af6987d"/><resource><Coverage xmlns="http://hl7.org/fhir"><id value="043a0928-136f-4820-8f03-507e2af6987d"/><meta><profile value="https://fhir.kbv.de/StructureDefinition/KBV_PR_FOR_Coverage|1.1.0"/></meta><extension url="http://fhir.de/StructureDefinition/gkv/besondere-personengruppe"><valueCoding><system value="https://fhir.kbv.de/CodeSystem/KBV_CS_SFHIR_KBV_PERSONENGRUPPE"/><code value="00"/></valueCoding></extension><extension url="http://fhir.de/StructureDefinition/gkv/dmp-kennzeichen"><valueCoding><system value="https://fhir.kbv.de/CodeSystem/KBV_CS_SFHIR_KBV_DMP"/><code value="00"/></valueCoding></extension><extension url="http://fhir.de/StructureDefinition/gkv/wop"><valueCoding><system value="https://fhir.kbv.de/CodeSystem/KBV_CS_SFHIR_ITA_WOP"/><code value="83"/></valueCoding></extension><extension url="http://fhir.de/StructureDefinition/gkv/versichertenart"><valueCoding><system value="https://fhir.kbv.de/CodeSystem/KBV_CS_SFHIR_KBV_VERSICHERTENSTATUS"/><code value="1"/></valueCoding></extension><status value="active"/><type><coding><system value="http://fhir.de/CodeSystem/versicherungsart-de-basis"/><code value="PKV"/></coding></type><beneficiary><reference value="Patient/4860946e-7e8d-48df-8d14-b58c7b36c5ba"/></beneficiary><payor><identifier><system value="http://fhir.de/sid/arge-ik/iknr"/><value value="224488633"/></identifier><display value="Künstler-Krankenkasse Nordrhein"/></payor></Coverage></resource></entry><entry><fullUrl value="https://pvs.gematik.de/fhir/Practitioner/32e5b308-00ff-402b-8b36-ecf6303c0eba"/><resource><Practitioner xmlns="http://hl7.org/fhir"><id value="32e5b308-00ff-402b-8b36-ecf6303c0eba"/><meta><profile value="https://fhir.kbv.de/StructureDefinition/KBV_PR_FOR_Practitioner|1.1.0"/></meta><identifier><type><coding><system value="http://terminology.hl7.org/CodeSystem/v2-0203"/><code value="LANR"/></coding></type><system value="https://fhir.kbv.de/NamingSystem/KBV_NS_Base_ANR"/><value value="777064152"/></identifier><name><use value="official"/><family value="Schraßer"><extension url="http://hl7.org/fhir/StructureDefinition/humanname-own-name"><valueString value="Schraßer"/></extension></family><given value="Dr."/><prefix value="Dr."><extension url="http://hl7.org/fhir/StructureDefinition/iso21090-EN-qualifier"><valueCode value="AC"/></extension></prefix></name><qualification><code><coding><system value="https://fhir.kbv.de/CodeSystem/KBV_CS_FOR_Qualification_Type"/><code value="00"/></coding></code></qualification><qualification><code><coding><system value="https://fhir.kbv.de/CodeSystem/KBV_CS_FOR_Berufsbezeichnung"/><code value="Berufsbezeichnung"/></coding><text value="Super-Facharzt für alles Mögliche"/></code></qualification></Practitioner></resource></entry></Bundle>