{
  "resourceType": "Parameters",
  "id": "9c9752b9-3b8f-4058-a9f4-0dbe93a9e44b",
  "meta": {
    "profile": [ "https://gematik.de/fhir/epa-medication/StructureDefinition/epa-op-provide-dispensation-erp-input-parameters|1.0.3" ]
  },
  "parameter": [ {
    "name": "rxDispensation",
    "part": [ {
      "name": "prescriptionId",
      "valueIdentifier": {
        "system": "https://gematik.de/fhir/erp/NamingSystem/GEM_ERP_NS_PrescriptionId",
        "value": "160.000.226.436.549.34"
      }
    }, {
      "name": "authoredOn",
      "valueDate": "1970-01-01"
    }, {
      "name": "medicationDispense",
      "resource": {
        "resourceType": "MedicationDispense",
        "id": "5874ff8d-27ad-445d-bdf2-2df5c2b08c0f",
        "meta": {
          "profile": [ "https://gematik.de/fhir/epa-medication/StructureDefinition/epa-medication-dispense|1.0.3" ]
        },
        "identifier": [ {
          "system": "https://gematik.de/fhir/epa-medication/sid/rx-originator-process-identifier",
          "value": "null_160.000.226.436.549.34"
        } ],
        "status": "completed",
        "category": {
          "coding": [ {
            "system": "https://gematik.de/fhir/epa-medication/CodeSystem/EPAMedicationDispenseCategoryCS",
            "code": "prescription",
            "display": "prescription dispense"
          } ]
        },
        "medicationReference": {
          "reference": "Medication/4f9e1976-98ef-4b48-befd-b16b96e75532"
        },
        "subject": {
          "identifier": {
            "system": "http://fhir.de/sid/gkv/kvid-10",
            "value": "Z828875733"
          }
        },
        "performer": [ {
          "actor": {
            "reference": "Organization/3ed7bdc8-0e5b-40cf-b955-a1e995003304"
          }
        } ],
        "whenHandedOver": "2024-07-02T11:01:36+02:00",
        "dosageInstruction": [ {
          "text": "1–3mal/Tag auf die erkrankten Hautstellen auftragen"
        } ]
      }
    }, {
      "name": "medication",
      "resource": {
        "resourceType": "Medication",
        "id": "4f9e1976-98ef-4b48-befd-b16b96e75532",
        "meta": {
          "profile": [ "https://gematik.de/fhir/epa-medication/StructureDefinition/epa-medication|1.0.3" ]
        },
        "extension": [ {
          "url": "https://gematik.de/fhir/epa-medication/StructureDefinition/drug-category-extension",
          "valueCoding": {
            "system": "https://gematik.de/fhir/epa-medication/CodeSystem/epa-drug-category-cs",
            "code": "00"
          }
        }, {
          "url": "https://gematik.de/fhir/epa-medication/StructureDefinition/medication-id-vaccine-extension",
          "valueBoolean": false
        } ],
        "form": {
          "text": "Lösung"
        },
        "amount": {
          "numerator": {
            "extension": [ {
              "url": "https://gematik.de/fhir/epa-medication/StructureDefinition/medication-formulation-packaging-extension",
              "valueString": "100"
            } ],
            "unit": "ml"
          },
          "denominator": {
            "value": 1
          }
        },
        "ingredient": [ {
          "itemCodeableConcept": {
            "text": "Salicylsäure"
          },
          "strength": {
            "extension": [ {
              "url": "https://gematik.de/fhir/epa-medication/StructureDefinition/medication-ingredient-amount-extension",
              "valueString": "5g"
            } ],
            "numerator": {
              "_value": {
                "extension": [ {
                  "url": "http://hl7.org/fhir/StructureDefinition/data-absent-reason",
                  "valueCode": "unknown"
                } ]
              },
              "_system": {
                "extension": [ {
                  "url": "http://hl7.org/fhir/StructureDefinition/data-absent-reason",
                  "valueCode": "unknown"
                } ]
              },
              "_code": {
                "extension": [ {
                  "url": "http://hl7.org/fhir/StructureDefinition/data-absent-reason",
                  "valueCode": "unknown"
                } ]
              }
            },
            "denominator": {
              "_value": {
                "extension": [ {
                  "url": "http://hl7.org/fhir/StructureDefinition/data-absent-reason",
                  "valueCode": "unknown"
                } ]
              },
              "_system": {
                "extension": [ {
                  "url": "http://hl7.org/fhir/StructureDefinition/data-absent-reason",
                  "valueCode": "unknown"
                } ]
              },
              "_code": {
                "extension": [ {
                  "url": "http://hl7.org/fhir/StructureDefinition/data-absent-reason",
                  "valueCode": "unknown"
                } ]
              }
            }
          }
        }, {
          "itemCodeableConcept": {
            "text": "2-propanol 70 %"
          },
          "strength": {
            "extension": [ {
              "url": "https://gematik.de/fhir/epa-medication/StructureDefinition/medication-ingredient-amount-extension",
              "valueString": "Ad 100 g"
            } ],
            "numerator": {
              "_value": {
                "extension": [ {
                  "url": "http://hl7.org/fhir/StructureDefinition/data-absent-reason",
                  "valueCode": "unknown"
                } ]
              },
              "_system": {
                "extension": [ {
                  "url": "http://hl7.org/fhir/StructureDefinition/data-absent-reason",
                  "valueCode": "unknown"
                } ]
              },
              "_code": {
                "extension": [ {
                  "url": "http://hl7.org/fhir/StructureDefinition/data-absent-reason",
                  "valueCode": "unknown"
                } ]
              }
            },
            "denominator": {
              "_value": {
                "extension": [ {
                  "url": "http://hl7.org/fhir/StructureDefinition/data-absent-reason",
                  "valueCode": "unknown"
                } ]
              },
              "_system": {
                "extension": [ {
                  "url": "http://hl7.org/fhir/StructureDefinition/data-absent-reason",
                  "valueCode": "unknown"
                } ]
              },
              "_code": {
                "extension": [ {
                  "url": "http://hl7.org/fhir/StructureDefinition/data-absent-reason",
                  "valueCode": "unknown"
                } ]
              }
            }
          }
        } ]
      }
    }, {
      "name": "organization",
      "resource": {
        "resourceType": "Organization",
        "id": "3ed7bdc8-0e5b-40cf-b955-a1e995003304",
        "meta": {
          "profile": [ "https://gematik.de/fhir/directory/StructureDefinition/OrganizationDirectory|0.11.12" ],
          "tag": [ {
            "system": "https://gematik.de/fhir/directory/CodeSystem/Origin",
            "code": "ldap"
          } ]
        },
        "identifier": [ {
          "system": "https://gematik.de/fhir/sid/telematik-id",
          "value": "3-abc-1234567890"
        } ],
        "type": [ {
          "coding": [ {
            "system": "https://gematik.de/fhir/directory/CodeSystem/OrganizationProfessionOID",
            "code": "1.2.276.0.76.4.58"
          } ]
        } ],
        "name": "Bud Weiser"
      }
    } ]
  } ]
}