<Bundle xmlns="http://hl7.org/fhir"><id value="170475c1-5d2e-434b-942f-8467f16c03ab"/><meta><lastUpdated value="2025-03-28T09:07:54.577+01:00"/><profile value="http://fhir.abda.de/eRezeptAbgabedaten/StructureDefinition/DAV-PKV-PR-ERP-AbgabedatenBundle|1.3"/></meta><identifier><system value="https://gematik.de/fhir/erp/NamingSystem/GEM_ERP_NS_PrescriptionId"/><value value="200.000.002.425.317.90"/></identifier><type value="document"/><timestamp value="2025-03-28T09:07:54.577+01:00"/><entry><fullUrl value="urn:uuid:36a797b2-b562-4878-9a8b-c37fc2953ab6"/><resource><Composition xmlns="http://hl7.org/fhir"><id value="36a797b2-b562-4878-9a8b-c37fc2953ab6"/><meta><profile value="http://fhir.abda.de/eRezeptAbgabedaten/StructureDefinition/DAV-PKV-PR-ERP-AbgabedatenComposition|1.3"/></meta><status value="final"/><type><coding><system value="http://fhir.abda.de/eRezeptAbgabedaten/CodeSystem/DAV-CS-ERP-CompositionTypes"/><code value="ERezeptAbgabedaten"/></coding></type><date value="2025-03-28T09:07:54+01:00"/><author><reference value="urn:uuid:0cb06dbf-5d02-4f17-a60e-3152c7f9a8de"/></author><title value="ERezeptAbgabedaten"/><section><title value="Apotheke"/><entry><reference value="urn:uuid:0cb06dbf-5d02-4f17-a60e-3152c7f9a8de"/></entry></section><section><title value="Abgabeinformationen"/><entry><reference value="urn:uuid:0bc05d81-9a99-4477-bd6d-95832ed629f1"/></entry></section></Composition></resource></entry><entry><fullUrl value="urn:uuid:0cb06dbf-5d02-4f17-a60e-3152c7f9a8de"/><resource><Organization xmlns="http://hl7.org/fhir"><id value="0cb06dbf-5d02-4f17-a60e-3152c7f9a8de"/><meta><profile value="http://fhir.abda.de/eRezeptAbgabedaten/StructureDefinition/DAV-PKV-PR-ERP-Apotheke|1.3"/></meta><identifier><system value="http://fhir.de/sid/arge-ik/iknr"/><value value="381989940"/></identifier><name value="Apotheke Rich Kidd"/><address><type value="physical"/><line value="Schwalbenweg 34"><extension url="http://hl7.org/fhir/StructureDefinition/iso21090-ADXP-houseNumber"><valueString value="34"/></extension><extension url="http://hl7.org/fhir/StructureDefinition/iso21090-ADXP-streetName"><valueString value="Schwalbenweg"/></extension></line><city value="Bad Linnea"/><postalCode value="14051"/><country value="A"/></address></Organization></resource></entry><entry><fullUrl value="urn:uuid:4f716c21-9b76-428f-bd9f-424ac83b3ca6"/><resource><Invoice xmlns="http://hl7.org/fhir"><id value="4f716c21-9b76-428f-bd9f-424ac83b3ca6"/><meta><profile value="http://fhir.abda.de/eRezeptAbgabedaten/StructureDefinition/DAV-PKV-PR-ERP-Abrechnungszeilen|1.3"/></meta><status value="issued"/><type><coding><system value="http://fhir.abda.de/eRezeptAbgabedaten/CodeSystem/DAV-CS-ERP-InvoiceTyp"/><code value="Abrechnungszeilen"/></coding></type><lineItem><sequence value="1"/><chargeItemCodeableConcept><coding><system value="http://fhir.de/CodeSystem/ifa/pzn"/><code value="11828417"/></coding><text value="Ginkobil® Filmtabletten"/></chargeItemCodeableConcept><priceComponent><extension url="http://fhir.abda.de/eRezeptAbgabedaten/StructureDefinition/DAV-EX-ERP-KostenVersicherter"><extension url="Kategorie"><valueCodeableConcept><coding><system value="http://fhir.abda.de/eRezeptAbgabedaten/CodeSystem/DAV-PKV-CS-ERP-KostenVersicherterKategorie"/><code value="0"/></coding></valueCodeableConcept></extension><extension url="Kostenbetrag"><valueMoney><value value="306.36"/><currency value="EUR"/></valueMoney></extension></extension><extension url="http://fhir.abda.de/eRezeptAbgabedaten/StructureDefinition/DAV-EX-ERP-MwStSatz"><valueDecimal value="25.25"/></extension><type value="informational"/><factor value="1"/><amount><value value="330.76"/><currency value="EUR"/></amount></priceComponent></lineItem><totalGross><extension url="http://fhir.abda.de/eRezeptAbgabedaten/StructureDefinition/DAV-EX-ERP-Gesamtzuzahlung"><valueMoney><value value="306.36"/><currency value="EUR"/></valueMoney></extension><value value="330.76"/><currency value="EUR"/></totalGross></Invoice></resource></entry><entry><fullUrl value="urn:uuid:0bc05d81-9a99-4477-bd6d-95832ed629f1"/><resource><MedicationDispense xmlns="http://hl7.org/fhir"><id value="0bc05d81-9a99-4477-bd6d-95832ed629f1"/><meta><profile value="http://fhir.abda.de/eRezeptAbgabedaten/StructureDefinition/DAV-PKV-PR-ERP-Abgabeinformationen|1.3"/></meta><extension url="http://fhir.abda.de/eRezeptAbgabedaten/StructureDefinition/DAV-PKV-EX-ERP-AbrechnungsTyp"><valueCodeableConcept><coding><system value="http://fhir.abda.de/eRezeptAbgabedaten/CodeSystem/DAV-PKV-CS-ERP-AbrechnungsTyp"/><code value="1"/></coding></valueCodeableConcept></extension><extension url="http://fhir.abda.de/eRezeptAbgabedaten/StructureDefinition/DAV-EX-ERP-Abrechnungszeilen"><valueReference><reference value="urn:uuid:4f716c21-9b76-428f-bd9f-424ac83b3ca6"/></valueReference></extension><status value="completed"/><medicationCodeableConcept><coding><system value="http://terminology.hl7.org/CodeSystem/data-absent-reason"/><code value="not-applicable"/></coding></medicationCodeableConcept><performer><actor><reference value="urn:uuid:0cb06dbf-5d02-4f17-a60e-3152c7f9a8de"/></actor></performer><authorizingPrescription><identifier><system value="https://gematik.de/fhir/erp/NamingSystem/GEM_ERP_NS_PrescriptionId"/><value value="200.000.002.425.317.90"/></identifier></authorizingPrescription><type><coding><system value="http://fhir.abda.de/eRezeptAbgabedaten/CodeSystem/DAV-CS-ERP-MedicationDispenseTyp"/><code value="Abgabeinformationen"/></coding></type><whenHandedOver value="2025-03-28"/></MedicationDispense></resource></entry></Bundle>