{
  "resourceType" : "Bundle",
  "id" : "c14fbe85-bfe6-4b12-88f6-1a1548b7c148",
  "type" : "collection",
  "timestamp" : "2024-02-08T18:16:02.100+00:00",
  "entry" : [ {
    "fullUrl" : "https://erp-ref.zentral.erp.splitdns.ti-dienste.de/ChargeItem/200.000.002.096.533.49",
    "resource" : {
      "resourceType" : "ChargeItem",
      "id" : "200.000.002.096.533.49",
      "meta" : {
        "profile" : [ "https://gematik.de/fhir/erpchrg/StructureDefinition/GEM_ERPCHRG_PR_ChargeItem|1.0" ]
      },
      "identifier" : [ {
        "system" : "https://gematik.de/fhir/erp/NamingSystem/GEM_ERP_NS_AccessCode",
        "value" : "5c3aec11adb891d3af55201ca9239a898990c263e1c6955724bbdaf2cb1be8b9"
      }, {
        "system" : "https://gematik.de/fhir/erp/NamingSystem/GEM_ERP_NS_PrescriptionId",
        "value" : "200.000.002.096.533.49"
      } ],
      "status" : "billable",
      "code" : {
        "coding" : [ {
          "system" : "http://terminology.hl7.org/CodeSystem/data-absent-reason",
          "code" : "not-applicable"
        } ]
      },
      "subject" : {
        "identifier" : {
          "system" : "http://fhir.de/sid/pkv/kvid-10",
          "value" : "X110465770"
        }
      },
      "enterer" : {
        "identifier" : {
          "system" : "https://gematik.de/fhir/sid/telematik-id",
          "value" : "3-SMC-B-Testkarte-883110000116873"
        }
      },
      "enteredDate" : "2024-02-08T18:16:01.988+00:00",
      "supportingInformation" : [ {
        "reference" : "urn:uuid:c895fd1f-0000-0000-0001-000000000000",
        "display" : "https://fhir.kbv.de/StructureDefinition/KBV_PR_ERP_Bundle"
      }, {
        "reference" : "urn:uuid:c895fd1f-0000-0000-0004-000000000000",
        "display" : "http://fhir.abda.de/eRezeptAbgabedaten/StructureDefinition/DAV-PKV-PR-ERP-AbgabedatenBundle"
      }, {
        "reference" : "urn:uuid:c895fd1f-0000-0000-0003-000000000000",
        "display" : "https://gematik.de/fhir/erp/StructureDefinition/GEM_ERP_PR_Bundle"
      } ]
    }
  }, {
    "fullUrl" : "urn:uuid:c895fd1f-0000-0000-0004-000000000000",
    "resource" : {
      "resourceType" : "Bundle",
      "id" : "6af918a0-df4a-43f2-90fa-f988bbfc4840",
      "meta" : {
        "lastUpdated" : "2024-02-08T19:16:00.371+01:00",
        "profile" : [ "http://fhir.abda.de/eRezeptAbgabedaten/StructureDefinition/DAV-PKV-PR-ERP-AbgabedatenBundle|1.4" ]
      },
      "identifier" : {
        "system" : "https://gematik.de/fhir/erp/NamingSystem/GEM_ERP_NS_PrescriptionId",
        "value" : "200.000.002.096.533.49"
      },
      "type" : "document",
      "timestamp" : "2024-02-08T19:16:00.371+01:00",
      "entry" : [ {
        "fullUrl" : "urn:uuid:fb3a7e1b-5ba8-434b-814a-763730e283e3",
        "resource" : {
          "resourceType" : "Composition",
          "meta" : {
            "profile" : [ "http://fhir.abda.de/eRezeptAbgabedaten/StructureDefinition/DAV-PKV-PR-ERP-AbgabedatenComposition|1.4" ]
          },
          "status" : "final",
          "type" : {
            "coding" : [ {
              "system" : "http://fhir.abda.de/eRezeptAbgabedaten/CodeSystem/DAV-CS-ERP-CompositionTypes",
              "code" : "ERezeptAbgabedaten"
            } ]
          },
          "date" : "2024-02-08T19:16:00+01:00",
          "author" : [ {
            "reference" : "urn:uuid:de636fbe-bbef-4cdb-8922-f11d25fb7360"
          } ],
          "title" : "ERezeptAbgabedaten",
          "section" : [ {
            "title" : "Apotheke",
            "entry" : [ {
              "reference" : "urn:uuid:de636fbe-bbef-4cdb-8922-f11d25fb7360"
            } ]
          }, {
            "title" : "Abgabeinformationen",
            "entry" : [ {
              "reference" : "urn:uuid:5dd97589-743b-4c30-8abb-1e3f511eca0d"
            } ]
          } ]
        }
      }, {
        "fullUrl" : "urn:uuid:de636fbe-bbef-4cdb-8922-f11d25fb7360",
        "resource" : {
          "resourceType" : "Organization",
          "meta" : {
            "profile" : [ "http://fhir.abda.de/eRezeptAbgabedaten/StructureDefinition/DAV-PKV-PR-ERP-Apotheke|1.4" ]
          },
          "identifier" : [ {
            "system" : "http://fhir.de/sid/arge-ik/iknr",
            "value" : "421246428"
          } ],
          "name" : "Apotheke Xavier Breath",
          "address" : [ {
            "type" : "physical",
            "line" : [ "Edmund-Husserl-Str. 57a" ],
            "_line" : [ {
              "extension" : [ {
                "url" : "http://hl7.org/fhir/StructureDefinition/iso21090-ADXP-houseNumber",
                "valueString" : "57a"
              }, {
                "url" : "http://hl7.org/fhir/StructureDefinition/iso21090-ADXP-streetName",
                "valueString" : "Edmund-Husserl-Str."
              } ]
            } ],
            "city" : "Bad Lenja",
            "postalCode" : "65052",
            "country" : "D"
          } ]
        }
      }, {
        "fullUrl" : "urn:uuid:f1da7f18-f6a6-4b6f-832e-77c0eba916af",
        "resource" : {
          "resourceType" : "Invoice",
          "meta" : {
            "profile" : [ "http://fhir.abda.de/eRezeptAbgabedaten/StructureDefinition/DAV-PKV-PR-ERP-Abrechnungszeilen|1.4" ]
          },
          "status" : "issued",
          "type" : {
            "coding" : [ {
              "system" : "http://fhir.abda.de/eRezeptAbgabedaten/CodeSystem/DAV-CS-ERP-InvoiceTyp",
              "code" : "Abrechnungszeilen"
            } ]
          },
          "lineItem" : [ {
            "sequence" : 1,
            "chargeItemCodeableConcept" : {
              "coding" : [ {
                "system" : "http://fhir.de/CodeSystem/ifa/pzn",
                "code" : "47911720"
              } ],
              "text" : "Defimoor"
            },
            "priceComponent" : [ {
              "extension" : [ {
                "url" : "http://fhir.abda.de/eRezeptAbgabedaten/StructureDefinition/DAV-EX-ERP-KostenVersicherter",
                "extension" : [ {
                  "url" : "Kategorie",
                  "valueCodeableConcept" : {
                    "coding" : [ {
                      "system" : "http://fhir.abda.de/eRezeptAbgabedaten/CodeSystem/DAV-PKV-CS-ERP-KostenVersicherterKategorie",
                      "code" : "0"
                    } ]
                  }
                }, {
                  "url" : "Kostenbetrag",
                  "valueMoney" : {
                    "value" : 7.06,
                    "currency" : "EUR"
                  }
                } ]
              }, {
                "url" : "http://fhir.abda.de/eRezeptAbgabedaten/StructureDefinition/DAV-EX-ERP-MwStSatz",
                "valueDecimal" : 11.71
              } ],
              "type" : "informational",
              "factor" : 1,
              "amount" : {
                "value" : 8.54,
                "currency" : "EUR"
              }
            } ]
          }, {
            "sequence" : 2,
            "chargeItemCodeableConcept" : {
              "coding" : [ {
                "system" : "http://fhir.de/CodeSystem/ifa/pzn",
                "code" : "00740079"
              } ],
              "text" : "Doxamenin"
            },
            "priceComponent" : [ {
              "extension" : [ {
                "url" : "http://fhir.abda.de/eRezeptAbgabedaten/StructureDefinition/DAV-EX-ERP-KostenVersicherter",
                "extension" : [ {
                  "url" : "Kategorie",
                  "valueCodeableConcept" : {
                    "coding" : [ {
                      "system" : "http://fhir.abda.de/eRezeptAbgabedaten/CodeSystem/DAV-PKV-CS-ERP-KostenVersicherterKategorie",
                      "code" : "0"
                    } ]
                  }
                }, {
                  "url" : "Kostenbetrag",
                  "valueMoney" : {
                    "value" : 55.93,
                    "currency" : "EUR"
                  }
                } ]
              }, {
                "url" : "http://fhir.abda.de/eRezeptAbgabedaten/StructureDefinition/DAV-EX-ERP-MwStSatz",
                "valueDecimal" : 11.71
              } ],
              "type" : "informational",
              "factor" : 1,
              "amount" : {
                "value" : 124.96,
                "currency" : "EUR"
              }
            } ]
          }, {
            "sequence" : 3,
            "chargeItemCodeableConcept" : {
              "coding" : [ {
                "system" : "http://fhir.de/CodeSystem/ifa/pzn",
                "code" : "99191531"
              } ],
              "text" : "Acaglucopa"
            },
            "priceComponent" : [ {
              "extension" : [ {
                "url" : "http://fhir.abda.de/eRezeptAbgabedaten/StructureDefinition/DAV-EX-ERP-KostenVersicherter",
                "extension" : [ {
                  "url" : "Kategorie",
                  "valueCodeableConcept" : {
                    "coding" : [ {
                      "system" : "http://fhir.abda.de/eRezeptAbgabedaten/CodeSystem/DAV-PKV-CS-ERP-KostenVersicherterKategorie",
                      "code" : "0"
                    } ]
                  }
                }, {
                  "url" : "Kostenbetrag",
                  "valueMoney" : {
                    "value" : 494.99,
                    "currency" : "EUR"
                  }
                } ]
              }, {
                "url" : "http://fhir.abda.de/eRezeptAbgabedaten/StructureDefinition/DAV-EX-ERP-MwStSatz",
                "valueDecimal" : 11.71
              } ],
              "type" : "informational",
              "factor" : 1,
              "amount" : {
                "value" : 524.98,
                "currency" : "EUR"
              }
            } ]
          } ],
          "totalGross" : {
            "extension" : [ {
              "url" : "http://fhir.abda.de/eRezeptAbgabedaten/StructureDefinition/DAV-EX-ERP-Gesamtzuzahlung",
              "valueMoney" : {
                "value" : 557.98,
                "currency" : "EUR"
              }
            } ],
            "value" : 658.48,
            "currency" : "EUR"
          }
        }
      }, {
        "fullUrl" : "urn:uuid:5dd97589-743b-4c30-8abb-1e3f511eca0d",
        "resource" : {
          "resourceType" : "MedicationDispense",
          "meta" : {
            "profile" : [ "http://fhir.abda.de/eRezeptAbgabedaten/StructureDefinition/DAV-PKV-PR-ERP-Abgabeinformationen|1.4" ]
          },
          "extension" : [ {
            "url" : "http://fhir.abda.de/eRezeptAbgabedaten/StructureDefinition/DAV-PKV-EX-ERP-AbrechnungsTyp",
            "valueCodeableConcept" : {
              "coding" : [ {
                "system" : "http://fhir.abda.de/eRezeptAbgabedaten/CodeSystem/DAV-PKV-CS-ERP-AbrechnungsTyp",
                "code" : "1"
              } ]
            }
          }, {
            "url" : "http://fhir.abda.de/eRezeptAbgabedaten/StructureDefinition/DAV-EX-ERP-Abrechnungszeilen",
            "valueReference" : {
              "reference" : "urn:uuid:f1da7f18-f6a6-4b6f-832e-77c0eba916af"
            }
          } ],
          "status" : "completed",
          "medicationCodeableConcept" : {
            "coding" : [ {
              "system" : "http://terminology.hl7.org/CodeSystem/data-absent-reason",
              "code" : "not-applicable"
            } ]
          },
          "performer" : [ {
            "actor" : {
              "reference" : "urn:uuid:de636fbe-bbef-4cdb-8922-f11d25fb7360"
            }
          } ],
          "authorizingPrescription" : [ {
            "identifier" : {
              "system" : "https://gematik.de/fhir/erp/NamingSystem/GEM_ERP_NS_PrescriptionId",
              "value" : "200.000.002.096.533.49"
            }
          } ],
          "type" : {
            "coding" : [ {
              "system" : "http://fhir.abda.de/eRezeptAbgabedaten/CodeSystem/DAV-CS-ERP-MedicationDispenseTyp",
              "code" : "Abgabeinformationen"
            } ]
          },
          "whenHandedOver" : "2024-02-08"
        }
      } ],
      "signature" : {
        "type" : [ {
          "system" : "urn:iso-astm:E1762-95:2013",
          "code" : "1.2.840.10065.1.12.1.1"
        } ],
        "when" : "2024-02-08T18:16:02.148+00:00",
        "who" : {
          "reference" : "https://erp-ref.zentral.erp.splitdns.ti-dienste.de/Device/1"
        },
        "sigFormat" : "application/pkcs7-mime",
        "data" : ""
      }
    }
  }, {
    "fullUrl" : "urn:uuid:c895fd1f-0000-0000-0001-000000000000",
    "resource" : {
      "resourceType" : "Bundle",
      "id" : "6b244b96-f0a8-4e31-b739-9998ba4f667a",
      "meta" : {
        "lastUpdated" : "2024-02-08T19:15:57.560+01:00",
        "profile" : [ "https://fhir.kbv.de/StructureDefinition/KBV_PR_ERP_Bundle|1.1.0" ]
      },
      "identifier" : {
        "system" : "https://gematik.de/fhir/erp/NamingSystem/GEM_ERP_NS_PrescriptionId",
        "value" : "200.000.002.096.533.49"
      },
      "type" : "document",
      "timestamp" : "2024-02-08T19:15:57.560+01:00",
      "entry" : [ {
        "fullUrl" : "https://pvs.gematik.de/fhir/Composition/9855bc2c-b0d8-44f0-b360-3b1f9fa6b6fe",
        "resource" : {
          "resourceType" : "Composition",
          "id" : "9855bc2c-b0d8-44f0-b360-3b1f9fa6b6fe",
          "meta" : {
            "profile" : [ "https://fhir.kbv.de/StructureDefinition/KBV_PR_ERP_Composition|1.1.0" ]
          },
          "extension" : [ {
            "url" : "https://fhir.kbv.de/StructureDefinition/KBV_EX_FOR_Legal_basis",
            "valueCoding" : {
              "system" : "https://fhir.kbv.de/CodeSystem/KBV_CS_SFHIR_KBV_STATUSKENNZEICHEN",
              "code" : "00"
            }
          } ],
          "status" : "final",
          "type" : {
            "coding" : [ {
              "system" : "https://fhir.kbv.de/CodeSystem/KBV_CS_SFHIR_KBV_FORMULAR_ART",
              "code" : "e16A"
            } ]
          },
          "subject" : {
            "reference" : "Patient/71c2b277-2dc1-4ea9-a7d5-be021a99e29f"
          },
          "date" : "2024-02-08T19:15:57+01:00",
          "author" : [ {
            "reference" : "Practitioner/fff69e0e-0805-42dc-90df-7298c7aad109",
            "type" : "Practitioner"
          }, {
            "type" : "Device",
            "identifier" : {
              "system" : "https://fhir.kbv.de/NamingSystem/KBV_NS_FOR_Pruefnummer",
              "value" : "GEMATIK/410/2109/36/123"
            }
          } ],
          "title" : "elektronische Arzneimittelverordnung",
          "custodian" : {
            "reference" : "Organization/ca6ecc74-32d5-4daa-9013-285eb20d6ef9"
          },
          "section" : [ {
            "code" : {
              "coding" : [ {
                "system" : "https://fhir.kbv.de/CodeSystem/KBV_CS_ERP_Section_Type",
                "code" : "Coverage"
              } ]
            },
            "entry" : [ {
              "reference" : "Coverage/3ff9d7fd-15cc-4df7-bf10-f25fd99dfac5"
            } ]
          }, {
            "code" : {
              "coding" : [ {
                "system" : "https://fhir.kbv.de/CodeSystem/KBV_CS_ERP_Section_Type",
                "code" : "Prescription"
              } ]
            },
            "entry" : [ {
              "reference" : "MedicationRequest/f5aaf0db-d8ed-4ea0-92ec-48a08df224f8"
            } ]
          } ]
        }
      }, {
        "fullUrl" : "https://pvs.gematik.de/fhir/Medication/81a3a319-f7a4-42d1-bd10-d929186b36b7",
        "resource" : {
          "resourceType" : "Medication",
          "id" : "81a3a319-f7a4-42d1-bd10-d929186b36b7",
          "meta" : {
            "profile" : [ "https://fhir.kbv.de/StructureDefinition/KBV_PR_ERP_Medication_PZN|1.1.0" ]
          },
          "extension" : [ {
            "url" : "https://fhir.kbv.de/StructureDefinition/KBV_EX_Base_Medication_Type",
            "valueCodeableConcept" : {
              "coding" : [ {
                "system" : "http://snomed.info/sct",
                "version" : "http://snomed.info/sct/900000000000207008/version/20220331",
                "code" : "763158003",
                "display" : "Medicinal product (product)"
              } ]
            }
          }, {
            "url" : "https://fhir.kbv.de/StructureDefinition/KBV_EX_ERP_Medication_Category",
            "valueCoding" : {
              "system" : "https://fhir.kbv.de/CodeSystem/KBV_CS_ERP_Medication_Category",
              "code" : "00"
            }
          }, {
            "url" : "https://fhir.kbv.de/StructureDefinition/KBV_EX_ERP_Medication_Vaccine",
            "valueBoolean" : false
          }, {
            "url" : "http://fhir.de/StructureDefinition/normgroesse",
            "valueCode" : "NB"
          } ],
          "code" : {
            "coding" : [ {
              "system" : "http://fhir.de/CodeSystem/ifa/pzn",
              "code" : "84264572"
            } ],
            "text" : "Schmerzmittel"
          },
          "form" : {
            "coding" : [ {
              "system" : "https://fhir.kbv.de/CodeSystem/KBV_CS_SFHIR_KBV_DARREICHUNGSFORM",
              "code" : "TAB"
            } ]
          },
          "amount" : {
            "numerator" : {
              "extension" : [ {
                "url" : "https://fhir.kbv.de/StructureDefinition/KBV_EX_ERP_Medication_PackagingSize",
                "valueString" : "1"
              } ],
              "unit" : "Stk"
            },
            "denominator" : {
              "value" : 1
            }
          }
        }
      }, {
        "fullUrl" : "https://pvs.gematik.de/fhir/Patient/71c2b277-2dc1-4ea9-a7d5-be021a99e29f",
        "resource" : {
          "resourceType" : "Patient",
          "id" : "71c2b277-2dc1-4ea9-a7d5-be021a99e29f",
          "meta" : {
            "profile" : [ "https://fhir.kbv.de/StructureDefinition/KBV_PR_FOR_Patient|1.1.0" ]
          },
          "identifier" : [ {
            "type" : {
              "coding" : [ {
                "system" : "http://fhir.de/CodeSystem/identifier-type-de-basis",
                "code" : "PKV"
              } ]
            },
            "system" : "http://fhir.de/sid/pkv/kvid-10",
            "value" : "X110465770"
          } ],
          "name" : [ {
            "use" : "official",
            "family" : "Angermänn",
            "_family" : {
              "extension" : [ {
                "url" : "http://hl7.org/fhir/StructureDefinition/humanname-own-name",
                "valueString" : "Angermänn"
              } ]
            },
            "given" : [ "Günther" ]
          } ],
          "birthDate" : "1962-11-24",
          "address" : [ {
            "type" : "both",
            "line" : [ "Adolf-Baeyer-Str. 19a" ],
            "_line" : [ {
              "extension" : [ {
                "url" : "http://hl7.org/fhir/StructureDefinition/iso21090-ADXP-houseNumber",
                "valueString" : "19a"
              }, {
                "url" : "http://hl7.org/fhir/StructureDefinition/iso21090-ADXP-streetName",
                "valueString" : "Adolf-Baeyer-Str."
              } ]
            } ],
            "city" : "Groß Bianca",
            "postalCode" : "82646",
            "country" : "D"
          } ]
        }
      }, {
        "fullUrl" : "https://pvs.gematik.de/fhir/Organization/ca6ecc74-32d5-4daa-9013-285eb20d6ef9",
        "resource" : {
          "resourceType" : "Organization",
          "id" : "ca6ecc74-32d5-4daa-9013-285eb20d6ef9",
          "meta" : {
            "profile" : [ "https://fhir.kbv.de/StructureDefinition/KBV_PR_FOR_Organization|1.1.0" ]
          },
          "identifier" : [ {
            "type" : {
              "coding" : [ {
                "system" : "http://terminology.hl7.org/CodeSystem/v2-0203",
                "code" : "BSNR"
              } ]
            },
            "system" : "https://fhir.kbv.de/NamingSystem/KBV_NS_Base_BSNR",
            "value" : "787145379"
          } ],
          "name" : "Arztpraxis Schraßer",
          "telecom" : [ {
            "system" : "phone",
            "value" : "(05009) 9116624"
          }, {
            "system" : "email",
            "value" : "anthony.leyckes@fenner.org"
          } ],
          "address" : [ {
            "type" : "both",
            "line" : [ "Ropenstaller Weg 700" ],
            "_line" : [ {
              "extension" : [ {
                "url" : "http://hl7.org/fhir/StructureDefinition/iso21090-ADXP-houseNumber",
                "valueString" : "700"
              }, {
                "url" : "http://hl7.org/fhir/StructureDefinition/iso21090-ADXP-streetName",
                "valueString" : "Ropenstaller Weg"
              } ]
            } ],
            "city" : "Doskoczynskiburg",
            "postalCode" : "08984",
            "country" : "D"
          } ]
        }
      }, {
        "fullUrl" : "https://pvs.gematik.de/fhir/Coverage/3ff9d7fd-15cc-4df7-bf10-f25fd99dfac5",
        "resource" : {
          "resourceType" : "Coverage",
          "id" : "3ff9d7fd-15cc-4df7-bf10-f25fd99dfac5",
          "meta" : {
            "profile" : [ "https://fhir.kbv.de/StructureDefinition/KBV_PR_FOR_Coverage|1.1.0" ]
          },
          "extension" : [ {
            "url" : "http://fhir.de/StructureDefinition/gkv/besondere-personengruppe",
            "valueCoding" : {
              "system" : "https://fhir.kbv.de/CodeSystem/KBV_CS_SFHIR_KBV_PERSONENGRUPPE",
              "code" : "00"
            }
          }, {
            "url" : "http://fhir.de/StructureDefinition/gkv/dmp-kennzeichen",
            "valueCoding" : {
              "system" : "https://fhir.kbv.de/CodeSystem/KBV_CS_SFHIR_KBV_DMP",
              "code" : "00"
            }
          }, {
            "url" : "http://fhir.de/StructureDefinition/gkv/wop",
            "valueCoding" : {
              "system" : "https://fhir.kbv.de/CodeSystem/KBV_CS_SFHIR_ITA_WOP",
              "code" : "88"
            }
          }, {
            "url" : "http://fhir.de/StructureDefinition/gkv/versichertenart",
            "valueCoding" : {
              "system" : "https://fhir.kbv.de/CodeSystem/KBV_CS_SFHIR_KBV_VERSICHERTENSTATUS",
              "code" : "1"
            }
          } ],
          "status" : "active",
          "type" : {
            "coding" : [ {
              "system" : "http://fhir.de/CodeSystem/versicherungsart-de-basis",
              "code" : "PKV"
            } ]
          },
          "beneficiary" : {
            "reference" : "Patient/215077be-0034-4a9c-b51b-47826f3d3978"
          },
          "payor" : [ {
            "identifier" : {
              "system" : "http://fhir.de/sid/arge-ik/iknr",
              "value" : "168141041"
            },
            "display" : "KUK"
          } ]
        }
      }, {
        "fullUrl" : "https://pvs.gematik.de/fhir/Practitioner/fff69e0e-0805-42dc-90df-7298c7aad109",
        "resource" : {
          "resourceType" : "Practitioner",
          "id" : "fff69e0e-0805-42dc-90df-7298c7aad109",
          "meta" : {
            "profile" : [ "https://fhir.kbv.de/StructureDefinition/KBV_PR_FOR_Practitioner|1.1.0" ]
          },
          "identifier" : [ {
            "type" : {
              "coding" : [ {
                "system" : "http://terminology.hl7.org/CodeSystem/v2-0203",
                "code" : "LANR"
              } ]
            },
            "system" : "https://fhir.kbv.de/NamingSystem/KBV_NS_Base_ANR",
            "value" : "231796846"
          } ],
          "name" : [ {
            "use" : "official",
            "family" : "Schraßer",
            "_family" : {
              "extension" : [ {
                "url" : "http://hl7.org/fhir/StructureDefinition/humanname-own-name",
                "valueString" : "Schraßer"
              } ]
            },
            "given" : [ "Dr." ],
            "prefix" : [ "Dr." ],
            "_prefix" : [ {
              "extension" : [ {
                "url" : "http://hl7.org/fhir/StructureDefinition/iso21090-EN-qualifier",
                "valueCode" : "AC"
              } ]
            } ]
          } ],
          "qualification" : [ {
            "code" : {
              "coding" : [ {
                "system" : "https://fhir.kbv.de/CodeSystem/KBV_CS_FOR_Qualification_Type",
                "code" : "00"
              } ]
            }
          }, {
            "code" : {
              "coding" : [ {
                "system" : "https://fhir.kbv.de/CodeSystem/KBV_CS_FOR_Berufsbezeichnung",
                "code" : "Berufsbezeichnung"
              } ],
              "text" : "Super-Facharzt für alles Mögliche"
            }
          } ]
        }
      }, {
        "fullUrl" : "https://pvs.gematik.de/fhir/MedicationRequest/f5aaf0db-d8ed-4ea0-92ec-48a08df224f8",
        "resource" : {
          "resourceType" : "MedicationRequest",
          "id" : "f5aaf0db-d8ed-4ea0-92ec-48a08df224f8",
          "meta" : {
            "profile" : [ "https://fhir.kbv.de/StructureDefinition/KBV_PR_ERP_Prescription|1.1.0" ]
          },
          "extension" : [ {
            "url" : "https://fhir.kbv.de/StructureDefinition/KBV_EX_ERP_BVG",
            "valueBoolean" : false
          }, {
            "url" : "https://fhir.kbv.de/StructureDefinition/KBV_EX_ERP_EmergencyServicesFee",
            "valueBoolean" : false
          }, {
            "url" : "https://fhir.kbv.de/StructureDefinition/KBV_EX_ERP_Multiple_Prescription",
            "extension" : [ {
              "url" : "Kennzeichen",
              "valueBoolean" : false
            } ]
          }, {
            "url" : "https://fhir.kbv.de/StructureDefinition/KBV_EX_FOR_StatusCoPayment",
            "valueCoding" : {
              "system" : "https://fhir.kbv.de/CodeSystem/KBV_CS_FOR_StatusCoPayment",
              "code" : "1"
            }
          } ],
          "status" : "active",
          "intent" : "order",
          "medicationReference" : {
            "reference" : "Medication/81a3a319-f7a4-42d1-bd10-d929186b36b7"
          },
          "subject" : {
            "reference" : "Patient/71c2b277-2dc1-4ea9-a7d5-be021a99e29f"
          },
          "authoredOn" : "2024-02-08",
          "requester" : {
            "reference" : "Practitioner/fff69e0e-0805-42dc-90df-7298c7aad109"
          },
          "insurance" : [ {
            "reference" : "Coverage/3ff9d7fd-15cc-4df7-bf10-f25fd99dfac5"
          } ],
          "dispenseRequest" : {
            "quantity" : {
              "value" : 1,
              "system" : "http://unitsofmeasure.org",
              "code" : "{Package}"
            }
          },
          "substitution" : {
            "allowedBoolean" : false
          }
        }
      } ],
      "signature" : {
        "type" : [ {
          "system" : "urn:iso-astm:E1762-95:2013",
          "code" : "1.2.840.10065.1.12.1.1"
        } ],
        "when" : "2024-02-08T18:16:02.137+00:00",
        "who" : {
          "reference" : "https://erp-ref.zentral.erp.splitdns.ti-dienste.de/Device/1"
        },
        "sigFormat" : "application/pkcs7-mime",
        "data" : ""
      }
    }
  }, {
    "fullUrl" : "urn:uuid:c895fd1f-0000-0000-0003-000000000000",
    "resource" : {
      "resourceType" : "Bundle",
      "meta" : {
        "profile" : [ "https://gematik.de/fhir/erp/StructureDefinition/GEM_ERP_PR_Bundle|1.4" ]
      },
      "identifier" : {
        "system" : "https://gematik.de/fhir/erp/NamingSystem/GEM_ERP_NS_PrescriptionId",
        "value" : "200.000.002.096.533.49"
      },
      "type" : "document",
      "timestamp" : "2024-02-08T18:16:00.241+00:00",
      "link" : [ {
        "relation" : "self",
        "url" : "https://erp-ref.zentral.erp.splitdns.ti-dienste.de/Task/200.000.002.096.533.49/$close/"
      } ],
      "entry" : [ {
        "fullUrl" : "urn:uuid:aa4b387d-1c7e-4c8a-a790-b87a80aaf1c5",
        "resource" : {
          "resourceType" : "Composition",
          "id" : "aa4b387d-1c7e-4c8a-a790-b87a80aaf1c5",
          "meta" : {
            "profile" : [ "https://gematik.de/fhir/erp/StructureDefinition/GEM_ERP_PR_Composition|1.4" ]
          },
          "extension" : [ {
            "url" : "https://gematik.de/fhir/erp/StructureDefinition/GEM_ERP_EX_Beneficiary",
            "valueIdentifier" : {
              "system" : "https://gematik.de/fhir/sid/telematik-id",
              "value" : "3-SMC-B-Testkarte-883110000116873"
            }
          } ],
          "status" : "final",
          "type" : {
            "coding" : [ {
              "system" : "https://gematik.de/fhir/erp/CodeSystem/GEM_ERP_CS_DocumentType",
              "code" : "3",
              "display" : "Receipt"
            } ]
          },
          "date" : "2024-02-08T18:16:00.238+00:00",
          "author" : [ {
            "reference" : "urn:uuid:d953d263-da79-404e-8eb8-7ca6691696a2"
          } ],
          "title" : "Quittung",
          "event" : [ {
            "period" : {
              "start" : "2024-02-08T18:15:58.735+00:00",
              "end" : "2024-02-08T18:16:00.238+00:00"
            }
          } ],
          "section" : [ {
            "entry" : [ {
              "reference" : "urn:uuid:313fbaf5-c42c-419a-84df-8538ddec67d9"
            } ]
          } ]
        }
      }, {
        "fullUrl" : "urn:uuid:d953d263-da79-404e-8eb8-7ca6691696a2",
        "resource" : {
          "resourceType" : "Device",
          "id" : "1",
          "meta" : {
            "profile" : [ "https://gematik.de/fhir/erp/StructureDefinition/GEM_ERP_PR_Device|1.4" ]
          },
          "status" : "active",
          "serialNumber" : "1.13.0",
          "deviceName" : [ {
            "name" : "E-Rezept Fachdienst",
            "type" : "user-friendly-name"
          } ],
          "version" : [ {
            "value" : "1.13.0"
          } ],
          "contact" : [ {
            "system" : "email",
            "value" : "betrieb@gematik.de"
          } ]
        }
      }, {
        "fullUrl" : "urn:uuid:313fbaf5-c42c-419a-84df-8538ddec67d9",
        "resource" : {
          "resourceType" : "Binary",
          "id" : "313fbaf5-c42c-419a-84df-8538ddec67d9",
          "meta" : {
            "profile" : [ "https://gematik.de/fhir/erp/StructureDefinition/GEM_ERP_PR_Digest|1.4" ]
          },
          "contentType" : "application/octet-stream",
          "data" : "3FqEJYHLAW484FyFBQGy6yDL3+MQktjY/SwiSSPvFu0="
        }
      } ],
      "signature" : {
        "type" : [ {
          "system" : "urn:iso-astm:E1762-95:2013",
          "code" : "1.2.840.10065.1.12.1.1"
        } ],
        "when" : "2024-02-08T18:16:02.143+00:00",
        "who" : {
          "reference" : "https://erp-ref.zentral.erp.splitdns.ti-dienste.de/Device/1"
        },
        "sigFormat" : "application/pkcs7-mime",
        "data" : ""
      }
    }
  } ]
}