{
  "resourceType": "Bundle",
  "id": "e6ffc289-bcc8-4bb3-94ed-62c29cb5fbd7",
  "type": "collection",
  "timestamp": "2025-03-28T08:07:55.412+00:00",
  "entry": [ {
    "fullUrl": "https://erp-ref.zentral.erp.splitdns.ti-dienste.de/ChargeItem/200.000.002.425.317.90",
    "resource": {
      "resourceType": "ChargeItem",
      "id": "200.000.002.425.317.90",
      "meta": {
        "profile": [ "https://gematik.de/fhir/erpchrg/StructureDefinition/GEM_ERPCHRG_PR_ChargeItem|1.0" ]
      },
      "identifier": [ {
        "system": "https://gematik.de/fhir/erp/NamingSystem/GEM_ERP_NS_AccessCode",
        "value": "cb0bfc760d5b5d9477568aa4fec0be12f76d31c6aced9106bc44f60b49b351ca"
      }, {
        "system": "https://gematik.de/fhir/erp/NamingSystem/GEM_ERP_NS_PrescriptionId",
        "value": "200.000.002.425.317.90"
      } ],
      "status": "billable",
      "code": {
        "coding": [ {
          "system": "http://terminology.hl7.org/CodeSystem/data-absent-reason",
          "code": "not-applicable"
        } ]
      },
      "subject": {
        "identifier": {
          "system": "http://fhir.de/sid/pkv/kvid-10",
          "value": "X110645443"
        }
      },
      "enterer": {
        "identifier": {
          "system": "https://gematik.de/fhir/sid/telematik-id",
          "value": "3-SMC-B-Testkarte--883110000163973"
        }
      },
      "enteredDate": "2025-03-28T08:07:54.903+00:00",
      "supportingInformation": [ {
        "reference": "urn:uuid:c8e50125-0000-0000-0001-000000000000",
        "display": "https://fhir.kbv.de/StructureDefinition/KBV_PR_ERP_Bundle"
      }, {
        "reference": "urn:uuid:c8e50125-0000-0000-0004-000000000000",
        "display": "http://fhir.abda.de/eRezeptAbgabedaten/StructureDefinition/DAV-PKV-PR-ERP-AbgabedatenBundle"
      }, {
        "reference": "urn:uuid:c8e50125-0000-0000-0003-000000000000",
        "display": "https://gematik.de/fhir/erp/StructureDefinition/GEM_ERP_PR_Bundle"
      } ]
    }
  }, {
    "fullUrl": "urn:uuid:c8e50125-0000-0000-0004-000000000000",
    "resource": {
      "resourceType": "Bundle",
      "id": "170475c1-5d2e-434b-942f-8467f16c03ab",
      "meta": {
        "lastUpdated": "2025-03-28T09:07:54.577+01:00",
        "profile": [ "http://fhir.abda.de/eRezeptAbgabedaten/StructureDefinition/DAV-PKV-PR-ERP-AbgabedatenBundle|1.3" ]
      },
      "identifier": {
        "system": "https://gematik.de/fhir/erp/NamingSystem/GEM_ERP_NS_PrescriptionId",
        "value": "200.000.002.425.317.90"
      },
      "type": "document",
      "timestamp": "2025-03-28T09:07:54.577+01:00",
      "entry": [ {
        "fullUrl": "urn:uuid:36a797b2-b562-4878-9a8b-c37fc2953ab6",
        "resource": {
          "resourceType": "Composition",
          "meta": {
            "profile": [ "http://fhir.abda.de/eRezeptAbgabedaten/StructureDefinition/DAV-PKV-PR-ERP-AbgabedatenComposition|1.3" ]
          },
          "status": "final",
          "type": {
            "coding": [ {
              "system": "http://fhir.abda.de/eRezeptAbgabedaten/CodeSystem/DAV-CS-ERP-CompositionTypes",
              "code": "ERezeptAbgabedaten"
            } ]
          },
          "date": "2025-03-28T09:07:54+01:00",
          "author": [ {
            "reference": "urn:uuid:0cb06dbf-5d02-4f17-a60e-3152c7f9a8de"
          } ],
          "title": "ERezeptAbgabedaten",
          "section": [ {
            "title": "Apotheke",
            "entry": [ {
              "reference": "urn:uuid:0cb06dbf-5d02-4f17-a60e-3152c7f9a8de"
            } ]
          }, {
            "title": "Abgabeinformationen",
            "entry": [ {
              "reference": "urn:uuid:0bc05d81-9a99-4477-bd6d-95832ed629f1"
            } ]
          } ]
        }
      }, {
        "fullUrl": "urn:uuid:0cb06dbf-5d02-4f17-a60e-3152c7f9a8de",
        "resource": {
          "resourceType": "Organization",
          "meta": {
            "profile": [ "http://fhir.abda.de/eRezeptAbgabedaten/StructureDefinition/DAV-PKV-PR-ERP-Apotheke|1.3" ]
          },
          "identifier": [ {
            "system": "http://fhir.de/sid/arge-ik/iknr",
            "value": "381989940"
          } ],
          "name": "Apotheke Rich Kidd",
          "address": [ {
            "type": "physical",
            "line": [ "Schwalbenweg 34" ],
            "_line": [ {
              "extension": [ {
                "url": "http://hl7.org/fhir/StructureDefinition/iso21090-ADXP-houseNumber",
                "valueString": "34"
              }, {
                "url": "http://hl7.org/fhir/StructureDefinition/iso21090-ADXP-streetName",
                "valueString": "Schwalbenweg"
              } ]
            } ],
            "city": "Bad Linnea",
            "postalCode": "14051",
            "country": "A"
          } ]
        }
      }, {
        "fullUrl": "urn:uuid:4f716c21-9b76-428f-bd9f-424ac83b3ca6",
        "resource": {
          "resourceType": "Invoice",
          "meta": {
            "profile": [ "http://fhir.abda.de/eRezeptAbgabedaten/StructureDefinition/DAV-PKV-PR-ERP-Abrechnungszeilen|1.3" ]
          },
          "status": "issued",
          "type": {
            "coding": [ {
              "system": "http://fhir.abda.de/eRezeptAbgabedaten/CodeSystem/DAV-CS-ERP-InvoiceTyp",
              "code": "Abrechnungszeilen"
            } ]
          },
          "lineItem": [ {
            "sequence": 1,
            "chargeItemCodeableConcept": {
              "coding": [ {
                "system": "http://fhir.de/CodeSystem/ifa/pzn",
                "code": "11828417"
              } ],
              "text": "Ginkobil® Filmtabletten"
            },
            "priceComponent": [ {
              "extension": [ {
                "url": "http://fhir.abda.de/eRezeptAbgabedaten/StructureDefinition/DAV-EX-ERP-KostenVersicherter",
                "extension": [ {
                  "url": "Kategorie",
                  "valueCodeableConcept": {
                    "coding": [ {
                      "system": "http://fhir.abda.de/eRezeptAbgabedaten/CodeSystem/DAV-PKV-CS-ERP-KostenVersicherterKategorie",
                      "code": "0"
                    } ]
                  }
                }, {
                  "url": "Kostenbetrag",
                  "valueMoney": {
                    "value": 306.36,
                    "currency": "EUR"
                  }
                } ]
              }, {
                "url": "http://fhir.abda.de/eRezeptAbgabedaten/StructureDefinition/DAV-EX-ERP-MwStSatz",
                "valueDecimal": 25.25
              } ],
              "type": "informational",
              "factor": 1,
              "amount": {
                "value": 330.76,
                "currency": "EUR"
              }
            } ]
          } ],
          "totalGross": {
            "extension": [ {
              "url": "http://fhir.abda.de/eRezeptAbgabedaten/StructureDefinition/DAV-EX-ERP-Gesamtzuzahlung",
              "valueMoney": {
                "value": 306.36,
                "currency": "EUR"
              }
            } ],
            "value": 330.76,
            "currency": "EUR"
          }
        }
      }, {
        "fullUrl": "urn:uuid:0bc05d81-9a99-4477-bd6d-95832ed629f1",
        "resource": {
          "resourceType": "MedicationDispense",
          "meta": {
            "profile": [ "http://fhir.abda.de/eRezeptAbgabedaten/StructureDefinition/DAV-PKV-PR-ERP-Abgabeinformationen|1.3" ]
          },
          "extension": [ {
            "url": "http://fhir.abda.de/eRezeptAbgabedaten/StructureDefinition/DAV-PKV-EX-ERP-AbrechnungsTyp",
            "valueCodeableConcept": {
              "coding": [ {
                "system": "http://fhir.abda.de/eRezeptAbgabedaten/CodeSystem/DAV-PKV-CS-ERP-AbrechnungsTyp",
                "code": "1"
              } ]
            }
          }, {
            "url": "http://fhir.abda.de/eRezeptAbgabedaten/StructureDefinition/DAV-EX-ERP-Abrechnungszeilen",
            "valueReference": {
              "reference": "urn:uuid:4f716c21-9b76-428f-bd9f-424ac83b3ca6"
            }
          } ],
          "status": "completed",
          "medicationCodeableConcept": {
            "coding": [ {
              "system": "http://terminology.hl7.org/CodeSystem/data-absent-reason",
              "code": "not-applicable"
            } ]
          },
          "performer": [ {
            "actor": {
              "reference": "urn:uuid:0cb06dbf-5d02-4f17-a60e-3152c7f9a8de"
            }
          } ],
          "authorizingPrescription": [ {
            "identifier": {
              "system": "https://gematik.de/fhir/erp/NamingSystem/GEM_ERP_NS_PrescriptionId",
              "value": "200.000.002.425.317.90"
            }
          } ],
          "type": {
            "coding": [ {
              "system": "http://fhir.abda.de/eRezeptAbgabedaten/CodeSystem/DAV-CS-ERP-MedicationDispenseTyp",
              "code": "Abgabeinformationen"
            } ]
          },
          "whenHandedOver": "2025-03-28"
        }
      } ],
      "signature": {
        "type": [ {
          "system": "urn:iso-astm:E1762-95:2013",
          "code": "1.2.840.10065.1.12.1.1"
        } ],
        "when": "2025-03-28T08:07:55.446+00:00",
        "who": {
          "reference": "https://erp-ref.zentral.erp.splitdns.ti-dienste.de/Device/1"
        },
        "sigFormat": "application/pkcs7-mime",
        "data": ""
      }
    }
  }, {
    "fullUrl": "urn:uuid:c8e50125-0000-0000-0001-000000000000",
    "resource": {
      "resourceType": "Bundle",
      "id": "96b31ae5-a87f-4554-86ed-0d6d6699b73a",
      "meta": {
        "profile": [ "https://fhir.kbv.de/StructureDefinition/KBV_PR_ERP_Bundle|1.1.0" ]
      },
      "identifier": {
        "system": "https://gematik.de/fhir/erp/NamingSystem/GEM_ERP_NS_PrescriptionId",
        "value": "200.000.002.425.317.90"
      },
      "type": "document",
      "timestamp": "2025-03-28T09:07:53.511+01:00",
      "entry": [ {
        "fullUrl": "https://pvs.gematik.de/fhir/Composition/5b5e4b03-0a71-4235-95fd-241daf9d40a2",
        "resource": {
          "resourceType": "Composition",
          "id": "5b5e4b03-0a71-4235-95fd-241daf9d40a2",
          "meta": {
            "profile": [ "https://fhir.kbv.de/StructureDefinition/KBV_PR_ERP_Composition|1.1.0" ]
          },
          "extension": [ {
            "url": "https://fhir.kbv.de/StructureDefinition/KBV_EX_FOR_Legal_basis",
            "valueCoding": {
              "system": "https://fhir.kbv.de/CodeSystem/KBV_CS_SFHIR_KBV_STATUSKENNZEICHEN",
              "code": "00"
            }
          } ],
          "status": "final",
          "type": {
            "coding": [ {
              "system": "https://fhir.kbv.de/CodeSystem/KBV_CS_SFHIR_KBV_FORMULAR_ART",
              "code": "e16A"
            } ]
          },
          "subject": {
            "reference": "Patient/a2fbcc4d-9cec-4bc4-ab82-5bea9821a5c2"
          },
          "date": "2025-03-28T09:07:53+01:00",
          "author": [ {
            "type": "Device",
            "identifier": {
              "system": "https://fhir.kbv.de/NamingSystem/KBV_NS_FOR_Pruefnummer",
              "value": "GEMATIK/410/2109/36/123"
            }
          }, {
            "reference": "Practitioner/4e6f64ba-cde6-443d-9713-7ae87fc3660d",
            "type": "Practitioner"
          } ],
          "title": "elektronische Arzneimittelverordnung",
          "custodian": {
            "reference": "Organization/09693a88-f85d-4a2e-a32b-677998f85192"
          },
          "section": [ {
            "code": {
              "coding": [ {
                "system": "https://fhir.kbv.de/CodeSystem/KBV_CS_ERP_Section_Type",
                "code": "Coverage"
              } ]
            },
            "entry": [ {
              "reference": "Coverage/1d74d547-f4bc-4da9-bd7c-da1a60a463f6"
            } ]
          }, {
            "code": {
              "coding": [ {
                "system": "https://fhir.kbv.de/CodeSystem/KBV_CS_ERP_Section_Type",
                "code": "Prescription"
              } ]
            },
            "entry": [ {
              "reference": "MedicationRequest/c7b13b4b-07b7-4abd-8e28-127841263a33"
            } ]
          } ]
        }
      }, {
        "fullUrl": "https://pvs.gematik.de/fhir/Coverage/1d74d547-f4bc-4da9-bd7c-da1a60a463f6",
        "resource": {
          "resourceType": "Coverage",
          "id": "1d74d547-f4bc-4da9-bd7c-da1a60a463f6",
          "meta": {
            "profile": [ "https://fhir.kbv.de/StructureDefinition/KBV_PR_FOR_Coverage|1.1.0" ]
          },
          "extension": [ {
            "url": "http://fhir.de/StructureDefinition/gkv/besondere-personengruppe",
            "valueCoding": {
              "system": "https://fhir.kbv.de/CodeSystem/KBV_CS_SFHIR_KBV_PERSONENGRUPPE",
              "code": "00"
            }
          }, {
            "url": "http://fhir.de/StructureDefinition/gkv/dmp-kennzeichen",
            "valueCoding": {
              "system": "https://fhir.kbv.de/CodeSystem/KBV_CS_SFHIR_KBV_DMP",
              "code": "00"
            }
          }, {
            "url": "http://fhir.de/StructureDefinition/gkv/wop",
            "valueCoding": {
              "system": "https://fhir.kbv.de/CodeSystem/KBV_CS_SFHIR_ITA_WOP",
              "code": "50"
            }
          }, {
            "url": "http://fhir.de/StructureDefinition/gkv/versichertenart",
            "valueCoding": {
              "system": "https://fhir.kbv.de/CodeSystem/KBV_CS_SFHIR_KBV_VERSICHERTENSTATUS",
              "code": "1"
            }
          } ],
          "status": "active",
          "type": {
            "coding": [ {
              "system": "http://fhir.de/CodeSystem/versicherungsart-de-basis",
              "code": "PKV"
            } ]
          },
          "beneficiary": {
            "reference": "Patient/1ae55dda-9944-4da2-8a93-96c5e33f5bc4"
          },
          "payor": [ {
            "identifier": {
              "system": "http://fhir.de/sid/arge-ik/iknr",
              "value": "168140346"
            },
            "display": "Allianz"
          } ]
        }
      }, {
        "fullUrl": "https://pvs.gematik.de/fhir/Patient/a2fbcc4d-9cec-4bc4-ab82-5bea9821a5c2",
        "resource": {
          "resourceType": "Patient",
          "id": "a2fbcc4d-9cec-4bc4-ab82-5bea9821a5c2",
          "meta": {
            "profile": [ "https://fhir.kbv.de/StructureDefinition/KBV_PR_FOR_Patient|1.1.0" ]
          },
          "identifier": [ {
            "type": {
              "coding": [ {
                "system": "http://fhir.de/CodeSystem/identifier-type-de-basis",
                "code": "PKV"
              } ]
            },
            "system": "http://fhir.de/sid/pkv/kvid-10",
            "value": "X110645443"
          } ],
          "name": [ {
            "use": "official",
            "family": "Angermänn",
            "_family": {
              "extension": [ {
                "url": "http://hl7.org/fhir/StructureDefinition/humanname-own-name",
                "valueString": "Angermänn"
              } ]
            },
            "given": [ "Günther" ]
          } ],
          "birthDate": "1973-02-03",
          "address": [ {
            "type": "both",
            "line": [ "Grunewaldstr. 58b" ],
            "_line": [ {
              "extension": [ {
                "url": "http://hl7.org/fhir/StructureDefinition/iso21090-ADXP-houseNumber",
                "valueString": "58b"
              }, {
                "url": "http://hl7.org/fhir/StructureDefinition/iso21090-ADXP-streetName",
                "valueString": "Grunewaldstr."
              } ]
            } ],
            "city": "Groß Bennogrün",
            "postalCode": "00904",
            "country": "D"
          } ]
        }
      }, {
        "fullUrl": "https://pvs.gematik.de/fhir/Practitioner/4e6f64ba-cde6-443d-9713-7ae87fc3660d",
        "resource": {
          "resourceType": "Practitioner",
          "id": "4e6f64ba-cde6-443d-9713-7ae87fc3660d",
          "meta": {
            "profile": [ "https://fhir.kbv.de/StructureDefinition/KBV_PR_FOR_Practitioner|1.1.0" ]
          },
          "identifier": [ {
            "type": {
              "coding": [ {
                "system": "http://terminology.hl7.org/CodeSystem/v2-0203",
                "code": "LANR"
              } ]
            },
            "system": "https://fhir.kbv.de/NamingSystem/KBV_NS_Base_ANR",
            "value": "754982047"
          } ],
          "name": [ {
            "use": "official",
            "family": "Schraßer",
            "_family": {
              "extension": [ {
                "url": "http://hl7.org/fhir/StructureDefinition/humanname-own-name",
                "valueString": "Schraßer"
              } ]
            },
            "given": [ "Dr." ],
            "prefix": [ "Dr." ],
            "_prefix": [ {
              "extension": [ {
                "url": "http://hl7.org/fhir/StructureDefinition/iso21090-EN-qualifier",
                "valueCode": "AC"
              } ]
            } ]
          } ],
          "qualification": [ {
            "code": {
              "coding": [ {
                "system": "https://fhir.kbv.de/CodeSystem/KBV_CS_FOR_Qualification_Type",
                "code": "00"
              } ]
            }
          }, {
            "code": {
              "coding": [ {
                "system": "https://fhir.kbv.de/CodeSystem/KBV_CS_FOR_Berufsbezeichnung",
                "code": "Berufsbezeichnung"
              } ],
              "text": "Super-Facharzt für alles Mögliche"
            }
          } ]
        }
      }, {
        "fullUrl": "https://pvs.gematik.de/fhir/Organization/09693a88-f85d-4a2e-a32b-677998f85192",
        "resource": {
          "resourceType": "Organization",
          "id": "09693a88-f85d-4a2e-a32b-677998f85192",
          "meta": {
            "profile": [ "https://fhir.kbv.de/StructureDefinition/KBV_PR_FOR_Organization|1.1.0" ]
          },
          "identifier": [ {
            "type": {
              "coding": [ {
                "system": "http://terminology.hl7.org/CodeSystem/v2-0203",
                "code": "BSNR"
              } ]
            },
            "system": "https://fhir.kbv.de/NamingSystem/KBV_NS_Base_BSNR",
            "value": "026369106"
          } ],
          "name": "Arztpraxis Schraßer",
          "telecom": [ {
            "system": "phone",
            "value": "(03581) 6654160"
          }, {
            "system": "email",
            "value": "amy.humbert@voelkel.org"
          } ],
          "address": [ {
            "type": "both",
            "line": [ "Entenpfuhl 201" ],
            "_line": [ {
              "extension": [ {
                "url": "http://hl7.org/fhir/StructureDefinition/iso21090-ADXP-houseNumber",
                "valueString": "201"
              }, {
                "url": "http://hl7.org/fhir/StructureDefinition/iso21090-ADXP-streetName",
                "valueString": "Entenpfuhl"
              } ]
            } ],
            "city": "Timmermannhagen",
            "postalCode": "63515",
            "country": "D"
          } ]
        }
      }, {
        "fullUrl": "https://pvs.gematik.de/fhir/Medication/b99f35c5-c621-49ec-94e5-4884202ac121",
        "resource": {
          "resourceType": "Medication",
          "id": "b99f35c5-c621-49ec-94e5-4884202ac121",
          "meta": {
            "profile": [ "https://fhir.kbv.de/StructureDefinition/KBV_PR_ERP_Medication_PZN|1.1.0" ]
          },
          "extension": [ {
            "url": "https://fhir.kbv.de/StructureDefinition/KBV_EX_Base_Medication_Type",
            "valueCodeableConcept": {
              "coding": [ {
                "system": "http://snomed.info/sct",
                "version": "http://snomed.info/sct/900000000000207008/version/20220331",
                "code": "763158003",
                "display": "Medicinal product (product)"
              } ]
            }
          }, {
            "url": "https://fhir.kbv.de/StructureDefinition/KBV_EX_ERP_Medication_Category",
            "valueCoding": {
              "system": "https://fhir.kbv.de/CodeSystem/KBV_CS_ERP_Medication_Category",
              "code": "00"
            }
          }, {
            "url": "https://fhir.kbv.de/StructureDefinition/KBV_EX_ERP_Medication_Vaccine",
            "valueBoolean": false
          }, {
            "url": "http://fhir.de/StructureDefinition/normgroesse",
            "valueCode": "NB"
          } ],
          "code": {
            "coding": [ {
              "system": "http://fhir.de/CodeSystem/ifa/pzn",
              "code": "23378020"
            } ],
            "text": "Schmerzmittel"
          },
          "form": {
            "coding": [ {
              "system": "https://fhir.kbv.de/CodeSystem/KBV_CS_SFHIR_KBV_DARREICHUNGSFORM",
              "code": "TAB"
            } ]
          },
          "amount": {
            "numerator": {
              "extension": [ {
                "url": "https://fhir.kbv.de/StructureDefinition/KBV_EX_ERP_Medication_PackagingSize",
                "valueString": "1"
              } ],
              "unit": "Stk"
            },
            "denominator": {
              "value": 1
            }
          }
        }
      }, {
        "fullUrl": "https://pvs.gematik.de/fhir/MedicationRequest/c7b13b4b-07b7-4abd-8e28-127841263a33",
        "resource": {
          "resourceType": "MedicationRequest",
          "id": "c7b13b4b-07b7-4abd-8e28-127841263a33",
          "meta": {
            "profile": [ "https://fhir.kbv.de/StructureDefinition/KBV_PR_ERP_Prescription|1.1.0" ]
          },
          "extension": [ {
            "url": "https://fhir.kbv.de/StructureDefinition/KBV_EX_ERP_BVG",
            "valueBoolean": false
          }, {
            "url": "https://fhir.kbv.de/StructureDefinition/KBV_EX_ERP_EmergencyServicesFee",
            "valueBoolean": false
          }, {
            "url": "https://fhir.kbv.de/StructureDefinition/KBV_EX_ERP_Multiple_Prescription",
            "extension": [ {
              "url": "Kennzeichen",
              "valueBoolean": false
            } ]
          }, {
            "url": "https://fhir.kbv.de/StructureDefinition/KBV_EX_FOR_StatusCoPayment",
            "valueCoding": {
              "system": "https://fhir.kbv.de/CodeSystem/KBV_CS_FOR_StatusCoPayment",
              "code": "0"
            }
          } ],
          "status": "active",
          "intent": "order",
          "medicationReference": {
            "reference": "Medication/b99f35c5-c621-49ec-94e5-4884202ac121"
          },
          "subject": {
            "reference": "Patient/a2fbcc4d-9cec-4bc4-ab82-5bea9821a5c2"
          },
          "authoredOn": "2025-03-28",
          "requester": {
            "reference": "Practitioner/4e6f64ba-cde6-443d-9713-7ae87fc3660d"
          },
          "insurance": [ {
            "reference": "Coverage/1d74d547-f4bc-4da9-bd7c-da1a60a463f6"
          } ],
          "dosageInstruction": [ {
            "extension": [ {
              "url": "https://fhir.kbv.de/StructureDefinition/KBV_EX_ERP_DosageFlag",
              "valueBoolean": true
            } ],
            "text": "0-0-2-2-2"
          } ],
          "dispenseRequest": {
            "quantity": {
              "value": 1,
              "system": "http://unitsofmeasure.org",
              "code": "{Package}"
            }
          },
          "substitution": {
            "allowedBoolean": false
          }
        }
      } ],
      "signature": {
        "type": [ {
          "system": "urn:iso-astm:E1762-95:2013",
          "code": "1.2.840.10065.1.12.1.1"
        } ],
        "when": "2025-03-28T08:07:55.443+00:00",
        "who": {
          "reference": "https://erp-ref.zentral.erp.splitdns.ti-dienste.de/Device/1"
        },
        "sigFormat": "application/pkcs7-mime",
        "data": ""
      }
    }
  }, {
    "fullUrl": "urn:uuid:c8e50125-0000-0000-0003-000000000000",
    "resource": {
      "resourceType": "Bundle",
      "id": "c8e50125-0000-0000-0003-000000000000",
      "meta": {
        "profile": [ "https://gematik.de/fhir/erp/StructureDefinition/GEM_ERP_PR_Bundle|1.4" ]
      },
      "identifier": {
        "system": "https://gematik.de/fhir/erp/NamingSystem/GEM_ERP_NS_PrescriptionId",
        "value": "200.000.002.425.317.90"
      },
      "type": "document",
      "timestamp": "2025-03-28T08:07:54.392+00:00",
      "link": [ {
        "relation": "self",
        "url": "https://erp-ref.zentral.erp.splitdns.ti-dienste.de/Task/200.000.002.425.317.90/$close/"
      } ],
      "entry": [ {
        "fullUrl": "urn:uuid:3b216b1c-b1a7-48ec-adc6-0fb701c5a8a0",
        "resource": {
          "resourceType": "Composition",
          "id": "3b216b1c-b1a7-48ec-adc6-0fb701c5a8a0",
          "meta": {
            "profile": [ "https://gematik.de/fhir/erp/StructureDefinition/GEM_ERP_PR_Composition|1.4" ]
          },
          "extension": [ {
            "url": "https://gematik.de/fhir/erp/StructureDefinition/GEM_ERP_EX_Beneficiary",
            "valueIdentifier": {
              "system": "https://gematik.de/fhir/sid/telematik-id",
              "value": "3-SMC-B-Testkarte--883110000163973"
            }
          } ],
          "status": "final",
          "type": {
            "coding": [ {
              "system": "https://gematik.de/fhir/erp/CodeSystem/GEM_ERP_CS_DocumentType",
              "code": "3",
              "display": "Receipt"
            } ]
          },
          "date": "2025-03-28T08:07:54.383+00:00",
          "author": [ {
            "reference": "urn:uuid:7ca3e8cf-54c7-4d2d-9ab8-b5416f6fcabe"
          } ],
          "title": "Quittung",
          "event": [ {
            "period": {
              "start": "2025-03-28T08:07:54.056+00:00",
              "end": "2025-03-28T08:07:54.383+00:00"
            }
          } ],
          "section": [ {
            "entry": [ {
              "reference": "urn:uuid:c0d88732-c011-4a00-8d23-33dfc0f43486"
            } ]
          } ]
        }
      }, {
        "fullUrl": "urn:uuid:7ca3e8cf-54c7-4d2d-9ab8-b5416f6fcabe",
        "resource": {
          "resourceType": "Device",
          "id": "1",
          "meta": {
            "profile": [ "https://gematik.de/fhir/erp/StructureDefinition/GEM_ERP_PR_Device|1.4" ]
          },
          "status": "active",
          "serialNumber": "1.17.0",
          "deviceName": [ {
            "name": "E-Rezept Fachdienst",
            "type": "user-friendly-name"
          } ],
          "version": [ {
            "value": "1.17.0"
          } ],
          "contact": [ {
            "system": "email",
            "value": "betrieb@gematik.de"
          } ]
        }
      }, {
        "fullUrl": "urn:uuid:c0d88732-c011-4a00-8d23-33dfc0f43486",
        "resource": {
          "resourceType": "Binary",
          "id": "c0d88732-c011-4a00-8d23-33dfc0f43486",
          "meta": {
            "versionId": "1",
            "profile": [ "https://gematik.de/fhir/erp/StructureDefinition/GEM_ERP_PR_Digest|1.4" ]
          },
          "contentType": "application/octet-stream",
          "data": "uwsisgPyg6Jk3XPONXhlkXnAeBxYN74aXEOP9YHd7To="
        }
      } ],
      "signature": {
        "type": [ {
          "system": "urn:iso-astm:E1762-95:2013",
          "code": "1.2.840.10065.1.12.1.1"
        } ],
        "when": "2025-03-28T08:07:55.444+00:00",
        "who": {
          "reference": "https://erp-ref.zentral.erp.splitdns.ti-dienste.de/Device/1"
        },
        "sigFormat": "application/pkcs7-mime",
        "data": ""
      }
    }
  } ]
}