{
  "resourceType": "Bundle",
  "id": "ec6059d9-72a0-4ba3-8535-6ffcc0c4279b",
  "meta": {
    "profile": [
      "https://fhir.kbv.de/StructureDefinition/KBV_PR_ERP_Bundle|1.3"
    ]
  },
  "identifier": {
    "system": "https://gematik.de/fhir/erp/NamingSystem/GEM_ERP_NS_PrescriptionId",
    "value": "160.100.000.000.018.85"
  },
  "type": "document",
  "timestamp": "2024-05-20T08:30:00+00:00",
  "entry": [
    {
      "fullUrl": "http://pvs.praxis.local/fhir/Composition/82fd748e-b721-491d-8e7d-681848e49a16",
      "resource": {
        "resourceType": "Composition",
        "id": "82fd748e-b721-491d-8e7d-681848e49a16",
        "meta": {
          "profile": [
            "https://fhir.kbv.de/StructureDefinition/KBV_PR_ERP_Composition|1.3"
          ]
        },
        "extension": [
          {
            "url": "https://fhir.kbv.de/StructureDefinition/KBV_EX_FOR_Legal_basis",
            "valueCoding": {
              "system": "https://fhir.kbv.de/CodeSystem/KBV_CS_SFHIR_KBV_STATUSKENNZEICHEN",
              "code": "00"
            }
          }
        ],
        "status": "final",
        "type": {
          "coding": [
            {
              "system": "https://fhir.kbv.de/CodeSystem/KBV_CS_SFHIR_KBV_FORMULAR_ART",
              "code": "e16A"
            }
          ]
        },
        "subject": {
          "reference": "Patient/30635f5d-c233-4500-94e8-6414940236aa"
        },
        "date": "2024-05-20T08:00:00Z",
        "author": [
          {
            "reference": "Practitioner/667ffd79-42a3-4002-b7ca-6b9098f20ccb",
            "type": "Practitioner"
          },
          {
            "type": "Device",
            "identifier": {
              "system": "https://fhir.kbv.de/NamingSystem/KBV_NS_FOR_Pruefnummer",
              "value": "Y/400/2107/36/999"
            }
          }
        ],
        "title": "elektronische Arzneimittelverordnung",
        "attester": [
          {
            "mode": "legal",
            "party": {
              "reference": "Practitioner/d6f3b55d-3095-4655-96dc-da3bec21271c"
            }
          }
        ],
        "custodian": {
          "reference": "Organization/2a555cd3-0543-483c-88b3-f68647620962"
        },
        "section": [
          {
            "code": {
              "coding": [
                {
                  "system": "https://fhir.kbv.de/CodeSystem/KBV_CS_ERP_Section_Type",
                  "code": "Prescription"
                }
              ]
            },
            "entry": [
              {
                "reference": "MedicationRequest/b12e7181-39dd-4864-a63f-74bb81d643a1"
              }
            ]
          },
          {
            "code": {
              "coding": [
                {
                  "system": "https://fhir.kbv.de/CodeSystem/KBV_CS_ERP_Section_Type",
                  "code": "Coverage"
                }
              ]
            },
            "entry": [
              {
                "reference": "Coverage/e51239e1-ba74-48e0-97fb-9754d2b05c60"
              }
            ]
          }
        ]
      }
    },
    {
      "fullUrl": "http://pvs.praxis.local/fhir/MedicationRequest/b12e7181-39dd-4864-a63f-74bb81d643a1",
      "resource": {
        "resourceType": "MedicationRequest",
        "id": "b12e7181-39dd-4864-a63f-74bb81d643a1",
        "meta": {
          "profile": [
            "https://fhir.kbv.de/StructureDefinition/KBV_PR_ERP_Prescription|1.3"
          ]
        },
        "extension": [
          {
            "url": "https://fhir.kbv.de/StructureDefinition/KBV_EX_FOR_StatusCoPayment",
            "valueCoding": {
              "system": "https://fhir.kbv.de/CodeSystem/KBV_CS_FOR_StatusCoPayment",
              "code": "0"
            }
          },
          {
            "url": "https://fhir.kbv.de/StructureDefinition/KBV_EX_ERP_EmergencyServicesFee",
            "valueBoolean": false
          },
          {
            "url": "https://fhir.kbv.de/StructureDefinition/KBV_EX_FOR_SER",
            "valueBoolean": false
          },
          {
            "extension": [
              {
                "url": "Kennzeichen",
                "valueBoolean": false
              }
            ],
            "url": "https://fhir.kbv.de/StructureDefinition/KBV_EX_ERP_Multiple_Prescription"
          }
        ],
        "status": "active",
        "intent": "order",
        "medicationReference": {
          "reference": "Medication/aad9fb8b-2ec2-4cda-874a-82565c9d45ef"
        },
        "subject": {
          "reference": "Patient/30635f5d-c233-4500-94e8-6414940236aa"
        },
        "authoredOn": "2024-05-20",
        "requester": {
          "reference": "Practitioner/667ffd79-42a3-4002-b7ca-6b9098f20ccb"
        },
        "insurance": [
          {
            "reference": "Coverage/e51239e1-ba74-48e0-97fb-9754d2b05c60"
          }
        ],
        "dosageInstruction": [
          {
            "extension": [
              {
                "url": "https://fhir.kbv.de/StructureDefinition/KBV_EX_ERP_DosageFlag",
                "valueBoolean": false
              }
            ]
          }
        ],
        "dispenseRequest": {
          "quantity": {
            "value": 1,
            "unit": "Packung"
          }
        }
      }
    },
    {
      "fullUrl": "http://pvs.praxis.local/fhir/Medication/aad9fb8b-2ec2-4cda-874a-82565c9d45ef",
      "resource": {
        "resourceType": "Medication",
        "id": "aad9fb8b-2ec2-4cda-874a-82565c9d45ef",
        "meta": {
          "profile": [
            "https://fhir.kbv.de/StructureDefinition/KBV_PR_ERP_Medication_Ingredient|1.3"
          ]
        },
        "extension": [
          {
            "url": "https://fhir.kbv.de/StructureDefinition/KBV_EX_ERP_Medication_Category",
            "valueCoding": {
              "system": "https://fhir.kbv.de/CodeSystem/KBV_CS_ERP_Medication_Category",
              "code": "00"
            }
          },
          {
            "url": "https://fhir.kbv.de/StructureDefinition/KBV_EX_ERP_Medication_Vaccine",
            "valueBoolean": false
          }
        ],
        "code": {
          "coding": [
            {
              "system": "https://fhir.kbv.de/CodeSystem/KBV_CS_ERP_Medication_Type",
              "code": "wirkstoff"
            }
          ]
        },
        "form": {
          "text": "Tabletten"
        },
        "amount": {
          "numerator": {
            "extension": [
              {
                "url": "https://fhir.kbv.de/StructureDefinition/KBV_EX_ERP_Medication_PackagingSize",
                "valueString": "20"
              }
            ],
            "unit": "Stück"
          },
          "denominator": {
            "value": 1
          }
        },
        "ingredient": [
          {
            "itemCodeableConcept": {
              "coding": [
                {
                  "system": "http://fhir.de/CodeSystem/ask",
                  "code": "5682"
                }
              ],
              "text": "Ibuprofen"
            },
            "strength": {
              "numerator": {
                "value": 600,
                "unit": "mg"
              },
              "denominator": {
                "value": 1,
                "unit": "Stück"
              }
            }
          }
        ]
      }
    },
    {
      "fullUrl": "http://pvs.praxis.local/fhir/Patient/30635f5d-c233-4500-94e8-6414940236aa",
      "resource": {
        "resourceType": "Patient",
        "id": "30635f5d-c233-4500-94e8-6414940236aa",
        "meta": {
          "profile": [
            "https://fhir.kbv.de/StructureDefinition/KBV_PR_FOR_Patient|1.2"
          ]
        },
        "identifier": [
          {
            "type": {
              "coding": [
                {
                  "system": "http://fhir.de/CodeSystem/identifier-type-de-basis",
                  "code": "KVZ10"
                }
              ]
            },
            "system": "http://fhir.de/sid/gkv/kvid-10",
            "value": "K220645122"
          }
        ],
        "name": [
          {
            "use": "official",
            "family": "Schuhmann",
            "_family": {
              "extension": [
                {
                  "url": "http://hl7.org/fhir/StructureDefinition/humanname-own-name",
                  "valueString": "Schuhmann"
                }
              ]
            },
            "given": [
              "Sahra"
            ]
          }
        ],
        "birthDate": "1970-12-24",
        "address": [
          {
            "type": "both",
            "line": [
              "Berliner Straße 1"
            ],
            "_line": [
              {
                "extension": [
                  {
                    "url": "http://hl7.org/fhir/StructureDefinition/iso21090-ADXP-houseNumber",
                    "valueString": "1"
                  },
                  {
                    "url": "http://hl7.org/fhir/StructureDefinition/iso21090-ADXP-streetName",
                    "valueString": "Berliner Straße"
                  }
                ]
              }
            ],
            "city": "Husum",
            "postalCode": "25813",
            "country": "D"
          }
        ]
      }
    },
    {
      "fullUrl": "http://pvs.praxis.local/fhir/Practitioner/667ffd79-42a3-4002-b7ca-6b9098f20ccb",
      "resource": {
        "resourceType": "Practitioner",
        "id": "667ffd79-42a3-4002-b7ca-6b9098f20ccb",
        "meta": {
          "profile": [
            "https://fhir.kbv.de/StructureDefinition/KBV_PR_FOR_Practitioner|1.2"
          ]
        },
        "identifier": [
          {
            "type": {
              "coding": [
                {
                  "system": "http://terminology.hl7.org/CodeSystem/v2-0203",
                  "code": "LANR"
                }
              ]
            },
            "system": "https://fhir.kbv.de/NamingSystem/KBV_NS_Base_ANR",
            "value": "987654423"
          }
        ],
        "name": [
          {
            "use": "official",
            "family": "Schneider",
            "_family": {
              "extension": [
                {
                  "url": "http://hl7.org/fhir/StructureDefinition/humanname-own-name",
                  "valueString": "Schneider"
                }
              ]
            },
            "given": [
              "Emma"
            ],
            "prefix": [
              "Dr. med."
            ],
            "_prefix": [
              {
                "extension": [
                  {
                    "url": "http://hl7.org/fhir/StructureDefinition/iso21090-EN-qualifier",
                    "valueCode": "AC"
                  }
                ]
              }
            ]
          }
        ],
        "qualification": [
          {
            "code": {
              "coding": [
                {
                  "system": "https://fhir.kbv.de/CodeSystem/KBV_CS_FOR_Qualification_Type",
                  "code": "04"
                }
              ]
            }
          },
          {
            "code": {
              "coding": [
                {
                  "system": "https://fhir.kbv.de/CodeSystem/KBV_CS_FOR_Berufsbezeichnung",
                  "code": "Berufsbezeichnung"
                }
              ],
              "text": "Fachärztin für Innere Medizin"
            }
          }
        ]
      }
    },
    {
      "fullUrl": "http://pvs.praxis.local/fhir/Organization/2a555cd3-0543-483c-88b3-f68647620962",
      "resource": {
        "resourceType": "Organization",
        "id": "2a555cd3-0543-483c-88b3-f68647620962",
        "meta": {
          "profile": [
            "https://fhir.kbv.de/StructureDefinition/KBV_PR_FOR_Organization|1.2"
          ]
        },
        "identifier": [
          {
            "type": {
              "coding": [
                {
                  "system": "http://terminology.hl7.org/CodeSystem/v2-0203",
                  "code": "BSNR"
                }
              ]
            },
            "system": "https://fhir.kbv.de/NamingSystem/KBV_NS_Base_BSNR",
            "value": "724444400"
          }
        ],
        "name": "Hausarztpraxis",
        "telecom": [
          {
            "system": "phone",
            "value": "030321654987"
          },
          {
            "system": "email",
            "value": "hausarztpraxis@e-mail.de"
          }
        ],
        "address": [
          {
            "type": "both",
            "line": [
              "Herbert-Lewin-Platz 2",
              "Erdgeschoss"
            ],
            "_line": [
              {
                "extension": [
                  {
                    "url": "http://hl7.org/fhir/StructureDefinition/iso21090-ADXP-houseNumber",
                    "valueString": "2"
                  },
                  {
                    "url": "http://hl7.org/fhir/StructureDefinition/iso21090-ADXP-streetName",
                    "valueString": "Herbert-Lewin-Platz"
                  }
                ]
              },
              {
                "extension": [
                  {
                    "url": "http://hl7.org/fhir/StructureDefinition/iso21090-ADXP-additionalLocator",
                    "valueString": "Erdgeschoss"
                  }
                ]
              }
            ],
            "city": "Berlin",
            "postalCode": "10623",
            "country": "D"
          }
        ]
      }
    },
    {
      "fullUrl": "http://pvs.praxis.local/fhir/Coverage/e51239e1-ba74-48e0-97fb-9754d2b05c60",
      "resource": {
        "resourceType": "Coverage",
        "id": "e51239e1-ba74-48e0-97fb-9754d2b05c60",
        "meta": {
          "profile": [
            "https://fhir.kbv.de/StructureDefinition/KBV_PR_FOR_Coverage|1.2"
          ]
        },
        "extension": [
          {
            "url": "http://fhir.de/StructureDefinition/gkv/besondere-personengruppe",
            "valueCoding": {
              "system": "https://fhir.kbv.de/CodeSystem/KBV_CS_SFHIR_KBV_PERSONENGRUPPE",
              "code": "00"
            }
          },
          {
            "url": "http://fhir.de/StructureDefinition/gkv/dmp-kennzeichen",
            "valueCoding": {
              "system": "https://fhir.kbv.de/CodeSystem/KBV_CS_SFHIR_KBV_DMP",
              "code": "00"
            }
          },
          {
            "url": "http://fhir.de/StructureDefinition/gkv/wop",
            "valueCoding": {
              "system": "https://fhir.kbv.de/CodeSystem/KBV_CS_SFHIR_ITA_WOP",
              "code": "01"
            }
          },
          {
            "url": "http://fhir.de/StructureDefinition/gkv/versichertenart",
            "valueCoding": {
              "system": "https://fhir.kbv.de/CodeSystem/KBV_CS_SFHIR_KBV_VERSICHERTENSTATUS",
              "code": "1"
            }
          }
        ],
        "status": "active",
        "type": {
          "coding": [
            {
              "system": "http://fhir.de/CodeSystem/versicherungsart-de-basis",
              "code": "GKV"
            }
          ]
        },
        "beneficiary": {
          "reference": "Patient/30635f5d-c233-4500-94e8-6414940236aa"
        },
        "payor": [
          {
            "identifier": {
              "system": "http://fhir.de/sid/arge-ik/iknr",
              "value": "108018347"
            },
            "display": "AOK Baden-Württemberg"
          }
        ]
      }
    },
    {
      "fullUrl": "http://pvs.praxis.local/fhir/Practitioner/d6f3b55d-3095-4655-96dc-da3bec21271c",
      "resource": {
        "resourceType": "Practitioner",
        "id": "d6f3b55d-3095-4655-96dc-da3bec21271c",
        "meta": {
          "profile": [
            "https://fhir.kbv.de/StructureDefinition/KBV_PR_FOR_Practitioner|1.2"
          ]
        },
        "identifier": [
          {
            "type": {
              "coding": [
                {
                  "system": "http://terminology.hl7.org/CodeSystem/v2-0203",
                  "code": "LANR"
                }
              ]
            },
            "system": "https://fhir.kbv.de/NamingSystem/KBV_NS_Base_ANR",
            "value": "754236701"
          }
        ],
        "name": [
          {
            "use": "official",
            "family": "Schulz",
            "_family": {
              "extension": [
                {
                  "url": "http://hl7.org/fhir/StructureDefinition/humanname-own-name",
                  "valueString": "Schulz"
                }
              ]
            },
            "given": [
              "Ben"
            ]
          }
        ],
        "qualification": [
          {
            "code": {
              "coding": [
                {
                  "system": "https://fhir.kbv.de/CodeSystem/KBV_CS_FOR_Qualification_Type",
                  "code": "00"
                }
              ]
            }
          },
          {
            "code": {
              "coding": [
                {
                  "system": "https://fhir.kbv.de/CodeSystem/KBV_CS_FOR_Berufsbezeichnung",
                  "code": "Berufsbezeichnung"
                }
              ],
              "text": "Facharzt für Allgemeinmedizin"
            }
          }
        ]
      }
    }
  ]
}