<Parameters xmlns="http://hl7.org/fhir">
    <id value="erp-abrufen-06-request-taskClose-rezeptur"/>
    <meta>
        <profile value="https://gematik.de/fhir/erp/StructureDefinition/GEM_ERP_PR_PAR_CloseOperation_Input|1.4"/>
    </meta>
    <parameter>
        <name value="rxDispensation"/>
        <part>
            <name value="medicationDispense"/>
            <resource>
                <MedicationDispense>
                    <id value="erp-abrufen-06-request-taskClose-medicationDispense-rezeptur"/>
                    <meta>
                        <profile value="https://gematik.de/fhir/erp/StructureDefinition/GEM_ERP_PR_MedicationDispense|1.4"/>
                    </meta>
                    <identifier>
                        <system value="https://gematik.de/fhir/erp/NamingSystem/GEM_ERP_NS_PrescriptionId"/>
                        <value value="160.000.000.000.000.01"/>
                    </identifier>
                    <status value="completed"/>
                    <medicationReference>
                        <reference value="Medication/rezeptur-medication"/>
                    </medicationReference>
                    <subject>
                        <identifier>
                            <system value="http://fhir.de/sid/gkv/kvid-10"/>
                            <value value="X123456789"/>
                        </identifier>
                    </subject>
                    <performer>
                        <actor>
                            <identifier>
                                <system value="https://gematik.de/fhir/sid/telematik-id"/>
                                <value value="3-2-APO-XanthippeVeilchenblau01"/>
                            </identifier>
                        </actor>
                    </performer>
                    <quantity>
                        <value value="1"/>
                        <system value="http://unitsofmeasure.org"/>
                        <code value="{Package}"/>
                    </quantity>
                    <whenHandedOver value="2025-01-15"/>
                    <dosageInstruction>
                        <text value="1-0-1-0"/>
                    </dosageInstruction>
                </MedicationDispense>
            </resource>
        </part>
        <part>
            <name value="medication"/>
            <resource>
                <Medication>
                    <id value="rezeptur-medication"/>
                    <meta>
                        <profile value="https://gematik.de/fhir/erp/StructureDefinition/GEM_ERP_PR_Medication|1.4"/>
                    </meta>
                    <contained>
                        <Medication>
                            <id value="MedicationPropanol-close"/>
                            <meta>
                                <profile value="https://gematik.de/fhir/epa-medication/StructureDefinition/epa-medication-pzn-ingredient"/>
                            </meta>
                            <extension url="https://gematik.de/fhir/epa-medication/StructureDefinition/epa-medication-type-extension">
                                <valueCoding>
                                    <system value="http://snomed.info/sct"/>
                                    <code value="781405001"/>
                                    <display value="Medicinal product package (product)"/>
                                </valueCoding>
                            </extension>
                            <code>
                                <coding>
                                    <system value="http://fhir.de/CodeSystem/ifa/pzn"/>
                                    <code value="987654321"/>
                                    <display value="2-propanol 70 %"/>
                                </coding>
                                <text value="2-propanol 70 %"/>
                            </code>
                        </Medication>
                    </contained>
                    <contained>
                        <Medication>
                            <id value="MedicationSalicylsaeure-close"/>
                            <meta>
                                <profile value="https://gematik.de/fhir/epa-medication/StructureDefinition/epa-medication-pzn-ingredient"/>
                            </meta>
                            <extension url="https://gematik.de/fhir/epa-medication/StructureDefinition/epa-medication-type-extension">
                                <valueCoding>
                                    <system value="http://snomed.info/sct"/>
                                    <code value="781405001"/>
                                    <display value="Medicinal product package (product)"/>
                                </valueCoding>
                            </extension>
                            <code>
                                <coding>
                                    <system value="http://fhir.de/CodeSystem/ifa/pzn"/>
                                    <code value="063137289"/>
                                    <display value="Salicylsäure"/>
                                </coding>
                                <text value="Salicylsäure"/>
                            </code>
                        </Medication>
                    </contained>
                    <extension url="https://gematik.de/fhir/epa-medication/StructureDefinition/drug-category-extension">
                        <valueCoding>
                            <system value="https://gematik.de/fhir/epa-medication/CodeSystem/epa-drug-category-cs"/>
                            <code value="00"/>
                        </valueCoding>
                    </extension>
                    <extension url="https://gematik.de/fhir/epa-medication/StructureDefinition/epa-medication-type-extension">
                        <valueCoding>
                            <system value="http://snomed.info/sct"/>
                            <code value="1208954007"/>
                            <display value="Extemporaneous preparation (product)"/>
                        </valueCoding>
                    </extension>
                    <extension url="https://gematik.de/fhir/epa-medication/StructureDefinition/medication-id-vaccine-extension">
                        <valueBoolean value="false"/>
                    </extension>
                    <form>
                        <text value="Lösung"/>
                    </form>
                    <amount>
                        <numerator>
                            <extension url="https://gematik.de/fhir/epa-medication/StructureDefinition/medication-total-quantity-formulation-extension">
                                <valueString value="100"/>
                            </extension>
                            <unit value="ml"/>
                        </numerator>
                        <denominator>
                            <value value="1"/>
                        </denominator>
                    </amount>
                    <ingredient>
                        <itemReference>
                            <reference value="#MedicationSalicylsaeure-close"/>
                        </itemReference>
                        <strength>
                            <numerator>
                                <value value="5"/>
                                <system value="http://unitsofmeasure.org"/>
                                <code value="g"/>
                            </numerator>
                            <denominator>
                                <value value="1"/>
                                <system>
                                    <extension url="http://hl7.org/fhir/StructureDefinition/data-absent-reason">
                                        <valueCode value="unknown"/>
                                    </extension>
                                </system>
                                <code>
                                    <extension url="http://hl7.org/fhir/StructureDefinition/data-absent-reason">
                                        <valueCode value="unknown"/>
                                    </extension>
                                </code>
                            </denominator>
                        </strength>
                    </ingredient>
                    <ingredient>
                        <itemReference>
                            <reference value="#MedicationPropanol-close"/>
                        </itemReference>
                        <strength>
                            <extension url="https://gematik.de/fhir/epa-medication/StructureDefinition/medication-ingredient-amount-extension">
                                <valueString value="Ad 100 g"/>
                            </extension>
                            <numerator>
                                <value>
                                    <extension url="http://hl7.org/fhir/StructureDefinition/data-absent-reason">
                                        <valueCode value="unknown"/>
                                    </extension>
                                </value>
                                <system>
                                    <extension url="http://hl7.org/fhir/StructureDefinition/data-absent-reason">
                                        <valueCode value="unknown"/>
                                    </extension>
                                </system>
                                <code>
                                    <extension url="http://hl7.org/fhir/StructureDefinition/data-absent-reason">
                                        <valueCode value="unknown"/>
                                    </extension>
                                </code>
                            </numerator>
                            <denominator>
                                <value>
                                    <extension url="http://hl7.org/fhir/StructureDefinition/data-absent-reason">
                                        <valueCode value="unknown"/>
                                    </extension>
                                </value>
                                <system>
                                    <extension url="http://hl7.org/fhir/StructureDefinition/data-absent-reason">
                                        <valueCode value="unknown"/>
                                    </extension>
                                </system>
                                <code>
                                    <extension url="http://hl7.org/fhir/StructureDefinition/data-absent-reason">
                                        <valueCode value="unknown"/>
                                    </extension>
                                </code>
                            </denominator>
                        </strength>
                    </ingredient>
                </Medication>
            </resource>
        </part>
    </parameter>
</Parameters>