<Parameters xmlns="http://hl7.org/fhir">
    <id value="erp-abrufen-07-request-taskCloseMultiple"/>
    <meta>
        <profile value="https://gematik.de/fhir/erp/StructureDefinition/GEM_ERP_PR_PAR_CloseOperation_Input|1.4"/>
    </meta>
    <parameter>
        <name value="rxDispensation"/>
        <part>
            <name value="medicationDispense"/>
            <resource>
                <MedicationDispense>
                    <id value="a3ddc2b1-826d-4b81-87b2-558834e00f50"/>
                    <meta>
                        <profile value="https://gematik.de/fhir/erp/StructureDefinition/GEM_ERP_PR_MedicationDispense|1.4"/>
                    </meta>
                    <identifier>
                        <system value="https://gematik.de/fhir/erp/NamingSystem/GEM_ERP_NS_PrescriptionId"/>
                        <value value="160.000.000.000.000.01"/>
                    </identifier>
                    <status value="completed"/>
                    <medicationReference>
                        <reference value="Medication/SumatripanMedication"/>
                    </medicationReference>
                    <subject>
                        <identifier>
                            <system value="http://fhir.de/sid/gkv/kvid-10"/>
                            <value value="X123456789"/>
                        </identifier>
                    </subject>
                    <performer>
                        <actor>
                            <identifier>
                                <system value="https://gematik.de/fhir/sid/telematik-id"/>
                                <value value="3-15.2.1456789123.191"/>
                            </identifier>
                        </actor>
                    </performer>
                    <whenHandedOver value="2025-01-15"/>
                </MedicationDispense>
            </resource>
        </part>
        <part>
            <name value="medication"/>
            <resource>
                <Medication>
                    <id value="SumatripanMedication"/>
                    <meta>
                        <profile value="https://gematik.de/fhir/erp/StructureDefinition/GEM_ERP_PR_Medication|1.4"/>
                    </meta>
                    <extension url="https://gematik.de/fhir/epa-medication/StructureDefinition/drug-category-extension">
                        <valueCoding>
                            <code value="00"/>
                        </valueCoding>
                    </extension>
                    <extension url="https://gematik.de/fhir/epa-medication/StructureDefinition/medication-id-vaccine-extension">
                        <valueBoolean value="false"/>
                    </extension>
                    <extension url="http://fhir.de/StructureDefinition/normgroesse">
                        <valueCode value="N1"/>
                    </extension>
                    <code>
                        <coding>
                            <system value="http://fhir.de/CodeSystem/ifa/pzn"/>
                            <code value="06313728"/>
                        </coding>
                        <text value="Sumatriptan-1a Pharma 100 mg Tabletten"/>
                    </code>
                    <form>
                        <coding>
                            <system value="https://fhir.kbv.de/CodeSystem/KBV_CS_SFHIR_KBV_DARREICHUNGSFORM"/>
                            <code value="TAB"/>
                        </coding>
                    </form>
                    <amount>
                        <numerator>
                            <extension url="https://gematik.de/fhir/epa-medication/StructureDefinition/medication-total-quantity-formulation-extension">
                                <valueString value="20 St."/>
                            </extension>
                            <value value="20"/>
                            <unit value="St"/>
                        </numerator>
                        <denominator>
                            <value value="1"/>
                        </denominator>
                    </amount>
                </Medication>
            </resource>
        </part>
    </parameter>
    <parameter>
        <name value="rxDispensation"/>
        <part>
            <name value="medicationDispense"/>
            <resource>
                <MedicationDispense>
                    <id value="854b6c62-8c8a-4ad6-b145-d5bac5f9f010"/>
                    <meta>
                        <profile value="https://gematik.de/fhir/erp/StructureDefinition/GEM_ERP_PR_MedicationDispense|1.4"/>
                    </meta>
                    <identifier>
                        <system value="https://gematik.de/fhir/erp/NamingSystem/GEM_ERP_NS_PrescriptionId"/>
                        <value value="160.000.000.000.000.01"/>
                    </identifier>
                    <status value="completed"/>
                    <medicationReference>
                        <reference value="Medication/FlusarionMedication"/>
                    </medicationReference>
                    <subject>
                        <identifier>
                            <system value="http://fhir.de/sid/gkv/kvid-10"/>
                            <value value="X123456789"/>
                        </identifier>
                    </subject>
                    <performer>
                        <actor>
                            <identifier>
                                <system value="https://gematik.de/fhir/sid/telematik-id"/>
                                <value value="3-15.2.1456789123.191"/>
                            </identifier>
                        </actor>
                    </performer>
                    <whenHandedOver value="2025-01-15"/>
                </MedicationDispense>
            </resource>
        </part>
        <part>
            <name value="medication"/>
            <resource>
                <Medication>
                    <id value="FlusarionMedication"/>
                    <meta>
                        <profile value="https://gematik.de/fhir/erp/StructureDefinition/GEM_ERP_PR_Medication|1.4"/>
                    </meta>
                    <extension url="https://gematik.de/fhir/epa-medication/StructureDefinition/drug-category-extension">
                        <valueCoding>
                            <code value="00"/>
                        </valueCoding>
                    </extension>
                    <extension url="https://gematik.de/fhir/epa-medication/StructureDefinition/medication-id-vaccine-extension">
                        <valueBoolean value="false"/>
                    </extension>
                    <extension url="http://fhir.de/StructureDefinition/normgroesse">
                        <valueCode value="N1"/>
                    </extension>
                    <code>
                        <coding>
                            <system value="http://fhir.de/CodeSystem/ifa/pzn"/>
                            <code value="14186244"/>
                        </coding>
                        <text value="FLUSARION EH50/250UG/60 PC"/>
                    </code>
                    <form>
                        <coding>
                            <system value="https://fhir.kbv.de/CodeSystem/KBV_CS_SFHIR_KBV_DARREICHUNGSFORM"/>
                            <code value="IHP"/>
                        </coding>
                    </form>
                </Medication>
            </resource>
        </part>
    </parameter>
</Parameters>