<Bundle xmlns="http://hl7.org/fhir"><id value="baa08367-bef6-43ca-b630-a318767a6ab5"/><meta><lastUpdated value="2023-11-27T08:37:20.283+01:00"/><profile value="http://fhir.abda.de/eRezeptAbgabedaten/StructureDefinition/DAV-PKV-PR-ERP-AbgabedatenBundle|1.2"/></meta><identifier><system value="https://gematik.de/fhir/erp/NamingSystem/GEM_ERP_NS_PrescriptionId"/><value value="200.000.000.042.783.53"/></identifier><type value="document"/><timestamp value="2023-11-27T08:37:20.283+01:00"/><entry><fullUrl value="urn:uuid:9bf5952d-67fc-4ecc-80de-1b282607d48d"/><resource><Composition xmlns="http://hl7.org/fhir"><id value="9bf5952d-67fc-4ecc-80de-1b282607d48d"/><meta><profile value="http://fhir.abda.de/eRezeptAbgabedaten/StructureDefinition/DAV-PKV-PR-ERP-AbgabedatenComposition|1.2"/></meta><status value="final"/><type><coding><system value="http://fhir.abda.de/eRezeptAbgabedaten/CodeSystem/DAV-CS-ERP-CompositionTypes"/><code value="ERezeptAbgabedaten"/></coding></type><date value="2023-11-27T08:37:20+01:00"/><author><reference value="urn:uuid:09f1985e-de81-4986-bcfc-b7cbef5a1ed4"/></author><title value="ERezeptAbgabedaten"/><section><title value="Apotheke"/><entry><reference value="urn:uuid:09f1985e-de81-4986-bcfc-b7cbef5a1ed4"/></entry></section><section><title value="Abgabeinformationen"/><entry><reference value="urn:uuid:538260c6-1790-4be1-8617-d825f9340227"/></entry></section></Composition></resource></entry><entry><fullUrl value="urn:uuid:09f1985e-de81-4986-bcfc-b7cbef5a1ed4"/><resource><Organization xmlns="http://hl7.org/fhir"><id value="09f1985e-de81-4986-bcfc-b7cbef5a1ed4"/><meta><profile value="http://fhir.abda.de/eRezeptAbgabedaten/StructureDefinition/DAV-PKV-PR-ERP-Apotheke|1.2"/></meta><identifier><system value="http://fhir.de/sid/arge-ik/iknr"/><value value="851218721"/></identifier><name value="Apotheke Raney Schauer"/><address><type value="physical"/><line value="Weißenseestr. 07c"><extension url="http://hl7.org/fhir/StructureDefinition/iso21090-ADXP-houseNumber"><valueString value="07c"/></extension><extension url="http://hl7.org/fhir/StructureDefinition/iso21090-ADXP-streetName"><valueString value="Weißenseestr."/></extension></line><city value="Alt Jimmy"/><postalCode value="03916"/><country value="D"/></address></Organization></resource></entry><entry><fullUrl value="urn:uuid:4a8a2dca-178b-4287-8596-38527483197b"/><resource><Invoice xmlns="http://hl7.org/fhir"><id value="4a8a2dca-178b-4287-8596-38527483197b"/><meta><profile value="http://fhir.abda.de/eRezeptAbgabedaten/StructureDefinition/DAV-PKV-PR-ERP-Abrechnungszeilen|1.2"/></meta><status value="issued"/><type><coding><system value="http://fhir.abda.de/eRezeptAbgabedaten/CodeSystem/DAV-CS-ERP-InvoiceTyp"/><code value="Abrechnungszeilen"/></coding></type><lineItem><sequence value="1"/><chargeItemCodeableConcept><coding><system value="http://fhir.de/CodeSystem/ifa/pzn"/><code value="30910751"/></coding><text value="Ibalabrarat"/></chargeItemCodeableConcept><priceComponent><extension url="http://fhir.abda.de/eRezeptAbgabedaten/StructureDefinition/DAV-EX-ERP-KostenVersicherter"><extension url="Kategorie"><valueCodeableConcept><coding><system value="http://fhir.abda.de/eRezeptAbgabedaten/CodeSystem/DAV-PKV-CS-ERP-KostenVersicherterKategorie"/><code value="0"/></coding></valueCodeableConcept></extension><extension url="Kostenbetrag"><valueMoney><value value="23.50"/><currency value="EUR"/></valueMoney></extension></extension><extension url="http://fhir.abda.de/eRezeptAbgabedaten/StructureDefinition/DAV-EX-ERP-MwStSatz"><valueDecimal value="18.85"/></extension><type value="informational"/><factor value="1"/><amount><value value="35.50"/><currency value="EUR"/></amount></priceComponent></lineItem><totalGross><extension url="http://fhir.abda.de/eRezeptAbgabedaten/StructureDefinition/DAV-EX-ERP-Gesamtzuzahlung"><valueMoney><value value="23.50"/><currency value="EUR"/></valueMoney></extension><value value="35.50"/><currency value="EUR"/></totalGross></Invoice></resource></entry><entry><fullUrl value="urn:uuid:538260c6-1790-4be1-8617-d825f9340227"/><resource><MedicationDispense xmlns="http://hl7.org/fhir"><id value="538260c6-1790-4be1-8617-d825f9340227"/><meta><profile value="http://fhir.abda.de/eRezeptAbgabedaten/StructureDefinition/DAV-PKV-PR-ERP-Abgabeinformationen|1.2"/></meta><extension url="http://fhir.abda.de/eRezeptAbgabedaten/StructureDefinition/DAV-PKV-EX-ERP-AbrechnungsTyp"><valueCodeableConcept><coding><system value="http://fhir.abda.de/eRezeptAbgabedaten/CodeSystem/DAV-PKV-CS-ERP-AbrechnungsTyp"/><code value="1"/></coding></valueCodeableConcept></extension><extension url="http://fhir.abda.de/eRezeptAbgabedaten/StructureDefinition/DAV-EX-ERP-Abrechnungszeilen"><valueReference><reference value="urn:uuid:4a8a2dca-178b-4287-8596-38527483197b"/></valueReference></extension><status value="completed"/><medicationCodeableConcept><coding><system value="http://terminology.hl7.org/CodeSystem/data-absent-reason"/><code value="not-applicable"/></coding></medicationCodeableConcept><performer><actor><reference value="urn:uuid:09f1985e-de81-4986-bcfc-b7cbef5a1ed4"/></actor></performer><authorizingPrescription><identifier><system value="https://gematik.de/fhir/erp/NamingSystem/GEM_ERP_NS_PrescriptionId"/><value value="200.000.000.042.783.53"/></identifier></authorizingPrescription><type><coding><system value="http://fhir.abda.de/eRezeptAbgabedaten/CodeSystem/DAV-CS-ERP-MedicationDispenseTyp"/><code value="Abgabeinformationen"/></coding></type><whenHandedOver value="2023-11-27"/></MedicationDispense></resource></entry></Bundle>