<Bundle xmlns="http://hl7.org/fhir"><id value="dd19d7b3-6fc5-4b94-87ed-1fb33e7f982f"/><meta><lastUpdated value="2023-04-21T09:39:19.616+02:00"/><profile value="https://fhir.kbv.de/StructureDefinition/KBV_PR_ERP_Bundle|1.0.2"/></meta><identifier><system value="https://gematik.de/fhir/NamingSystem/PrescriptionID"/><value value="209.000.000.003.637.32"/></identifier><type value="document"/><timestamp value="2023-04-21T09:39:19.616+02:00"/><entry><fullUrl value="https://pvs.gematik.de/fhir/Composition/5b5151e3-d78a-405d-9230-2df26ca0d8ae"/><resource><Composition xmlns="http://hl7.org/fhir"><id value="5b5151e3-d78a-405d-9230-2df26ca0d8ae"/><meta><profile value="https://fhir.kbv.de/StructureDefinition/KBV_PR_ERP_Composition|1.0.2"/></meta><extension url="https://fhir.kbv.de/StructureDefinition/KBV_EX_FOR_PKV_Tariff"><valueCoding><system value="https://fhir.kbv.de/CodeSystem/KBV_CS_SFHIR_KBV_PKV_TARIFF"/><code value="03"/></valueCoding></extension><extension url="https://fhir.kbv.de/StructureDefinition/KBV_EX_FOR_Legal_basis"><valueCoding><system value="https://fhir.kbv.de/CodeSystem/KBV_CS_SFHIR_KBV_STATUSKENNZEICHEN"/><code value="00"/></valueCoding></extension><status value="final"/><type><coding><system value="https://fhir.kbv.de/CodeSystem/KBV_CS_SFHIR_KBV_FORMULAR_ART"/><code value="e16A"/></coding></type><subject><reference value="Patient/d3a1ebaf-50c1-4851-9d79-24ed9cbf7431"/></subject><date value="2023-04-21T09:39:19+02:00"/><author><reference value="Practitioner/53daad00-9a0e-46ae-8671-d9fe46bf1286"/><type value="Practitioner"/></author><author><type value="Device"/><identifier><system value="https://fhir.kbv.de/NamingSystem/KBV_NS_FOR_Pruefnummer"/><value value="GEMATIK/410/2109/36/123"/></identifier></author><title value="elektronische Arzneimittelverordnung"/><custodian><reference value="Organization/ec13cdf6-3fc0-4717-a5d2-2d851a7c8e6d"/></custodian><section><code><coding><system value="https://fhir.kbv.de/CodeSystem/KBV_CS_ERP_Section_Type"/><code value="Coverage"/></coding></code><entry><reference value="Coverage/5ebf92c8-9a33-4723-8a59-1b85791cd7ff"/></entry></section><section><code><coding><system value="https://fhir.kbv.de/CodeSystem/KBV_CS_ERP_Section_Type"/><code value="Prescription"/></coding></code><entry><reference value="MedicationRequest/605813ef-3372-4d9f-9c4f-91553f110866"/></entry></section></Composition></resource></entry><entry><fullUrl value="https://pvs.gematik.de/fhir/MedicationRequest/605813ef-3372-4d9f-9c4f-91553f110866"/><resource><MedicationRequest xmlns="http://hl7.org/fhir"><id value="605813ef-3372-4d9f-9c4f-91553f110866"/><meta><profile value="https://fhir.kbv.de/StructureDefinition/KBV_PR_ERP_Prescription|1.0.2"/></meta><extension url="https://fhir.kbv.de/StructureDefinition/KBV_EX_ERP_BVG"><valueBoolean value="false"/></extension><extension url="https://fhir.kbv.de/StructureDefinition/KBV_EX_ERP_EmergencyServicesFee"><valueBoolean value="false"/></extension><extension url="https://fhir.kbv.de/StructureDefinition/KBV_EX_ERP_Multiple_Prescription"><extension url="Kennzeichen"><valueBoolean value="false"/></extension></extension><extension url="https://fhir.kbv.de/StructureDefinition/KBV_EX_ERP_StatusCoPayment"><valueCoding><system value="https://fhir.kbv.de/CodeSystem/KBV_CS_ERP_StatusCoPayment"/><code value="0"/></valueCoding></extension><status value="active"/><intent value="order"/><medicationReference><reference value="Medication/9709ab9e-221a-4f0c-944a-1efc8ff16454"/></medicationReference><subject><reference value="Patient/d3a1ebaf-50c1-4851-9d79-24ed9cbf7431"/></subject><authoredOn value="2023-04-21"/><requester><reference value="Practitioner/53daad00-9a0e-46ae-8671-d9fe46bf1286"/></requester><insurance><reference value="Coverage/5ebf92c8-9a33-4723-8a59-1b85791cd7ff"/></insurance><dosageInstruction><extension url="https://fhir.kbv.de/StructureDefinition/KBV_EX_ERP_DosageFlag"><valueBoolean value="true"/></extension><text value="1-0-0-0"/></dosageInstruction><dispenseRequest><quantity><value value="1"/><system value="http://unitsofmeasure.org"/><code value="{Package}"/></quantity></dispenseRequest><substitution><allowedBoolean value="true"/></substitution></MedicationRequest></resource></entry><entry><fullUrl value="https://pvs.gematik.de/fhir/Medication/9709ab9e-221a-4f0c-944a-1efc8ff16454"/><resource><Medication xmlns="http://hl7.org/fhir"><id value="9709ab9e-221a-4f0c-944a-1efc8ff16454"/><meta><profile value="https://fhir.kbv.de/StructureDefinition/KBV_PR_ERP_Medication_PZN|1.0.2"/></meta><extension url="https://fhir.kbv.de/StructureDefinition/KBV_EX_ERP_Medication_Category"><valueCoding><system value="https://fhir.kbv.de/CodeSystem/KBV_CS_ERP_Medication_Category"/><code value="00"/></valueCoding></extension><extension url="https://fhir.kbv.de/StructureDefinition/KBV_EX_ERP_Medication_Vaccine"><valueBoolean value="false"/></extension><extension url="http://fhir.de/StructureDefinition/normgroesse"><valueCode value="NB"/></extension><code><coding><system value="http://fhir.de/CodeSystem/ifa/pzn"/><code value="63007510"/></coding><text value="Zytostatika_WF209"/></code><form><coding><system value="https://fhir.kbv.de/CodeSystem/KBV_CS_SFHIR_KBV_DARREICHUNGSFORM"/><code value="TAB"/></coding></form><amount><numerator><value value="1"/><unit value="Stk"/></numerator><denominator><value value="1"/></denominator></amount></Medication></resource></entry><entry><fullUrl value="https://pvs.gematik.de/fhir/Patient/d3a1ebaf-50c1-4851-9d79-24ed9cbf7431"/><resource><Patient xmlns="http://hl7.org/fhir"><id value="d3a1ebaf-50c1-4851-9d79-24ed9cbf7431"/><meta><profile value="https://fhir.kbv.de/StructureDefinition/KBV_PR_FOR_Patient|1.0.3"/></meta><identifier><type><coding><system value="http://fhir.de/CodeSystem/identifier-type-de-basis"/><code value="PKV"/></coding></type><system value="http://www.acme.com/identifiers/patient"/><value value="X110465770"/><assigner><reference value="Organization/3c170cd2-e602-472c-955b-f24996d04f30"/><display value="KVED Krankenversicherungs-AG Brandenburg"/></assigner></identifier><name><use value="official"/><family value="Angermänn"/><given value="Günther"/></name><birthDate value="1961-10-02"/><address><type value="both"/><line value="Johann-Wirtz-Weg 595"><extension url="http://hl7.org/fhir/StructureDefinition/iso21090-ADXP-houseNumber"><valueString value="595"/></extension><extension url="http://hl7.org/fhir/StructureDefinition/iso21090-ADXP-streetName"><valueString value="Johann-Wirtz-Weg"/></extension></line><city value="Süd Jessicascheid"/><postalCode value="91688"/><country value="D"/></address></Patient></resource></entry><entry><fullUrl value="https://pvs.gematik.de/fhir/Organization/ec13cdf6-3fc0-4717-a5d2-2d851a7c8e6d"/><resource><Organization xmlns="http://hl7.org/fhir"><id value="ec13cdf6-3fc0-4717-a5d2-2d851a7c8e6d"/><meta><profile value="https://fhir.kbv.de/StructureDefinition/KBV_PR_FOR_Organization|1.0.3"/></meta><identifier><type><coding><system value="http://terminology.hl7.org/CodeSystem/v2-0203"/><code value="BSNR"/></coding></type><system value="https://fhir.kbv.de/NamingSystem/KBV_NS_Base_BSNR"/><value value="602238406"/></identifier><name value="Arztpraxis Schraßer"/><telecom><system value="phone"/><value value="(06886) 5642561"/></telecom><telecom><system value="email"/><value value="mattes.nussbeck@terlecki.name"/></telecom><address><type value="both"/><line value="Karl-Jaspers-Str. 76"><extension url="http://hl7.org/fhir/StructureDefinition/iso21090-ADXP-houseNumber"><valueString value="76"/></extension><extension url="http://hl7.org/fhir/StructureDefinition/iso21090-ADXP-streetName"><valueString value="Karl-Jaspers-Str."/></extension></line><city value="Lillidorf"/><postalCode value="35596"/><country value="D"/></address></Organization></resource></entry><entry><fullUrl value="https://pvs.gematik.de/fhir/Coverage/5ebf92c8-9a33-4723-8a59-1b85791cd7ff"/><resource><Coverage xmlns="http://hl7.org/fhir"><id value="5ebf92c8-9a33-4723-8a59-1b85791cd7ff"/><meta><profile value="https://fhir.kbv.de/StructureDefinition/KBV_PR_FOR_Coverage|1.0.3"/></meta><extension url="http://fhir.de/StructureDefinition/gkv/besondere-personengruppe"><valueCoding><system value="https://fhir.kbv.de/CodeSystem/KBV_CS_SFHIR_KBV_PERSONENGRUPPE"/><code value="00"/></valueCoding></extension><extension url="http://fhir.de/StructureDefinition/gkv/dmp-kennzeichen"><valueCoding><system value="https://fhir.kbv.de/CodeSystem/KBV_CS_SFHIR_KBV_DMP"/><code value="00"/></valueCoding></extension><extension url="http://fhir.de/StructureDefinition/gkv/wop"><valueCoding><system value="https://fhir.kbv.de/CodeSystem/KBV_CS_SFHIR_ITA_WOP"/><code value="98"/></valueCoding></extension><extension url="http://fhir.de/StructureDefinition/gkv/versichertenart"><valueCoding><system value="https://fhir.kbv.de/CodeSystem/KBV_CS_SFHIR_KBV_VERSICHERTENSTATUS"/><code value="1"/></valueCoding></extension><status value="active"/><type><coding><system value="http://fhir.de/CodeSystem/versicherungsart-de-basis"/><code value="PKV"/></coding></type><beneficiary><reference value="Patient/f2f14940-a959-4e3b-805a-04cfb55adcc4"/></beneficiary><payor><identifier><system value="http://fhir.de/NamingSystem/arge-ik/iknr"/><value value="531976510"/></identifier><display value="Künstler-Krankenkasse Hessen"/></payor></Coverage></resource></entry><entry><fullUrl value="https://pvs.gematik.de/fhir/Practitioner/53daad00-9a0e-46ae-8671-d9fe46bf1286"/><resource><Practitioner xmlns="http://hl7.org/fhir"><id value="53daad00-9a0e-46ae-8671-d9fe46bf1286"/><meta><profile value="https://fhir.kbv.de/StructureDefinition/KBV_PR_FOR_Practitioner|1.0.3"/></meta><identifier><type><coding><system value="http://terminology.hl7.org/CodeSystem/v2-0203"/><code value="LANR"/></coding></type><system value="https://fhir.kbv.de/NamingSystem/KBV_NS_Base_ANR"/><value value="988171423"/></identifier><name><use value="official"/><family value="Schraßer"/><given value="Dr."/><prefix value="Dr."><extension url="http://hl7.org/fhir/StructureDefinition/iso21090-EN-qualifier"><valueCode value="AC"/></extension></prefix></name><qualification><code><coding><system value="https://fhir.kbv.de/CodeSystem/KBV_CS_FOR_Qualification_Type"/><code value="00"/></coding></code></qualification><qualification><code><text value="Super-Facharzt für alles Mögliche"/></code></qualification></Practitioner></resource></entry><entry><fullUrl value="https://pvs.gematik.de/fhir/Organization/3c170cd2-e602-472c-955b-f24996d04f30"/><resource><Organization xmlns="http://hl7.org/fhir"><id value="3c170cd2-e602-472c-955b-f24996d04f30"/><meta><profile value="https://fhir.kbv.de/StructureDefinition/KBV_PR_FOR_Organization|1.0.3"/></meta><identifier><type><coding><system value="http://terminology.hl7.org/CodeSystem/v2-0203"/><code value="XX"/></coding></type><system value="http://fhir.de/NamingSystem/arge-ik/iknr"/><value value="691656290"/></identifier><name value="KVED Krankenversicherungs-AG Brandenburg"/><telecom><system value="phone"/><value value="+49-9408-57462484"/></telecom><address><type value="both"/><line value="Samlandstr. 02a"><extension url="http://hl7.org/fhir/StructureDefinition/iso21090-ADXP-houseNumber"><valueString value="02a"/></extension><extension url="http://hl7.org/fhir/StructureDefinition/iso21090-ADXP-streetName"><valueString value="Samlandstr."/></extension></line><city value="Kinzydorf"/><postalCode value="17448"/><country value="D"/></address></Organization></resource></entry></Bundle>