{
  "resourceType": "Bundle",
  "id": "78e50214-15ba-42a5-beb5-494b44e90e63",
  "meta": {
    "profile": [
      "https://fhir.gkvsv.de/StructureDefinition/GKVSV_PR_TA7_Sammelrechnung_Bundle|1.0.6"
    ],
    "tag": [
      {
        "display": "Beispiel der TA7/eAbrechnungsdaten."
      },
      {
        "display": "ACHTUNG! Der fachlich korrekte Inhalt der Beispielinstanz kann nicht gewährleistet werden. Wir sind jederzeit dankbar für Hinweise auf Fehler oder für Verbesserungsvorschläge."
      }
    ]
  },
  "identifier": {
    "extension": [
      {
        "url": "https://fhir.gkvsv.de/StructureDefinition/GKVSV_EX_ERP_TA7_Dateinummer",
        "valueString": "00002"
      }
    ],
    "system": "https://fhir.gkvsv.de/NamingSystem/GKVSV_NS_Dateiname",
    "value": "ARZFHR21002"
  },
  "type": "document",
  "timestamp": "2021-08-02T10:00:00+00:00",
  "entry": [
    {
      "fullUrl": "urn:uuid:fb3b9e4b-e547-4729-8f46-83c426a0af59",
      "resource": {
        "resourceType": "Composition",
        "id": "fb3b9e4b-e547-4729-8f46-83c426a0af59",
        "meta": {
          "profile": [
            "https://fhir.gkvsv.de/StructureDefinition/GKVSV_PR_TA7_Sammelrechnung_Composition|1.0.6"
          ]
        },
        "extension": [
          {
            "url": "https://fhir.gkvsv.de/StructureDefinition/GKVSV_EX_TA7_IK_Empfaenger",
            "valueIdentifier": {
              "system": "http://fhir.de/NamingSystem/arge-ik/iknr",
              "value": "109519005"
            }
          },
          {
            "url": "https://fhir.gkvsv.de/StructureDefinition/GKVSV_EX_TA7_IK_Kostentraeger",
            "valueIdentifier": {
              "system": "http://fhir.de/NamingSystem/arge-ik/iknr",
              "value": "109519005"
            }
          }
        ],
        "status": "final",
        "type": {
          "coding": [
            {
              "system": "https://fhir.gkvsv.de/CodeSystem/GKVSV_CS_ERP_TA7",
              "code": "SR",
              "display": "Sammelrechnung"
            }
          ]
        },
        "date": "2021-07-31",
        "author": [
          {
            "identifier": {
              "system": "http://fhir.de/NamingSystem/arge-ik/iknr",
              "value": "987654321"
            }
          }
        ],
        "title": "elektronische Sammelrechnung",
        "section": [
          {
            "code": {
              "coding": [
                {
                  "system": "https://fhir.gkvsv.de/CodeSystem/GKVSV_CS_ERP_TA7",
                  "code": "LSR",
                  "display": "Liste der Sammelrechnungen"
                }
              ]
            },
            "entry": [
              {
                "reference": "urn:uuid:22246f07-8b19-4093-8bd6-490c6936365b"
              }
            ]
          },
          {
            "code": {
              "coding": [
                {
                  "system": "https://fhir.gkvsv.de/CodeSystem/GKVSV_CS_ERP_TA7",
                  "code": "R",
                  "display": "Rechnungen"
                }
              ]
            },
            "entry": [
              {
                "reference": "urn:uuid:fd34fc0f-fac5-44be-bb6f-d6969e1d1704"
              }
            ]
          }
        ]
      }
    },
    {
      "fullUrl": "urn:uuid:22246f07-8b19-4093-8bd6-490c6936365b",
      "resource": {
        "resourceType": "List",
        "id": "22246f07-8b19-4093-8bd6-490c6936365b",
        "meta": {
          "profile": [
            "https://fhir.gkvsv.de/StructureDefinition/GKVSV_PR_TA7_Sammelrechnung_List|1.0.6"
          ]
        },
        "status": "current",
        "mode": "working",
        "entry": [
          {
            "item": {
              "reference": "Bundle/78e50214-15ba-42a5-beb5-494b44e90e63"
            }
          }
        ]
      }
    },
    {
      "fullUrl": "urn:uuid:fd34fc0f-fac5-44be-bb6f-d6969e1d1704",
      "resource": {
        "resourceType": "Invoice",
        "id": "fd34fc0f-fac5-44be-bb6f-d6969e1d1704",
        "meta": {
          "profile": [
            "https://fhir.gkvsv.de/StructureDefinition/GKVSV_PR_TA7_Rechnung|1.0.6"
          ]
        },
        "extension": [
          {
            "url": "https://fhir.gkvsv.de/StructureDefinition/GKVSV_EX_ERP_TA7_Abrechnungszeitraum",
            "valueDateTime": "2021-07-31"
          },
          {
            "extension": [
              {
                "url": "lineItem",
                "valueReference": {
                  "reference": "urn:uuid:841f3ab8-034e-4b1c-8649-29ed1abd35be"
                }
              }
            ],
            "url": "https://fhir.gkvsv.de/StructureDefinition/GKVSV_EX_ERP_RezeptBundleReferenz"
          }
        ],
        "identifier": [
          {
            "system": "https://fhir.gkvsv.de/NamingSystem/GKVSV_NS_Sammelrechnungsnummer",
            "value": "21050040"
          }
        ],
        "status": "issued",
        "type": {
          "coding": [
            {
              "system": "https://fhir.gkvsv.de/CodeSystem/GKVSV_CS_ERP_Rechnungsart",
              "code": "6"
            }
          ]
        },
        "recipient": {
          "identifier": {
            "system": "http://fhir.de/NamingSystem/arge-ik/iknr",
            "value": "109519005"
          }
        },
        "date": "2021-08-02"
      }
    },
    {
      "fullUrl": "urn:uuid:841f3ab8-034e-4b1c-8649-29ed1abd35be",
      "resource": {
        "resourceType": "Bundle",
        "id": "841f3ab8-034e-4b1c-8649-29ed1abd35be",
        "meta": {
          "profile": [
            "https://fhir.gkvsv.de/StructureDefinition/GKVSV_PR_TA7_RezeptBundle|1.0.6"
          ]
        },
        "type": "collection",
        "entry": [
          {
            "link": [
              {
                "relation": "item",
                "url": "https://fhir.kbv.de/StructureDefinition/KBV_PR_ERP_Bundle"
              }
            ],
            "fullUrl": "urn:uuid:29070529-3186-4c57-bea7-dba7dca1243e",
            "resource": {
              "resourceType": "Binary",
              "id": "29070529-3186-4c57-bea7-dba7dca1243e",
              "meta": {
                "profile": [
                  "https://gematik.de/fhir/StructureDefinition/ErxBinary"
                ]
              },
              "contentType": "application/pkcs7-mime",
              "data": "VmVyb3JkbnVuZ3NkYXRlbiBCZWlzcGllbCBFcnN0ZWxsdW5nIEJlaXNwaWVsIGVBYnJlY2hudW5nc2RhdGVu"
            }
          },
          {
            "link": [
              {
                "relation": "item",
                "url": "https://gematik.de/fhir/StructureDefinition/ErxReceipt"
              }
            ],
            "fullUrl": "urn:uuid:a6b44fad-b3a3-498a-a170-30b9a25191d3",
            "resource": {
              "resourceType": "Bundle",
              "id": "a6b44fad-b3a3-498a-a170-30b9a25191d3",
              "meta": {
                "profile": [
                  "https://gematik.de/fhir/StructureDefinition/ErxReceipt"
                ]
              },
              "identifier": {
                "system": "https://gematik.de/fhir/NamingSystem/PrescriptionID",
                "value": "160.100.000.000.004.30"
              },
              "type": "document",
              "timestamp": "2021-07-27T09:30:00+00:00",
              "link": [
                {
                  "relation": "self",
                  "url": "https://gematik.erppre.de:443/Task/160.100.000.000.004.30/$close"
                }
              ],
              "entry": [
                {
                  "fullUrl": "urn:uuid:87f4562b-8d6e-4ce0-8f64-afd3ed359c34",
                  "resource": {
                    "resourceType": "Composition",
                    "id": "87f4562b-8d6e-4ce0-8f64-afd3ed359c34",
                    "meta": {
                      "profile": [
                        "https://gematik.de/fhir/StructureDefinition/ErxComposition"
                      ]
                    },
                    "extension": [
                      {
                        "url": "https://gematik.de/fhir/StructureDefinition/BeneficiaryExtension",
                        "valueIdentifier": {
                          "system": "https://gematik.de/fhir/NamingSystem/TelematikID",
                          "value": "606358757"
                        }
                      }
                    ],
                    "status": "final",
                    "type": {
                      "coding": [
                        {
                          "system": "https://gematik.de/fhir/CodeSystem/Documenttype",
                          "code": "3",
                          "display": "Receipt"
                        }
                      ]
                    },
                    "date": "2021-07-27T09:30:00Z",
                    "author": [
                      {
                        "reference": "https://gematik.erppre.de:443/Device"
                      }
                    ],
                    "title": "Quittung",
                    "event": [
                      {
                        "period": {
                          "start": "2021-07-27T08:45:00Z",
                          "end": "2021-07-27T09:30:00Z"
                        }
                      }
                    ]
                  }
                },
                {
                  "fullUrl": "https://gematik.erppre.de:443/Device",
                  "resource": {
                    "resourceType": "Device",
                    "id": "1",
                    "meta": {
                      "profile": [
                        "https://gematik.de/fhir/StructureDefinition/ErxDevice"
                      ]
                    },
                    "status": "active",
                    "serialNumber": "0.3.1",
                    "deviceName": [
                      {
                        "name": "E-Rezept Fachdienst",
                        "type": "user-friendly-name"
                      }
                    ],
                    "version": [
                      {
                        "value": "0.3.1"
                      }
                    ],
                    "contact": [
                      {
                        "system": "email",
                        "value": "betrieb@gematik.de"
                      }
                    ]
                  }
                }
              ],
              "signature": {
                "type": [
                  {
                    "system": "urn:iso-astm:E1762-95:2013",
                    "code": "1.2.840.10065.1.12.1.1"
                  }
                ],
                "when": "2021-07-27T09:30:00+00:00",
                "who": {
                  "reference": "https://gematik.erppre.de:443/Device"
                },
                "sigFormat": "application/pkcs7-mime",
                "data": ""
              }
            }
          },
          {
            "link": [
              {
                "relation": "item",
                "url": "http://fhir.abda.de/eRezeptAbgabedaten/StructureDefinition/DAV-PR-ERP-AbgabedatenBundle"
              }
            ],
            "fullUrl": "urn:uuid:cb63b47a-ad2c-44fc-8bbf-e82936258f52",
            "resource": {
              "resourceType": "Binary",
              "id": "cb63b47a-ad2c-44fc-8bbf-e82936258f52",
              "meta": {
                "profile": [
                  "https://gematik.de/fhir/StructureDefinition/ErxBinary"
                ]
              },
              "contentType": "application/pkcs7-mime",
              "data": "ZUFiZ2FiZWRhdGVuIEJlaXNwaWVsIEVyc3RlbGx1bmcgQmVpc3BpZWwgZUFicmVjaG51bmdzZGF0ZW4="
            }
          },
          {
            "link": [
              {
                "relation": "item",
                "url": "https://fhir.gkvsv.de/StructureDefinition/GKVSV_PR_ERP_eAbrechnungsdaten"
              }
            ],
            "fullUrl": "urn:uuid:ee9aa816-5a98-456d-baff-fb1cabd90bf4",
            "resource": {
              "resourceType": "Invoice",
              "id": "ee9aa816-5a98-456d-baff-fb1cabd90bf4",
              "meta": {
                "profile": [
                  "https://fhir.gkvsv.de/StructureDefinition/GKVSV_PR_ERP_eAbrechnungsdaten|1.0.6"
                ]
              },
              "extension": [
                {
                  "url": "https://fhir.gkvsv.de/StructureDefinition/GKVSV_EX_ERP_Irrlaeufer",
                  "valueBoolean": false
                }
              ],
              "identifier": [
                {
                  "system": "https://gematik.de/fhir/NamingSystem/PrescriptionID",
                  "value": "160.100.000.000.004.30"
                },
                {
                  "system": "https://fhir.gkvsv.de/NamingSystem/GKVSV_NS_Belegnummer",
                  "value": "2103000000010000001"
                }
              ],
              "status": "issued",
              "issuer": {
                "extension": [
                  {
                    "url": "https://fhir.gkvsv.de/StructureDefinition/GKVSV_EX_ERP_LE_Sitz",
                    "valueCoding": {
                      "system": "https://fhir.gkvsv.de/CodeSystem/GKVSV_CS_ERP_Leistungserbringer_Sitz",
                      "code": "1"
                    }
                  }
                ],
                "identifier": {
                  "type": {
                    "coding": [
                      {
                        "system": "https://fhir.gkvsv.de/CodeSystem/GKVSV_CS_ERP_Leistungserbringertyp",
                        "code": "A"
                      }
                    ]
                  },
                  "system": "http://fhir.de/NamingSystem/arge-ik/iknr",
                  "value": "308412345"
                }
              },
              "lineItem": [
                {
                  "extension": [
                    {
                      "url": "https://fhir.gkvsv.de/StructureDefinition/GKVSV_EX_ERP_Positionstyp",
                      "valueCodeableConcept": {
                        "coding": [
                          {
                            "system": "https://fhir.gkvsv.de/CodeSystem/GKVSV_CS_ERP_Positionstyp",
                            "code": "1",
                            "display": "übrige Position"
                          }
                        ]
                      }
                    },
                    {
                      "url": "https://fhir.gkvsv.de/StructureDefinition/GKVSV_EX_ERP_VAT_VALUE",
                      "valueMoney": {
                        "value": 12.56,
                        "currency": "EUR"
                      }
                    },
                    {
                      "url": "https://fhir.gkvsv.de/StructureDefinition/GKVSV_EX_ERP_Import",
                      "valueCodeableConcept": {
                        "coding": [
                          {
                            "system": "https://fhir.gkvsv.de/CodeSystem/GKVSV_CS_ERP_Import",
                            "code": "0"
                          }
                        ]
                      }
                    }
                  ],
                  "sequence": 1,
                  "chargeItemCodeableConcept": {
                    "coding": [
                      {
                        "system": "http://terminology.hl7.org/CodeSystem/v3-NullFlavor",
                        "code": "UNC"
                      }
                    ]
                  },
                  "priceComponent": [
                    {
                      "type": "deduction",
                      "code": {
                        "coding": [
                          {
                            "system": "https://fhir.gkvsv.de/CodeSystem/GKVSV_CS_ERP_ZuAbschlagKey",
                            "code": "R001"
                          }
                        ]
                      },
                      "amount": {
                        "value": -1.77,
                        "currency": "EUR"
                      }
                    }
                  ]
                }
              ]
            }
          }
        ]
      }
    }
  ]
}