<Bundle xmlns="http://hl7.org/fhir"><id value="694e7718-f64f-4718-83cd-22e7a7922c8e"/><meta><lastUpdated value="2024-02-08T19:15:33.308+01:00"/><profile value="http://fhir.abda.de/eRezeptAbgabedaten/StructureDefinition/DAV-PKV-PR-ERP-AbgabedatenBundle|1.4"/></meta><identifier><system value="https://gematik.de/fhir/erp/NamingSystem/GEM_ERP_NS_PrescriptionId"/><value value="200.000.002.096.531.55"/></identifier><type value="document"/><timestamp value="2024-02-08T19:15:33.308+01:00"/><entry><fullUrl value="urn:uuid:de4f2073-36ce-4360-8ad7-ec4c455346fd"/><resource><Composition xmlns="http://hl7.org/fhir"><id value="de4f2073-36ce-4360-8ad7-ec4c455346fd"/><meta><profile value="http://fhir.abda.de/eRezeptAbgabedaten/StructureDefinition/DAV-PKV-PR-ERP-AbgabedatenComposition|1.4"/></meta><status value="final"/><type><coding><system value="http://fhir.abda.de/eRezeptAbgabedaten/CodeSystem/DAV-CS-ERP-CompositionTypes"/><code value="ERezeptAbgabedaten"/></coding></type><date value="2024-02-08T19:15:33+01:00"/><author><reference value="urn:uuid:46596074-ee95-4350-8619-520c54bc02e6"/></author><title value="ERezeptAbgabedaten"/><section><title value="Apotheke"/><entry><reference value="urn:uuid:46596074-ee95-4350-8619-520c54bc02e6"/></entry></section><section><title value="Abgabeinformationen"/><entry><reference value="urn:uuid:bbd8da87-9f08-40b9-ad9e-a8f53403f069"/></entry></section></Composition></resource></entry><entry><fullUrl value="urn:uuid:46596074-ee95-4350-8619-520c54bc02e6"/><resource><Organization xmlns="http://hl7.org/fhir"><id value="46596074-ee95-4350-8619-520c54bc02e6"/><meta><profile value="http://fhir.abda.de/eRezeptAbgabedaten/StructureDefinition/DAV-PKV-PR-ERP-Apotheke|1.4"/></meta><identifier><system value="http://fhir.de/sid/arge-ik/iknr"/><value value="071712036"/></identifier><name value="Apotheke Candy Kane"/><address><type value="physical"/><line value="Hans-Sachs-Str. 54a"><extension url="http://hl7.org/fhir/StructureDefinition/iso21090-ADXP-houseNumber"><valueString value="54a"/></extension><extension url="http://hl7.org/fhir/StructureDefinition/iso21090-ADXP-streetName"><valueString value="Hans-Sachs-Str."/></extension></line><city value="West Mickland"/><postalCode value="42316"/><country value="D"/></address></Organization></resource></entry><entry><fullUrl value="urn:uuid:2f8d7726-a06c-46af-ac9d-14f5468d3762"/><resource><Invoice xmlns="http://hl7.org/fhir"><id value="2f8d7726-a06c-46af-ac9d-14f5468d3762"/><meta><profile value="http://fhir.abda.de/eRezeptAbgabedaten/StructureDefinition/DAV-PKV-PR-ERP-Abrechnungszeilen|1.4"/></meta><status value="issued"/><type><coding><system value="http://fhir.abda.de/eRezeptAbgabedaten/CodeSystem/DAV-CS-ERP-InvoiceTyp"/><code value="Abrechnungszeilen"/></coding></type><lineItem><sequence value="1"/><chargeItemCodeableConcept><coding><system value="http://fhir.de/CodeSystem/ifa/pzn"/><code value="84915064"/></coding><text value="Aceabraxalon"/></chargeItemCodeableConcept><priceComponent><extension url="http://fhir.abda.de/eRezeptAbgabedaten/StructureDefinition/DAV-EX-ERP-KostenVersicherter"><extension url="Kategorie"><valueCodeableConcept><coding><system value="http://fhir.abda.de/eRezeptAbgabedaten/CodeSystem/DAV-PKV-CS-ERP-KostenVersicherterKategorie"/><code value="0"/></coding></valueCodeableConcept></extension><extension url="Kostenbetrag"><valueMoney><value value="19.36"/><currency value="EUR"/></valueMoney></extension></extension><extension url="http://fhir.abda.de/eRezeptAbgabedaten/StructureDefinition/DAV-EX-ERP-MwStSatz"><valueDecimal value="25.47"/></extension><type value="informational"/><factor value="1"/><amount><value value="47.01"/><currency value="EUR"/></amount></priceComponent></lineItem><totalGross><extension url="http://fhir.abda.de/eRezeptAbgabedaten/StructureDefinition/DAV-EX-ERP-Gesamtzuzahlung"><valueMoney><value value="19.36"/><currency value="EUR"/></valueMoney></extension><value value="47.01"/><currency value="EUR"/></totalGross></Invoice></resource></entry><entry><fullUrl value="urn:uuid:bbd8da87-9f08-40b9-ad9e-a8f53403f069"/><resource><MedicationDispense xmlns="http://hl7.org/fhir"><id value="bbd8da87-9f08-40b9-ad9e-a8f53403f069"/><meta><profile value="http://fhir.abda.de/eRezeptAbgabedaten/StructureDefinition/DAV-PKV-PR-ERP-Abgabeinformationen|1.4"/></meta><extension url="http://fhir.abda.de/eRezeptAbgabedaten/StructureDefinition/DAV-PKV-EX-ERP-AbrechnungsTyp"><valueCodeableConcept><coding><system value="http://fhir.abda.de/eRezeptAbgabedaten/CodeSystem/DAV-PKV-CS-ERP-AbrechnungsTyp"/><code value="1"/></coding></valueCodeableConcept></extension><extension url="http://fhir.abda.de/eRezeptAbgabedaten/StructureDefinition/DAV-EX-ERP-Abrechnungszeilen"><valueReference><reference value="urn:uuid:2f8d7726-a06c-46af-ac9d-14f5468d3762"/></valueReference></extension><status value="completed"/><medicationCodeableConcept><coding><system value="http://terminology.hl7.org/CodeSystem/data-absent-reason"/><code value="not-applicable"/></coding></medicationCodeableConcept><performer><actor><reference value="urn:uuid:46596074-ee95-4350-8619-520c54bc02e6"/></actor></performer><authorizingPrescription><identifier><system value="https://gematik.de/fhir/erp/NamingSystem/GEM_ERP_NS_PrescriptionId"/><value value="200.000.002.096.531.55"/></identifier></authorizingPrescription><type><coding><system value="http://fhir.abda.de/eRezeptAbgabedaten/CodeSystem/DAV-CS-ERP-MedicationDispenseTyp"/><code value="Abgabeinformationen"/></coding></type><whenHandedOver value="2024-02-08"/></MedicationDispense></resource></entry></Bundle>