<Bundle xmlns="http://hl7.org/fhir">
	<id value="32a298f6-2eb6-4ea2-890b-274ed98d6bd5" />
	<meta>
		<lastUpdated value="2025-03-28T09:07:20.119+01:00" />
		<profile value="http://fhir.abda.de/eRezeptAbgabedaten/StructureDefinition/DAV-PKV-PR-ERP-AbgabedatenBundle|1.3" />
	</meta>
	<identifier>
		<system value="https://gematik.de/fhir/erp/NamingSystem/GEM_ERP_NS_PrescriptionId" />
		<value value="200.000.002.425.315.96" />
	</identifier>
	<type value="document" />
	<timestamp value="2025-03-28T09:07:20.119+01:00" />
	<entry>
		<fullUrl value="urn:uuid:0aa1445f-b00b-4a41-997b-7c74fc8ad2de" />
		<resource>
			<Composition xmlns="http://hl7.org/fhir">
				<id value="0aa1445f-b00b-4a41-997b-7c74fc8ad2de" />
				<meta>
					<profile value="http://fhir.abda.de/eRezeptAbgabedaten/StructureDefinition/DAV-PKV-PR-ERP-AbgabedatenComposition|1.3" />
				</meta>
				<status value="final" />
				<type>
					<coding>
						<system value="http://fhir.abda.de/eRezeptAbgabedaten/CodeSystem/DAV-CS-ERP-CompositionTypes" />
						<code value="ERezeptAbgabedaten" />
					</coding>
				</type>
				<date value="2025-03-28T09:07:20+01:00" />
				<author>
					<reference value="urn:uuid:7736f860-801f-4ce1-9ec8-ca72a8a54328" />
				</author>
				<title value="ERezeptAbgabedaten" />
				<section>
					<title value="Apotheke" />
					<entry>
						<reference value="urn:uuid:7736f860-801f-4ce1-9ec8-ca72a8a54328" />
					</entry>
				</section>
				<section>
					<title value="Abgabeinformationen" />
					<entry>
						<reference value="urn:uuid:508f4ef4-ec6a-4aac-a81e-6495e1d317a2" />
					</entry>
				</section>
			</Composition>
		</resource>
	</entry>
	<entry>
		<fullUrl value="urn:uuid:7736f860-801f-4ce1-9ec8-ca72a8a54328" />
		<resource>
			<Organization xmlns="http://hl7.org/fhir">
				<id value="7736f860-801f-4ce1-9ec8-ca72a8a54328" />
				<meta>
					<profile value="http://fhir.abda.de/eRezeptAbgabedaten/StructureDefinition/DAV-PKV-PR-ERP-Apotheke|1.3" />
				</meta>
				<identifier>
					<system value="http://fhir.de/sid/arge-ik/iknr" />
					<value value="987384214" />
				</identifier>
				<name value="Apotheke Max E. Mumm" />
				<address>
					<type value="physical" />
					<line value="Altenhof 08">
						<extension url="http://hl7.org/fhir/StructureDefinition/iso21090-ADXP-houseNumber">
							<valueString value="08" />
						</extension>
						<extension url="http://hl7.org/fhir/StructureDefinition/iso21090-ADXP-streetName">
							<valueString value="Altenhof" />
						</extension>
					</line>
					<city value="Alt Sinan" />
					<postalCode value="43756" />
					<country value="NEP" />
				</address>
			</Organization>
		</resource>
	</entry>
	<entry>
		<fullUrl value="urn:uuid:0caab74d-fcab-47b2-8204-866555ea033e" />
		<resource>
			<Invoice xmlns="http://hl7.org/fhir">
				<id value="0caab74d-fcab-47b2-8204-866555ea033e" />
				<meta>
					<profile value="http://fhir.abda.de/eRezeptAbgabedaten/StructureDefinition/DAV-PKV-PR-ERP-Abrechnungszeilen|1.3" />
				</meta>
				<status value="issued" />
				<type>
					<coding>
						<system value="http://fhir.abda.de/eRezeptAbgabedaten/CodeSystem/DAV-CS-ERP-InvoiceTyp" />
						<code value="Abrechnungszeilen" />
					</coding>
				</type>
				<lineItem>
					<sequence value="1" />
					<chargeItemCodeableConcept>
						<coding>
							<system value="http://fhir.de/CodeSystem/ifa/pzn" />
							<code value="32258125" />
						</coding>
						<text value="Schoenenberger® 10 mg" />
					</chargeItemCodeableConcept>
					<priceComponent>
						<extension url="http://fhir.abda.de/eRezeptAbgabedaten/StructureDefinition/DAV-EX-ERP-KostenVersicherter">
							<extension url="Kategorie">
								<valueCodeableConcept>
									<coding>
										<system value="http://fhir.abda.de/eRezeptAbgabedaten/CodeSystem/DAV-PKV-CS-ERP-KostenVersicherterKategorie" />
										<code value="0" />
									</coding>
								</valueCodeableConcept>
							</extension>
							<extension url="Kostenbetrag">
								<valueMoney>
									<value value="56.34" />
									<currency value="EUR" />
								</valueMoney>
							</extension>
						</extension>
						<extension url="http://fhir.abda.de/eRezeptAbgabedaten/StructureDefinition/DAV-EX-ERP-MwStSatz">
							<valueDecimal value="19.49" />
						</extension>
						<type value="informational" />
						<factor value="1" />
						<amount>
							<value value="111.69" />
							<currency value="EUR" />
						</amount>
					</priceComponent>
				</lineItem>
				<lineItem>
					<sequence value="2" />
					<chargeItemCodeableConcept>
						<coding>
							<system value="http://fhir.de/CodeSystem/ifa/pzn" />
							<code value="51832245" />
						</coding>
						<text value="Ginkobil® 10 mg" />
					</chargeItemCodeableConcept>
					<priceComponent>
						<extension url="http://fhir.abda.de/eRezeptAbgabedaten/StructureDefinition/DAV-EX-ERP-KostenVersicherter">
							<extension url="Kategorie">
								<valueCodeableConcept>
									<coding>
										<system value="http://fhir.abda.de/eRezeptAbgabedaten/CodeSystem/DAV-PKV-CS-ERP-KostenVersicherterKategorie" />
										<code value="0" />
									</coding>
								</valueCodeableConcept>
							</extension>
							<extension url="Kostenbetrag">
								<valueMoney>
									<value value="39.50" />
									<currency value="EUR" />
								</valueMoney>
							</extension>
						</extension>
						<extension url="http://fhir.abda.de/eRezeptAbgabedaten/StructureDefinition/DAV-EX-ERP-MwStSatz">
							<valueDecimal value="19.49" />
						</extension>
						<type value="informational" />
						<factor value="1" />
						<amount>
							<value value="39.51" />
							<currency value="EUR" />
						</amount>
					</priceComponent>
				</lineItem>
				<lineItem>
					<sequence value="3" />
					<chargeItemCodeableConcept>
						<coding>
							<system value="http://fhir.de/CodeSystem/ifa/pzn" />
							<code value="59924277" />
						</coding>
						<text value="ThermaCare® Mischung 30 mg" />
					</chargeItemCodeableConcept>
					<priceComponent>
						<extension url="http://fhir.abda.de/eRezeptAbgabedaten/StructureDefinition/DAV-EX-ERP-KostenVersicherter">
							<extension url="Kategorie">
								<valueCodeableConcept>
									<coding>
										<system value="http://fhir.abda.de/eRezeptAbgabedaten/CodeSystem/DAV-PKV-CS-ERP-KostenVersicherterKategorie" />
										<code value="0" />
									</coding>
								</valueCodeableConcept>
							</extension>
							<extension url="Kostenbetrag">
								<valueMoney>
									<value value="28.12" />
									<currency value="EUR" />
								</valueMoney>
							</extension>
						</extension>
						<extension url="http://fhir.abda.de/eRezeptAbgabedaten/StructureDefinition/DAV-EX-ERP-MwStSatz">
							<valueDecimal value="19.49" />
						</extension>
						<type value="informational" />
						<factor value="1" />
						<amount>
							<value value="77.36" />
							<currency value="EUR" />
						</amount>
					</priceComponent>
				</lineItem>
				<totalGross>
					<extension url="http://fhir.abda.de/eRezeptAbgabedaten/StructureDefinition/DAV-EX-ERP-Gesamtzuzahlung">
						<valueMoney>
							<value value="123.96" />
							<currency value="EUR" />
						</valueMoney>
					</extension>
					<value value="228.56" />
					<currency value="EUR" />
				</totalGross>
			</Invoice>
		</resource>
	</entry>
	<entry>
		<fullUrl value="urn:uuid:508f4ef4-ec6a-4aac-a81e-6495e1d317a2" />
		<resource>
			<MedicationDispense xmlns="http://hl7.org/fhir">
				<id value="508f4ef4-ec6a-4aac-a81e-6495e1d317a2" />
				<meta>
					<profile value="http://fhir.abda.de/eRezeptAbgabedaten/StructureDefinition/DAV-PKV-PR-ERP-Abgabeinformationen|1.3" />
				</meta>
				<extension url="http://fhir.abda.de/eRezeptAbgabedaten/StructureDefinition/DAV-PKV-EX-ERP-AbrechnungsTyp">
					<valueCodeableConcept>
						<coding>
							<system value="http://fhir.abda.de/eRezeptAbgabedaten/CodeSystem/DAV-PKV-CS-ERP-AbrechnungsTyp" />
							<code value="1" />
						</coding>
					</valueCodeableConcept>
				</extension>
				<extension url="http://fhir.abda.de/eRezeptAbgabedaten/StructureDefinition/DAV-EX-ERP-Abrechnungszeilen">
					<valueReference>
						<reference value="urn:uuid:0caab74d-fcab-47b2-8204-866555ea033e" />
					</valueReference>
				</extension>
				<status value="completed" />
				<medicationCodeableConcept>
					<coding>
						<system value="http://terminology.hl7.org/CodeSystem/data-absent-reason" />
						<code value="not-applicable" />
					</coding>
				</medicationCodeableConcept>
				<performer>
					<actor>
						<reference value="urn:uuid:7736f860-801f-4ce1-9ec8-ca72a8a54328" />
					</actor>
				</performer>
				<authorizingPrescription>
					<identifier>
						<system value="https://gematik.de/fhir/erp/NamingSystem/GEM_ERP_NS_PrescriptionId" />
						<value value="200.000.002.425.315.96" />
					</identifier>
				</authorizingPrescription>
				<type>
					<coding>
						<system value="http://fhir.abda.de/eRezeptAbgabedaten/CodeSystem/DAV-CS-ERP-MedicationDispenseTyp" />
						<code value="Abgabeinformationen" />
					</coding>
				</type>
				<whenHandedOver value="2025-03-28" />
			</MedicationDispense>
		</resource>
	</entry>
</Bundle>
