<Bundle xmlns="http://hl7.org/fhir"><id value="fa7724de-9c3f-47b2-847b-4e2547356054"/><meta><lastUpdated value="2023-04-21T09:37:02.887+02:00"/><profile value="https://fhir.kbv.de/StructureDefinition/KBV_PR_ERP_Bundle|1.0.2"/></meta><identifier><system value="https://gematik.de/fhir/NamingSystem/PrescriptionID"/><value value="160.000.006.315.563.87"/></identifier><type value="document"/><timestamp value="2023-04-21T09:37:02.887+02:00"/><entry><fullUrl value="https://pvs.gematik.de/fhir/Composition/657a7692-a3ac-4c2f-bdaf-ab69dbd5215d"/><resource><Composition xmlns="http://hl7.org/fhir"><id value="657a7692-a3ac-4c2f-bdaf-ab69dbd5215d"/><meta><profile value="https://fhir.kbv.de/StructureDefinition/KBV_PR_ERP_Composition|1.0.2"/></meta><extension url="https://fhir.kbv.de/StructureDefinition/KBV_EX_FOR_Legal_basis"><valueCoding><system value="https://fhir.kbv.de/CodeSystem/KBV_CS_SFHIR_KBV_STATUSKENNZEICHEN"/><code value="00"/></valueCoding></extension><status value="final"/><type><coding><system value="https://fhir.kbv.de/CodeSystem/KBV_CS_SFHIR_KBV_FORMULAR_ART"/><code value="e16A"/></coding></type><subject><reference value="Patient/e127a517-87de-48ec-8095-5e002ec3d689"/></subject><date value="2023-04-21T09:37:02+02:00"/><author><reference value="Practitioner/0f5f8dee-f628-4377-95ae-784771847da2"/><type value="Practitioner"/></author><author><type value="Device"/><identifier><system value="https://fhir.kbv.de/NamingSystem/KBV_NS_FOR_Pruefnummer"/><value value="GEMATIK/410/2109/36/123"/></identifier></author><title value="elektronische Arzneimittelverordnung"/><custodian><reference value="Organization/aaef4403-a28c-4f23-82cf-57becf60a61e"/></custodian><section><code><coding><system value="https://fhir.kbv.de/CodeSystem/KBV_CS_ERP_Section_Type"/><code value="Coverage"/></coding></code><entry><reference value="Coverage/c5c84a4d-263d-4b0a-a564-0bdd022dad09"/></entry></section><section><code><coding><system value="https://fhir.kbv.de/CodeSystem/KBV_CS_ERP_Section_Type"/><code value="Prescription"/></coding></code><entry><reference value="MedicationRequest/5aa0733e-d89e-40a8-9e91-a92f86f0d299"/></entry></section></Composition></resource></entry><entry><fullUrl value="https://pvs.gematik.de/fhir/MedicationRequest/5aa0733e-d89e-40a8-9e91-a92f86f0d299"/><resource><MedicationRequest xmlns="http://hl7.org/fhir"><id value="5aa0733e-d89e-40a8-9e91-a92f86f0d299"/><meta><profile value="https://fhir.kbv.de/StructureDefinition/KBV_PR_ERP_Prescription|1.0.2"/></meta><extension url="https://fhir.kbv.de/StructureDefinition/KBV_EX_ERP_BVG"><valueBoolean value="false"/></extension><extension url="https://fhir.kbv.de/StructureDefinition/KBV_EX_ERP_EmergencyServicesFee"><valueBoolean value="false"/></extension><extension url="https://fhir.kbv.de/StructureDefinition/KBV_EX_ERP_Multiple_Prescription"><extension url="Kennzeichen"><valueBoolean value="false"/></extension></extension><extension url="https://fhir.kbv.de/StructureDefinition/KBV_EX_ERP_StatusCoPayment"><valueCoding><system value="https://fhir.kbv.de/CodeSystem/KBV_CS_ERP_StatusCoPayment"/><code value="0"/></valueCoding></extension><status value="active"/><intent value="order"/><medicationReference><reference value="Medication/4fbb29a3-41d2-40ce-9e2b-30cf29d68ffc"/></medicationReference><subject><reference value="Patient/e127a517-87de-48ec-8095-5e002ec3d689"/></subject><authoredOn value="2023-04-21"/><requester><reference value="Practitioner/0f5f8dee-f628-4377-95ae-784771847da2"/></requester><insurance><reference value="Coverage/c5c84a4d-263d-4b0a-a564-0bdd022dad09"/></insurance><dosageInstruction><extension url="https://fhir.kbv.de/StructureDefinition/KBV_EX_ERP_DosageFlag"><valueBoolean value="true"/></extension><text value="1-0-0-0"/></dosageInstruction><dispenseRequest><quantity><value value="1"/><system value="http://unitsofmeasure.org"/><code value="{Package}"/></quantity></dispenseRequest><substitution><allowedBoolean value="true"/></substitution></MedicationRequest></resource></entry><entry><fullUrl value="https://pvs.gematik.de/fhir/Medication/4fbb29a3-41d2-40ce-9e2b-30cf29d68ffc"/><resource><Medication xmlns="http://hl7.org/fhir"><id value="4fbb29a3-41d2-40ce-9e2b-30cf29d68ffc"/><meta><profile value="https://fhir.kbv.de/StructureDefinition/KBV_PR_ERP_Medication_PZN|1.0.2"/></meta><extension url="https://fhir.kbv.de/StructureDefinition/KBV_EX_ERP_Medication_Category"><valueCoding><system value="https://fhir.kbv.de/CodeSystem/KBV_CS_ERP_Medication_Category"/><code value="00"/></valueCoding></extension><extension url="https://fhir.kbv.de/StructureDefinition/KBV_EX_ERP_Medication_Vaccine"><valueBoolean value="false"/></extension><extension url="http://fhir.de/StructureDefinition/normgroesse"><valueCode value="NB"/></extension><code><coding><system value="http://fhir.de/CodeSystem/ifa/pzn"/><code value="12345678"/></coding><text value="Schmerzmittel"/></code><form><coding><system value="https://fhir.kbv.de/CodeSystem/KBV_CS_SFHIR_KBV_DARREICHUNGSFORM"/><code value="TAB"/></coding></form><amount><numerator><value value="1"/><unit value="Stk"/></numerator><denominator><value value="1"/></denominator></amount></Medication></resource></entry><entry><fullUrl value="https://pvs.gematik.de/fhir/Patient/e127a517-87de-48ec-8095-5e002ec3d689"/><resource><Patient xmlns="http://hl7.org/fhir"><id value="e127a517-87de-48ec-8095-5e002ec3d689"/><meta><profile value="https://fhir.kbv.de/StructureDefinition/KBV_PR_FOR_Patient|1.0.3"/></meta><identifier><type><coding><system value="http://fhir.de/CodeSystem/identifier-type-de-basis"/><code value="PKV"/></coding></type><system value="http://www.acme.com/identifiers/patient"/><value value="X110406067"/></identifier><name><use value="official"/><family value="Straßer"/><given value="Fridolin"/></name><birthDate value="1985-02-19"/><address><type value="both"/><line value="Pfarrer-Jekel-Str. 49"><extension url="http://hl7.org/fhir/StructureDefinition/iso21090-ADXP-houseNumber"><valueString value="49"/></extension><extension url="http://hl7.org/fhir/StructureDefinition/iso21090-ADXP-streetName"><valueString value="Pfarrer-Jekel-Str."/></extension></line><city value="Zannerdorf"/><postalCode value="51050"/><country value="D"/></address></Patient></resource></entry><entry><fullUrl value="https://pvs.gematik.de/fhir/Organization/aaef4403-a28c-4f23-82cf-57becf60a61e"/><resource><Organization xmlns="http://hl7.org/fhir"><id value="aaef4403-a28c-4f23-82cf-57becf60a61e"/><meta><profile value="https://fhir.kbv.de/StructureDefinition/KBV_PR_FOR_Organization|1.0.3"/></meta><identifier><type><coding><system value="http://terminology.hl7.org/CodeSystem/v2-0203"/><code value="BSNR"/></coding></type><system value="https://fhir.kbv.de/NamingSystem/KBV_NS_Base_BSNR"/><value value="173808427"/></identifier><name value="Arztpraxis Claudius"/><telecom><system value="phone"/><value value="+49-443-8779294"/></telecom><telecom><system value="email"/><value value="mette.harms@hehl.com"/></telecom><address><type value="both"/><line value="Pfarrer-Röhr-Str. 80a"><extension url="http://hl7.org/fhir/StructureDefinition/iso21090-ADXP-houseNumber"><valueString value="80a"/></extension><extension url="http://hl7.org/fhir/StructureDefinition/iso21090-ADXP-streetName"><valueString value="Pfarrer-Röhr-Str."/></extension></line><city value="Süd Elanur"/><postalCode value="74420"/><country value="D"/></address></Organization></resource></entry><entry><fullUrl value="https://pvs.gematik.de/fhir/Coverage/c5c84a4d-263d-4b0a-a564-0bdd022dad09"/><resource><Coverage xmlns="http://hl7.org/fhir"><id value="c5c84a4d-263d-4b0a-a564-0bdd022dad09"/><meta><profile value="https://fhir.kbv.de/StructureDefinition/KBV_PR_FOR_Coverage|1.0.3"/></meta><extension url="http://fhir.de/StructureDefinition/gkv/besondere-personengruppe"><valueCoding><system value="https://fhir.kbv.de/CodeSystem/KBV_CS_SFHIR_KBV_PERSONENGRUPPE"/><code value="00"/></valueCoding></extension><extension url="http://fhir.de/StructureDefinition/gkv/dmp-kennzeichen"><valueCoding><system value="https://fhir.kbv.de/CodeSystem/KBV_CS_SFHIR_KBV_DMP"/><code value="00"/></valueCoding></extension><extension url="http://fhir.de/StructureDefinition/gkv/wop"><valueCoding><system value="https://fhir.kbv.de/CodeSystem/KBV_CS_SFHIR_ITA_WOP"/><code value="61"/></valueCoding></extension><extension url="http://fhir.de/StructureDefinition/gkv/versichertenart"><valueCoding><system value="https://fhir.kbv.de/CodeSystem/KBV_CS_SFHIR_KBV_VERSICHERTENSTATUS"/><code value="1"/></valueCoding></extension><status value="active"/><type><coding><system value="http://fhir.de/CodeSystem/versicherungsart-de-basis"/><code value="BEI"/></coding></type><beneficiary><reference value="Patient/baf6b5a5-5f80-44bb-888a-a0493624a7d3"/></beneficiary><payor><identifier><system value="http://fhir.de/NamingSystem/arge-ik/iknr"/><value value="646623500"/></identifier><display value="KOA Pfalz"/></payor></Coverage></resource></entry><entry><fullUrl value="https://pvs.gematik.de/fhir/Practitioner/0f5f8dee-f628-4377-95ae-784771847da2"/><resource><Practitioner xmlns="http://hl7.org/fhir"><id value="0f5f8dee-f628-4377-95ae-784771847da2"/><meta><profile value="https://fhir.kbv.de/StructureDefinition/KBV_PR_FOR_Practitioner|1.0.3"/></meta><identifier><type><coding><system value="http://terminology.hl7.org/CodeSystem/v2-0203"/><code value="LANR"/></coding></type><system value="https://fhir.kbv.de/NamingSystem/KBV_NS_Base_ANR"/><value value="012241005"/></identifier><name><use value="official"/><family value="Claudius"/><given value="Bernd"/><prefix value="Dr."><extension url="http://hl7.org/fhir/StructureDefinition/iso21090-EN-qualifier"><valueCode value="AC"/></extension></prefix></name><qualification><code><coding><system value="https://fhir.kbv.de/CodeSystem/KBV_CS_FOR_Qualification_Type"/><code value="00"/></coding></code></qualification><qualification><code><text value="Super-Facharzt für alles Mögliche"/></code></qualification></Practitioner></resource></entry></Bundle>