<Bundle xmlns="http://hl7.org/fhir"><id value="a3e208e8-5072-473d-a097-e54dceb80021"/><meta><lastUpdated value="2023-03-16T12:53:53.247+01:00"/><profile value="https://fhir.kbv.de/StructureDefinition/KBV_PR_ERP_Bundle|1.0.2"/></meta><identifier><system value="https://gematik.de/fhir/NamingSystem/PrescriptionID"/><value value="160.000.006.300.854.79"/></identifier><type value="document"/><timestamp value="2023-03-16T12:53:53.247+01:00"/><entry><fullUrl value="https://pvs.gematik.de/fhir/Composition/9b1d30c6-a271-4b9c-bf33-40659b74cefa"/><resource><Composition xmlns="http://hl7.org/fhir"><id value="9b1d30c6-a271-4b9c-bf33-40659b74cefa"/><meta><profile value="https://fhir.kbv.de/StructureDefinition/KBV_PR_ERP_Composition|1.0.2"/></meta><extension url="https://fhir.kbv.de/StructureDefinition/KBV_EX_FOR_Legal_basis"><valueCoding><system value="https://fhir.kbv.de/CodeSystem/KBV_CS_SFHIR_KBV_STATUSKENNZEICHEN"/><code value="00"/></valueCoding></extension><status value="final"/><type><coding><system value="https://fhir.kbv.de/CodeSystem/KBV_CS_SFHIR_KBV_FORMULAR_ART"/><code value="e16A"/></coding></type><subject><reference value="Patient/67a6e100-0c91-477f-98d1-34355efc5747"/></subject><date value="2023-03-16T12:53:53+01:00"/><author><reference value="Practitioner/22b1beca-fe10-4fe8-a1cb-418b9c458a8c"/><type value="Practitioner"/></author><author><type value="Device"/><identifier><system value="https://fhir.kbv.de/NamingSystem/KBV_NS_FOR_Pruefnummer"/><value value="GEMATIK/410/2109/36/123"/></identifier></author><title value="elektronische Arzneimittelverordnung"/><custodian><reference value="Organization/cd7b5cef-5dd7-4086-8501-661b468e8786"/></custodian><section><code><coding><system value="https://fhir.kbv.de/CodeSystem/KBV_CS_ERP_Section_Type"/><code value="Coverage"/></coding></code><entry><reference value="Coverage/0f0752ef-784f-4330-8e73-c692b23186cf"/></entry></section><section><code><coding><system value="https://fhir.kbv.de/CodeSystem/KBV_CS_ERP_Section_Type"/><code value="Prescription"/></coding></code><entry><reference value="MedicationRequest/45d283f7-b55c-41e5-bbc0-ec1c342c6138"/></entry></section></Composition></resource></entry><entry><fullUrl value="https://pvs.gematik.de/fhir/MedicationRequest/45d283f7-b55c-41e5-bbc0-ec1c342c6138"/><resource><MedicationRequest xmlns="http://hl7.org/fhir"><id value="45d283f7-b55c-41e5-bbc0-ec1c342c6138"/><meta><profile value="https://fhir.kbv.de/StructureDefinition/KBV_PR_ERP_Prescription|1.0.2"/></meta><extension url="https://fhir.kbv.de/StructureDefinition/KBV_EX_ERP_BVG"><valueBoolean value="false"/></extension><extension url="https://fhir.kbv.de/StructureDefinition/KBV_EX_ERP_EmergencyServicesFee"><valueBoolean value="false"/></extension><extension url="https://fhir.kbv.de/StructureDefinition/KBV_EX_ERP_Multiple_Prescription"><extension url="Kennzeichen"><valueBoolean value="false"/></extension></extension><extension url="https://fhir.kbv.de/StructureDefinition/KBV_EX_ERP_StatusCoPayment"><valueCoding><system value="https://fhir.kbv.de/CodeSystem/KBV_CS_ERP_StatusCoPayment"/><code value="0"/></valueCoding></extension><status value="active"/><intent value="order"/><medicationReference><reference value="Medication/2251c2b7-eb04-4ba8-8946-27241b00b7fa"/></medicationReference><subject><reference value="Patient/67a6e100-0c91-477f-98d1-34355efc5747"/></subject><authoredOn value="2023-03-16"/><requester><reference value="Practitioner/22b1beca-fe10-4fe8-a1cb-418b9c458a8c"/></requester><insurance><reference value="Coverage/0f0752ef-784f-4330-8e73-c692b23186cf"/></insurance><dosageInstruction><extension url="https://fhir.kbv.de/StructureDefinition/KBV_EX_ERP_DosageFlag"><valueBoolean value="true"/></extension><text value="1-0-0-0"/></dosageInstruction><dispenseRequest><quantity><value value="1"/><system value="http://unitsofmeasure.org"/><code value="{Package}"/></quantity></dispenseRequest><substitution><allowedBoolean value="true"/></substitution></MedicationRequest></resource></entry><entry><fullUrl value="https://pvs.gematik.de/fhir/Medication/2251c2b7-eb04-4ba8-8946-27241b00b7fa"/><resource><Medication xmlns="http://hl7.org/fhir"><id value="2251c2b7-eb04-4ba8-8946-27241b00b7fa"/><meta><profile value="https://fhir.kbv.de/StructureDefinition/KBV_PR_ERP_Medication_PZN|1.0.2"/></meta><extension url="https://fhir.kbv.de/StructureDefinition/KBV_EX_ERP_Medication_Category"><valueCoding><system value="https://fhir.kbv.de/CodeSystem/KBV_CS_ERP_Medication_Category"/><code value="00"/></valueCoding></extension><extension url="https://fhir.kbv.de/StructureDefinition/KBV_EX_ERP_Medication_Vaccine"><valueBoolean value="false"/></extension><extension url="http://fhir.de/StructureDefinition/normgroesse"><valueCode value="NB"/></extension><code><coding><system value="http://fhir.de/CodeSystem/ifa/pzn"/><code value="12345678"/></coding><text value="Schmerzmittel"/></code><form><coding><system value="https://fhir.kbv.de/CodeSystem/KBV_CS_SFHIR_KBV_DARREICHUNGSFORM"/><code value="TAB"/></coding></form><amount><numerator><value value="1"/><unit value="Stk"/></numerator><denominator><value value="1"/></denominator></amount></Medication></resource></entry><entry><fullUrl value="https://pvs.gematik.de/fhir/Patient/67a6e100-0c91-477f-98d1-34355efc5747"/><resource><Patient xmlns="http://hl7.org/fhir"><id value="67a6e100-0c91-477f-98d1-34355efc5747"/><meta><profile value="https://fhir.kbv.de/StructureDefinition/KBV_PR_FOR_Patient|1.0.3"/></meta><identifier><type><coding><system value="http://fhir.de/CodeSystem/identifier-type-de-basis"/><code value="GKV"/></coding></type><system value="http://fhir.de/NamingSystem/gkv/kvid-10"/><value value="X110406067"/></identifier><name><use value="official"/><family value="Straßer"/><given value="Fridolin"/></name><birthDate value="1986-01-26"/><address><type value="both"/><line value="Saarbrücker Str. 5"><extension url="http://hl7.org/fhir/StructureDefinition/iso21090-ADXP-houseNumber"><valueString value="5"/></extension><extension url="http://hl7.org/fhir/StructureDefinition/iso21090-ADXP-streetName"><valueString value="Saarbrücker Str."/></extension></line><city value="West Clarissa"/><postalCode value="93877"/><country value="D"/></address></Patient></resource></entry><entry><fullUrl value="https://pvs.gematik.de/fhir/Organization/cd7b5cef-5dd7-4086-8501-661b468e8786"/><resource><Organization xmlns="http://hl7.org/fhir"><id value="cd7b5cef-5dd7-4086-8501-661b468e8786"/><meta><profile value="https://fhir.kbv.de/StructureDefinition/KBV_PR_FOR_Organization|1.0.3"/></meta><identifier><type><coding><system value="http://terminology.hl7.org/CodeSystem/v2-0203"/><code value="BSNR"/></coding></type><system value="https://fhir.kbv.de/NamingSystem/KBV_NS_Base_BSNR"/><value value="516520248"/></identifier><name value="Arztpraxis Claudius"/><telecom><system value="phone"/><value value="+49-2784-95140575"/></telecom><telecom><system value="email"/><value value="liam.deerberg@herwig.com"/></telecom><address><type value="both"/><line value="Burgloch 19b"><extension url="http://hl7.org/fhir/StructureDefinition/iso21090-ADXP-houseNumber"><valueString value="19b"/></extension><extension url="http://hl7.org/fhir/StructureDefinition/iso21090-ADXP-streetName"><valueString value="Burgloch"/></extension></line><city value="Mirjafeld"/><postalCode value="56241"/><country value="D"/></address></Organization></resource></entry><entry><fullUrl value="https://pvs.gematik.de/fhir/Coverage/0f0752ef-784f-4330-8e73-c692b23186cf"/><resource><Coverage xmlns="http://hl7.org/fhir"><id value="0f0752ef-784f-4330-8e73-c692b23186cf"/><meta><profile value="https://fhir.kbv.de/StructureDefinition/KBV_PR_FOR_Coverage|1.0.3"/></meta><extension url="http://fhir.de/StructureDefinition/gkv/besondere-personengruppe"><valueCoding><system value="https://fhir.kbv.de/CodeSystem/KBV_CS_SFHIR_KBV_PERSONENGRUPPE"/><code value="00"/></valueCoding></extension><extension url="http://fhir.de/StructureDefinition/gkv/dmp-kennzeichen"><valueCoding><system value="https://fhir.kbv.de/CodeSystem/KBV_CS_SFHIR_KBV_DMP"/><code value="00"/></valueCoding></extension><extension url="http://fhir.de/StructureDefinition/gkv/wop"><valueCoding><system value="https://fhir.kbv.de/CodeSystem/KBV_CS_SFHIR_ITA_WOP"/><code value="55"/></valueCoding></extension><extension url="http://fhir.de/StructureDefinition/gkv/versichertenart"><valueCoding><system value="https://fhir.kbv.de/CodeSystem/KBV_CS_SFHIR_KBV_VERSICHERTENSTATUS"/><code value="1"/></valueCoding></extension><status value="active"/><type><coding><system value="http://fhir.de/CodeSystem/versicherungsart-de-basis"/><code value="BEI"/></coding></type><beneficiary><reference value="Patient/6438970c-46c2-492e-8abc-423aa718c009"/></beneficiary><payor><identifier><system value="http://fhir.de/NamingSystem/arge-ik/iknr"/><value value="952549338"/></identifier><display value="KVED Krankenversicherungs-AG Niedersachsen"/></payor></Coverage></resource></entry><entry><fullUrl value="https://pvs.gematik.de/fhir/Practitioner/22b1beca-fe10-4fe8-a1cb-418b9c458a8c"/><resource><Practitioner xmlns="http://hl7.org/fhir"><id value="22b1beca-fe10-4fe8-a1cb-418b9c458a8c"/><meta><profile value="https://fhir.kbv.de/StructureDefinition/KBV_PR_FOR_Practitioner|1.0.3"/></meta><identifier><type><coding><system value="http://terminology.hl7.org/CodeSystem/v2-0203"/><code value="LANR"/></coding></type><system value="https://fhir.kbv.de/NamingSystem/KBV_NS_Base_ANR"/><value value="900819717"/></identifier><name><use value="official"/><family value="Claudius"/><given value="Bernd"/><prefix value="Dr."><extension url="http://hl7.org/fhir/StructureDefinition/iso21090-EN-qualifier"><valueCode value="AC"/></extension></prefix></name><qualification><code><coding><system value="https://fhir.kbv.de/CodeSystem/KBV_CS_FOR_Qualification_Type"/><code value="00"/></coding></code></qualification><qualification><code><text value="Super-Facharzt für alles Mögliche"/></code></qualification></Practitioner></resource></entry></Bundle>