<Parameters xmlns="http://hl7.org/fhir">
   <id value="8c9d3bac-2dc7-4faf-b6de-d6fc1d3edb67"/>
   <meta>
      <profile value="https://gematik.de/fhir/epa-medication/StructureDefinition/epa-op-provide-dispensation-erp-input-parameters|1.0.3"/>
   </meta>
   <parameter>
      <name value="rxDispensation"/>
      <part>
         <name value="prescriptionId"/>
         <valueIdentifier>
            <system value="https://gematik.de/fhir/erp/NamingSystem/GEM_ERP_NS_PrescriptionId"/>
            <value value="160.100.000.000.019.82"/>
         </valueIdentifier>
      </part>
      <part>
         <name value="authoredOn"/>
         <valueDate value="1970-01-01"/>
      </part>
      <part>
         <name value="medicationDispense"/>
         <resource>
            <MedicationDispense xmlns="http://hl7.org/fhir">
               <id value="7f76b321-1ccf-4daf-a272-164b372d0099"/>
               <meta>
                  <profile value="https://gematik.de/fhir/epa-medication/StructureDefinition/epa-medication-dispense|1.0.3"/>
               </meta>
               <identifier>
                  <system value="https://gematik.de/fhir/epa-medication/sid/rx-originator-process-identifier"/>
                  <value value="95db25e9-b37b-4241-9bcb-708f5f637565_160.100.000.000.019.82"/>
               </identifier>
               <status value="completed"/>
               <category>
                  <coding>
                     <system value="https://gematik.de/fhir/epa-medication/CodeSystem/EPAMedicationDispenseCategoryCS"/>
                     <code value="prescription"/>
                     <display value="prescription dispense"/>
                  </coding>
               </category>
               <medicationReference>
                  <reference value="Medication/6cf30403-3f8d-4058-9373-75956f81527d"/>
               </medicationReference>
               <subject>
                  <identifier>
                     <system value="http://fhir.de/sid/gkv/kvid-10"/>
                     <value value="K030182229"/>
                  </identifier>
               </subject>
               <performer>
                  <actor>
                     <reference value="Organization/d9d1c159-6545-4a3c-a61c-4c1c7f3818e2"/>
                  </actor>
               </performer>
               <whenHandedOver value="2024-11-27"/>
               <dosageInstruction>
                  <text value="1-0-0-0"/>
               </dosageInstruction>
            </MedicationDispense>
         </resource>
      </part>
      <part>
         <name value="medication"/>
         <resource>
            <Medication xmlns="http://hl7.org/fhir">
               <id value="6cf30403-3f8d-4058-9373-75956f81527d"/>
               <meta>
                  <profile value="https://gematik.de/fhir/epa-medication/StructureDefinition/epa-medication|1.0.3"/>
               </meta>
               <extension url="https://gematik.de/fhir/epa-medication/StructureDefinition/drug-category-extension">
                  <valueCoding>
                     <system value="https://gematik.de/fhir/epa-medication/CodeSystem/epa-drug-category-cs"/>
                     <code value="00"/>
                  </valueCoding>
               </extension>
               <extension url="https://gematik.de/fhir/epa-medication/StructureDefinition/medication-id-vaccine-extension">
                  <valueBoolean value="false"/>
               </extension>
               <extension url="http://fhir.de/StructureDefinition/normgroesse">
                  <valueCode value="N3"/>
               </extension>
               <code>
                  <coding>
                     <system value="http://fhir.de/CodeSystem/ifa/pzn"/>
                     <code value="01755640"/>
                  </coding>
                  <text value="RAMIPRIL AbZ 5 mg Tabletten (100 St)"/>
               </code>
               <form>
                  <coding>
                     <system value="https://fhir.kbv.de/CodeSystem/KBV_CS_SFHIR_KBV_DARREICHUNGSFORM"/>
                     <code value="TAB"/>
                  </coding>
               </form>
               <amount>
                  <numerator>
                     <extension url="https://gematik.de/fhir/epa-medication/StructureDefinition/medication-packaging-size-extension">
                        <valueString value="100"/>
                     </extension>
                     <unit value="Tabletten"/>
                  </numerator>
                  <denominator>
                     <value value="1"/>
                  </denominator>
               </amount>
               <batch>
                  <lotNumber value="A123456789-1"/>
                  <expirationDate value="2025-12-31"/>
               </batch>
            </Medication>
         </resource>
      </part>
      <part>
         <name value="organization"/>
         <resource>
            <Organization xmlns="http://hl7.org/fhir">
               <id value="d9d1c159-6545-4a3c-a61c-4c1c7f3818e2"/>
               <meta>
                  <profile value="https://gematik.de/fhir/directory/StructureDefinition/OrganizationDirectory|0.11.12"/>
                  <tag>
                     <system value="https://gematik.de/fhir/directory/CodeSystem/Origin"/>
                     <code value="ldap"/>
                  </tag>
               </meta>
               <identifier>
                  <system value="https://gematik.de/fhir/sid/telematik-id"/>
                  <value value="3-07.2.1234560000.10.789"/>
               </identifier>
               <type>
                  <coding>
                     <system value="https://gematik.de/fhir/directory/CodeSystem/OrganizationProfessionOID"/>
                     <code value="1.2.276.0.76.4.58"/>
                  </coding>
               </type>
               <name value="Frank N. Beans"/>
            </Organization>
         </resource>
      </part>
   </parameter>
</Parameters>