{
  "resourceType": "Bundle",
  "id": "56137a0a-9e20-45df-a614-57d02ee94b50",
  "meta": {
    "profile": [
      "https://fhir.gkvsv.de/StructureDefinition/GKVSV_PR_TA7_Rechnung_Bundle|1.4"
    ],
    "tag": [
      {
        "display": "Beispiel der TA7/eAbrechnungsdaten."
      },
      {
        "display": "ACHTUNG! Der fachlich korrekte Inhalt der Beispielinstanz kann nicht gewährleistet werden. Wir sind jederzeit dankbar für Hinweise auf Fehler oder für Verbesserungsvorschläge."
      }
    ]
  },
  "identifier": {
    "extension": [
      {
        "url": "https://fhir.gkvsv.de/StructureDefinition/GKVSV_EX_ERP_TA7_Dateinummer",
        "valueString": "00002"
      }
    ],
    "system": "https://fhir.gkvsv.de/NamingSystem/GKVSV_NS_Dateiname",
    "value": "B00FHR24002"
  },
  "type": "document",
  "timestamp": "2024-12-02T10:00:00+00:00",
  "entry": [
    {
      "fullUrl": "urn:uuid:c7397e6b-1590-4731-a183-d060ef67e397",
      "resource": {
        "resourceType": "Composition",
        "id": "c7397e6b-1590-4731-a183-d060ef67e397",
        "meta": {
          "profile": [
            "https://fhir.gkvsv.de/StructureDefinition/GKVSV_PR_TA7_Rechnung_Composition|1.4"
          ]
        },
        "extension": [
          {
            "url": "https://fhir.gkvsv.de/StructureDefinition/GKVSV_EX_TA7_IK_Empfaenger",
            "valueIdentifier": {
              "system": "http://fhir.de/sid/arge-ik/iknr",
              "value": "104212516"
            }
          },
          {
            "url": "https://fhir.gkvsv.de/StructureDefinition/GKVSV_EX_TA7_IK_Kostentraeger",
            "valueIdentifier": {
              "system": "http://fhir.de/sid/arge-ik/iknr",
              "value": "104212505"
            }
          }
        ],
        "identifier": {
          "system": "https://fhir.gkvsv.de/NamingSystem/GKVSV_NS_Rechnungsnummer",
          "value": "104212506-01-020823"
        },
        "status": "final",
        "type": {
          "coding": [
            {
              "system": "https://fhir.gkvsv.de/CodeSystem/GKVSV_CS_ERP_Rechnungsart",
              "code": "6"
            }
          ]
        },
        "date": "2025-01-31",
        "_date": {
          "extension": [
            {
              "url": "https://fhir.gkvsv.de/StructureDefinition/GKVSV_EX_ERP_TA7_Rechnungsdatum",
              "valueDateTime": "2024-12-02"
            }
          ]
        },
        "author": [
          {
            "identifier": {
              "system": "http://fhir.de/sid/arge-ik/iknr",
              "value": "308400023"
            }
          }
        ],
        "title": "elektronische Rechnung",
        "section": [
          {
            "code": {
              "coding": [
                {
                  "system": "https://fhir.gkvsv.de/CodeSystem/GKVSV_CS_ERP_TA7",
                  "code": "LR"
                }
              ]
            },
            "entry": [
              {
                "reference": "urn:uuid:b6c3602f-35ce-453d-9f6f-79455c3edd75"
              }
            ]
          },
          {
            "code": {
              "coding": [
                {
                  "system": "https://fhir.gkvsv.de/CodeSystem/GKVSV_CS_ERP_TA7",
                  "code": "RB",
                  "display": "Rezept-Bundle"
                }
              ]
            },
            "entry": [
              {
                "reference": "urn:uuid:71458fc1-81de-410e-a4a2-15f4f8e80093"
              }
            ]
          }
        ]
      }
    },
    {
      "fullUrl": "urn:uuid:b6c3602f-35ce-453d-9f6f-79455c3edd75",
      "resource": {
        "resourceType": "List",
        "id": "b6c3602f-35ce-453d-9f6f-79455c3edd75",
        "meta": {
          "profile": [
            "https://fhir.gkvsv.de/StructureDefinition/GKVSV_PR_TA7_Rechnung_List|1.4"
          ]
        },
        "status": "current",
        "mode": "working",
        "entry": [
          {
            "item": {
              "identifier": {
                "system": "https://fhir.gkvsv.de/NamingSystem/GKVSV_NS_Dateiname",
                "value": "B00FHR24002"
              }
            }
          }
        ]
      }
    },
    {
      "fullUrl": "urn:uuid:71458fc1-81de-410e-a4a2-15f4f8e80093",
      "resource": {
        "resourceType": "Bundle",
        "id": "71458fc1-81de-410e-a4a2-15f4f8e80093",
        "meta": {
          "profile": [
            "https://fhir.gkvsv.de/StructureDefinition/GKVSV_PR_TA7_RezeptBundle|1.4"
          ]
        },
        "type": "collection",
        "entry": [
          {
            "link": [
              {
                "relation": "item",
                "url": "https://fhir.kbv.de/StructureDefinition/KBV_PR_ERP_Bundle"
              }
            ],
            "fullUrl": "urn:uuid:7fb72c19-0fdb-4480-8ff1-9a9f2c0bbf7d",
            "resource": {
              "resourceType": "Binary",
              "id": "7fb72c19-0fdb-4480-8ff1-9a9f2c0bbf7d",
              "meta": {
                "profile": [
                  "https://fhir.gkvsv.de/StructureDefinition/GKVSV_PR_Binary|1.4"
                ]
              },
              "contentType": "application/pkcs7-mime",
              "data": "VmVyb3JkbnVuZ3NkYXRlbiBCZWlzcGllbCBFcnN0ZWxsdW5nIEJlaXNwaWVsIGVBYnJlY2hudW5nc2RhdGVu"
            }
          },
          {
            "link": [
              {
                "relation": "item",
                "url": "https://gematik.de/fhir/StructureDefinition/ErxReceipt"
              }
            ],
            "fullUrl": "urn:uuid:3671f82f-a795-4149-b51e-7c7f6af414e9",
            "resource": {
              "resourceType": "Binary",
              "id": "3671f82f-a795-4149-b51e-7c7f6af414e9",
              "meta": {
                "profile": [
                  "https://fhir.gkvsv.de/StructureDefinition/GKVSV_PR_Binary|1.4"
                ]
              },
              "contentType": "application/pkcs7-mime",
              "data": "UXVpdHR1bmdzLUJlaXNwaWVsIEVyc3RlbGx1bmcgQmVpc3BpZWwgZUFicmVjaG51bmdzZGF0ZW4="
            }
          },
          {
            "link": [
              {
                "relation": "item",
                "url": "http://fhir.abda.de/eRezeptAbgabedaten/StructureDefinition/DAV-PR-ERP-AbgabedatenBundle"
              }
            ],
            "fullUrl": "urn:uuid:6b8ff157-c171-4554-9bdc-6dcd400bff0b",
            "resource": {
              "resourceType": "Binary",
              "id": "6b8ff157-c171-4554-9bdc-6dcd400bff0b",
              "meta": {
                "profile": [
                  "https://fhir.gkvsv.de/StructureDefinition/GKVSV_PR_Binary|1.4"
                ]
              },
              "contentType": "application/pkcs7-mime",
              "data": "ZUFiZ2FiZWRhdGVuIEJlaXNwaWVsIEVyc3RlbGx1bmcgQmVpc3BpZWwgZUFicmVjaG51bmdzZGF0ZW4="
            }
          },
          {
            "link": [
              {
                "relation": "item",
                "url": "https://fhir.gkvsv.de/StructureDefinition/GKVSV_PR_ERP_eAbrechnungsdaten"
              }
            ],
            "fullUrl": "urn:uuid:2d747338-254e-40c8-ac47-b2172ba13d0e",
            "resource": {
              "resourceType": "Invoice",
              "id": "2d747338-254e-40c8-ac47-b2172ba13d0e",
              "meta": {
                "profile": [
                  "https://fhir.gkvsv.de/StructureDefinition/GKVSV_PR_ERP_eAbrechnungsdaten|1.4"
                ]
              },
              "extension": [
                {
                  "url": "https://fhir.gkvsv.de/StructureDefinition/GKVSV_EX_ERP_Irrlaeufer",
                  "valueBoolean": false
                }
              ],
              "identifier": [
                {
                  "system": "https://gematik.de/fhir/erp/NamingSystem/GEM_ERP_NS_PrescriptionId",
                  "value": "160.100.000.000.007.21"
                },
                {
                  "system": "https://fhir.gkvsv.de/NamingSystem/GKVSV_NS_Belegnummer",
                  "value": "2103000000010000001"
                }
              ],
              "status": "issued",
              "issuer": {
                "extension": [
                  {
                    "url": "https://fhir.gkvsv.de/StructureDefinition/GKVSV_EX_ERP_LE_Sitz",
                    "valueCoding": {
                      "system": "https://fhir.gkvsv.de/CodeSystem/GKVSV_CS_ERP_Leistungserbringer_Sitz",
                      "code": "1"
                    }
                  }
                ],
                "identifier": {
                  "type": {
                    "coding": [
                      {
                        "system": "https://fhir.gkvsv.de/CodeSystem/GKVSV_CS_ERP_Leistungserbringertyp",
                        "code": "A"
                      }
                    ]
                  },
                  "system": "http://fhir.de/sid/arge-ik/iknr",
                  "value": "308412345"
                }
              },
              "lineItem": [
                {
                  "extension": [
                    {
                      "url": "https://fhir.gkvsv.de/StructureDefinition/GKVSV_EX_ERP_Positionstyp",
                      "valueCodeableConcept": {
                        "coding": [
                          {
                            "system": "https://fhir.gkvsv.de/CodeSystem/GKVSV_CS_ERP_Positionstyp",
                            "code": "1",
                            "display": "übrige Position"
                          }
                        ]
                      }
                    },
                    {
                      "url": "https://fhir.gkvsv.de/StructureDefinition/GKVSV_EX_ERP_VAT_VALUE",
                      "valueMoney": {
                        "value": 16.71,
                        "currency": "EUR"
                      }
                    },
                    {
                      "url": "https://fhir.gkvsv.de/StructureDefinition/GKVSV_EX_ERP_Import",
                      "valueCodeableConcept": {
                        "coding": [
                          {
                            "system": "https://fhir.gkvsv.de/CodeSystem/GKVSV_CS_ERP_Import",
                            "code": "0"
                          }
                        ]
                      }
                    }
                  ],
                  "sequence": 1,
                  "chargeItemCodeableConcept": {
                    "coding": [
                      {
                        "system": "http://terminology.hl7.org/CodeSystem/v3-NullFlavor",
                        "code": "UNC"
                      }
                    ]
                  },
                  "priceComponent": [
                    {
                      "type": "deduction",
                      "code": {
                        "coding": [
                          {
                            "system": "https://fhir.gkvsv.de/CodeSystem/GKVSV_CS_ERP_ZuAbschlagKey",
                            "code": "R001"
                          }
                        ]
                      },
                      "amount": {
                        "value": -1.77,
                        "currency": "EUR"
                      }
                    }
                  ]
                }
              ]
            }
          }
        ]
      }
    }
  ]
}