<Bundle xmlns="http://hl7.org/fhir"><id value="afb1416d-ab58-4af7-9878-e29d69d58fe3"/><meta><profile value="https://fhir.kbv.de/StructureDefinition/KBV_PR_ERP_Bundle|1.1.0"/></meta><identifier><system value="https://gematik.de/fhir/erp/NamingSystem/GEM_ERP_NS_PrescriptionId"/><value value="200.000.002.425.304.32"/></identifier><type value="document"/><timestamp value="2025-03-28T09:02:11.065+01:00"/><entry><fullUrl value="https://pvs.gematik.de/fhir/Composition/2e259ce9-8b2b-42fc-9c25-d5b8b08d3580"/><resource><Composition xmlns="http://hl7.org/fhir"><id value="2e259ce9-8b2b-42fc-9c25-d5b8b08d3580"/><meta><profile value="https://fhir.kbv.de/StructureDefinition/KBV_PR_ERP_Composition|1.1.0"/></meta><extension url="https://fhir.kbv.de/StructureDefinition/KBV_EX_FOR_Legal_basis"><valueCoding><system value="https://fhir.kbv.de/CodeSystem/KBV_CS_SFHIR_KBV_STATUSKENNZEICHEN"/><code value="00"/></valueCoding></extension><status value="final"/><type><coding><system value="https://fhir.kbv.de/CodeSystem/KBV_CS_SFHIR_KBV_FORMULAR_ART"/><code value="e16A"/></coding></type><subject><reference value="Patient/0324f2fa-bc2a-4dfb-be17-5d3ef70177d7"/></subject><date value="2025-03-28T09:02:11+01:00"/><author><type value="Device"/><identifier><system value="https://fhir.kbv.de/NamingSystem/KBV_NS_FOR_Pruefnummer"/><value value="GEMATIK/410/2109/36/123"/></identifier></author><author><reference value="Practitioner/8fcc72e9-c568-4671-891b-795cf89bf07e"/><type value="Practitioner"/></author><title value="elektronische Arzneimittelverordnung"/><custodian><reference value="Organization/64eb04d4-99e2-4071-addd-47b7206c064d"/></custodian><section><code><coding><system value="https://fhir.kbv.de/CodeSystem/KBV_CS_ERP_Section_Type"/><code value="Coverage"/></coding></code><entry><reference value="Coverage/bbf37115-0f18-4e15-88e7-a07e73814b43"/></entry></section><section><code><coding><system value="https://fhir.kbv.de/CodeSystem/KBV_CS_ERP_Section_Type"/><code value="Prescription"/></coding></code><entry><reference value="MedicationRequest/92e60fb6-e4b0-4268-9442-f1527b372294"/></entry></section></Composition></resource></entry><entry><fullUrl value="https://pvs.gematik.de/fhir/Coverage/bbf37115-0f18-4e15-88e7-a07e73814b43"/><resource><Coverage xmlns="http://hl7.org/fhir"><id value="bbf37115-0f18-4e15-88e7-a07e73814b43"/><meta><profile value="https://fhir.kbv.de/StructureDefinition/KBV_PR_FOR_Coverage|1.1.0"/></meta><extension url="http://fhir.de/StructureDefinition/gkv/besondere-personengruppe"><valueCoding><system value="https://fhir.kbv.de/CodeSystem/KBV_CS_SFHIR_KBV_PERSONENGRUPPE"/><code value="00"/></valueCoding></extension><extension url="http://fhir.de/StructureDefinition/gkv/dmp-kennzeichen"><valueCoding><system value="https://fhir.kbv.de/CodeSystem/KBV_CS_SFHIR_KBV_DMP"/><code value="00"/></valueCoding></extension><extension url="http://fhir.de/StructureDefinition/gkv/wop"><valueCoding><system value="https://fhir.kbv.de/CodeSystem/KBV_CS_SFHIR_ITA_WOP"/><code value="02"/></valueCoding></extension><extension url="http://fhir.de/StructureDefinition/gkv/versichertenart"><valueCoding><system value="https://fhir.kbv.de/CodeSystem/KBV_CS_SFHIR_KBV_VERSICHERTENSTATUS"/><code value="1"/></valueCoding></extension><status value="active"/><type><coding><system value="http://fhir.de/CodeSystem/versicherungsart-de-basis"/><code value="PKV"/></coding></type><beneficiary><reference value="Patient/cdd6f913-8ea4-4b03-b437-58ca68c446cf"/></beneficiary><payor><identifier><system value="http://fhir.de/sid/arge-ik/iknr"/><value value="168141154"/></identifier><display value="Vigo Krankenversicherung VVaG"/></payor></Coverage></resource></entry><entry><fullUrl value="https://pvs.gematik.de/fhir/Patient/0324f2fa-bc2a-4dfb-be17-5d3ef70177d7"/><resource><Patient xmlns="http://hl7.org/fhir"><id value="0324f2fa-bc2a-4dfb-be17-5d3ef70177d7"/><meta><profile value="https://fhir.kbv.de/StructureDefinition/KBV_PR_FOR_Patient|1.1.0"/></meta><identifier><type><coding><system value="http://fhir.de/CodeSystem/identifier-type-de-basis"/><code value="PKV"/></coding></type><system value="http://fhir.de/sid/pkv/kvid-10"/><value value="X110614233"/></identifier><name><use value="official"/><family value="Hüllmann"><extension url="http://hl7.org/fhir/StructureDefinition/humanname-own-name"><valueString value="Hüllmann"/></extension></family><given value="Sina"/></name><birthDate value="1999-11-30"/><address><type value="both"/><line value="Overfeldweg 68"><extension url="http://hl7.org/fhir/StructureDefinition/iso21090-ADXP-houseNumber"><valueString value="68"/></extension><extension url="http://hl7.org/fhir/StructureDefinition/iso21090-ADXP-streetName"><valueString value="Overfeldweg"/></extension></line><city value="Alfredstadt"/><postalCode value="14201"/><country value="D"/></address></Patient></resource></entry><entry><fullUrl value="https://pvs.gematik.de/fhir/Practitioner/8fcc72e9-c568-4671-891b-795cf89bf07e"/><resource><Practitioner xmlns="http://hl7.org/fhir"><id value="8fcc72e9-c568-4671-891b-795cf89bf07e"/><meta><profile value="https://fhir.kbv.de/StructureDefinition/KBV_PR_FOR_Practitioner|1.1.0"/></meta><identifier><type><coding><system value="http://terminology.hl7.org/CodeSystem/v2-0203"/><code value="LANR"/></coding></type><system value="https://fhir.kbv.de/NamingSystem/KBV_NS_Base_ANR"/><value value="095751747"/></identifier><name><use value="official"/><family value="Schraßer"><extension url="http://hl7.org/fhir/StructureDefinition/humanname-own-name"><valueString value="Schraßer"/></extension></family><given value="Dr."/><prefix value="Dr."><extension url="http://hl7.org/fhir/StructureDefinition/iso21090-EN-qualifier"><valueCode value="AC"/></extension></prefix></name><qualification><code><coding><system value="https://fhir.kbv.de/CodeSystem/KBV_CS_FOR_Qualification_Type"/><code value="00"/></coding></code></qualification><qualification><code><coding><system value="https://fhir.kbv.de/CodeSystem/KBV_CS_FOR_Berufsbezeichnung"/><code value="Berufsbezeichnung"/></coding><text value="Super-Facharzt für alles Mögliche"/></code></qualification></Practitioner></resource></entry><entry><fullUrl value="https://pvs.gematik.de/fhir/Organization/64eb04d4-99e2-4071-addd-47b7206c064d"/><resource><Organization xmlns="http://hl7.org/fhir"><id value="64eb04d4-99e2-4071-addd-47b7206c064d"/><meta><profile value="https://fhir.kbv.de/StructureDefinition/KBV_PR_FOR_Organization|1.1.0"/></meta><identifier><type><coding><system value="http://terminology.hl7.org/CodeSystem/v2-0203"/><code value="BSNR"/></coding></type><system value="https://fhir.kbv.de/NamingSystem/KBV_NS_Base_BSNR"/><value value="623558515"/></identifier><name value="Arztpraxis Schraßer"/><telecom><system value="phone"/><value value="(0818) 457097849"/></telecom><telecom><system value="email"/><value value="emilie.schersing@gadschiew.org"/></telecom><address><type value="both"/><line value="Ewald-Röll-Str. 51"><extension url="http://hl7.org/fhir/StructureDefinition/iso21090-ADXP-houseNumber"><valueString value="51"/></extension><extension url="http://hl7.org/fhir/StructureDefinition/iso21090-ADXP-streetName"><valueString value="Ewald-Röll-Str."/></extension></line><city value="Martastadt"/><postalCode value="65413"/><country value="D"/></address></Organization></resource></entry><entry><fullUrl value="https://pvs.gematik.de/fhir/Medication/651ac88e-3b91-4fe7-972c-225cc6d86a01"/><resource><Medication xmlns="http://hl7.org/fhir"><id value="651ac88e-3b91-4fe7-972c-225cc6d86a01"/><meta><profile value="https://fhir.kbv.de/StructureDefinition/KBV_PR_ERP_Medication_Ingredient|1.1.0"/></meta><extension url="https://fhir.kbv.de/StructureDefinition/KBV_EX_ERP_Medication_Category"><valueCoding><system value="https://fhir.kbv.de/CodeSystem/KBV_CS_ERP_Medication_Category"/><code value="00"/></valueCoding></extension><extension url="https://fhir.kbv.de/StructureDefinition/KBV_EX_ERP_Medication_Vaccine"><valueBoolean value="false"/></extension><extension url="http://fhir.de/StructureDefinition/normgroesse"><valueCode value="NB"/></extension><code><coding><system value="https://fhir.kbv.de/CodeSystem/KBV_CS_ERP_Medication_Type"/><code value="wirkstoff"/></coding></code><form><text value="0-3-0-0-3-0-3"/></form><amount><numerator><extension url="https://fhir.kbv.de/StructureDefinition/KBV_EX_ERP_Medication_PackagingSize"><valueString value="1"/></extension><unit value="Stk"/></numerator><denominator><value value="1"/></denominator></amount><ingredient><itemCodeableConcept><coding><system value="http://fhir.de/CodeSystem/ask"/><code value="13374"/></coding><text value="Harnsäure Hemmer"/></itemCodeableConcept><strength><numerator><value value="312"/><unit value="mg"/></numerator><denominator><value value="1"/></denominator></strength></ingredient></Medication></resource></entry><entry><fullUrl value="https://pvs.gematik.de/fhir/MedicationRequest/92e60fb6-e4b0-4268-9442-f1527b372294"/><resource><MedicationRequest xmlns="http://hl7.org/fhir"><id value="92e60fb6-e4b0-4268-9442-f1527b372294"/><meta><profile value="https://fhir.kbv.de/StructureDefinition/KBV_PR_ERP_Prescription|1.1.0"/></meta><extension url="https://fhir.kbv.de/StructureDefinition/KBV_EX_ERP_BVG"><valueBoolean value="false"/></extension><extension url="https://fhir.kbv.de/StructureDefinition/KBV_EX_ERP_EmergencyServicesFee"><valueBoolean value="false"/></extension><extension url="https://fhir.kbv.de/StructureDefinition/KBV_EX_ERP_Multiple_Prescription"><extension url="Kennzeichen"><valueBoolean value="false"/></extension></extension><extension url="https://fhir.kbv.de/StructureDefinition/KBV_EX_FOR_StatusCoPayment"><valueCoding><system value="https://fhir.kbv.de/CodeSystem/KBV_CS_FOR_StatusCoPayment"/><code value="2"/></valueCoding></extension><status value="active"/><intent value="order"/><medicationReference><reference value="Medication/651ac88e-3b91-4fe7-972c-225cc6d86a01"/></medicationReference><subject><reference value="Patient/0324f2fa-bc2a-4dfb-be17-5d3ef70177d7"/></subject><authoredOn value="2025-03-28"/><requester><reference value="Practitioner/8fcc72e9-c568-4671-891b-795cf89bf07e"/></requester><insurance><reference value="Coverage/bbf37115-0f18-4e15-88e7-a07e73814b43"/></insurance><dosageInstruction><extension url="https://fhir.kbv.de/StructureDefinition/KBV_EX_ERP_DosageFlag"><valueBoolean value="true"/></extension><text value="3-2-0-0-3-0-2"/></dosageInstruction><dispenseRequest><quantity><value value="1"/><system value="http://unitsofmeasure.org"/><code value="{Package}"/></quantity></dispenseRequest></MedicationRequest></resource></entry></Bundle>