<Bundle xmlns="http://hl7.org/fhir">
   <id value="c8d80125-0000-0000-0003-000000000000"/>
   <meta>
      <profile value="https://gematik.de/fhir/erp/StructureDefinition/GEM_ERP_PR_Bundle|1.4"/>
   </meta>
   <identifier>
      <system value="https://gematik.de/fhir/erp/NamingSystem/GEM_ERP_NS_PrescriptionId"/>
      <value value="200.000.002.425.304.32"/>
   </identifier>
   <type value="document"/>
   <timestamp value="2025-03-28T08:02:12.171+00:00"/>
   <link>
      <relation value="self"/>
      <url value="https://erp-ref.zentral.erp.splitdns.ti-dienste.de/Task/200.000.002.425.304.32/$close/"/>
   </link>
   <entry>
      <fullUrl value="urn:uuid:0a6fe1ce-a600-4d74-942b-006f05fd7a27"/>
      <resource>
         <Composition xmlns="http://hl7.org/fhir">
            <id value="0a6fe1ce-a600-4d74-942b-006f05fd7a27"/>
            <meta>
               <profile value="https://gematik.de/fhir/erp/StructureDefinition/GEM_ERP_PR_Composition|1.4"/>
            </meta>
            <extension url="https://gematik.de/fhir/erp/StructureDefinition/GEM_ERP_EX_Beneficiary">
               <valueIdentifier>
                  <system value="https://gematik.de/fhir/sid/telematik-id"/>
                  <value value="3-SMC-B-Testkarte--883110000163973"/>
               </valueIdentifier>
            </extension>
            <status value="final"/>
            <type>
               <coding>
                  <system value="https://gematik.de/fhir/erp/CodeSystem/GEM_ERP_CS_DocumentType"/>
                  <code value="3"/>
                  <display value="Receipt"/>
               </coding>
            </type>
            <date value="2025-03-28T08:02:12.165+00:00"/>
            <author>
               <reference value="urn:uuid:af8341f3-9f04-4472-a39a-6752218d33ea"/>
            </author>
            <title value="Quittung"/>
            <event>
               <period>
                  <start value="2025-03-28T08:02:11.754+00:00"/>
                  <end value="2025-03-28T08:02:12.165+00:00"/>
               </period>
            </event>
            <section>
               <entry>
                  <reference value="urn:uuid:b3aee7fc-1267-4fe7-9da4-2f300d1d541d"/>
               </entry>
            </section>
         </Composition>
      </resource>
   </entry>
   <entry>
      <fullUrl value="urn:uuid:af8341f3-9f04-4472-a39a-6752218d33ea"/>
      <resource>
         <Device xmlns="http://hl7.org/fhir">
            <id value="1"/>
            <meta>
               <profile value="https://gematik.de/fhir/erp/StructureDefinition/GEM_ERP_PR_Device|1.4"/>
            </meta>
            <status value="active"/>
            <serialNumber value="1.17.0"/>
            <deviceName>
               <name value="E-Rezept Fachdienst"/>
               <type value="user-friendly-name"/>
            </deviceName>
            <version>
               <value value="1.17.0"/>
            </version>
            <contact>
               <system value="email"/>
               <value value="betrieb@gematik.de"/>
            </contact>
         </Device>
      </resource>
   </entry>
   <entry>
      <fullUrl value="urn:uuid:b3aee7fc-1267-4fe7-9da4-2f300d1d541d"/>
      <resource>
         <Binary xmlns="http://hl7.org/fhir">
            <id value="b3aee7fc-1267-4fe7-9da4-2f300d1d541d"/>
            <meta>
               <versionId value="1"/>
               <profile value="https://gematik.de/fhir/erp/StructureDefinition/GEM_ERP_PR_Digest|1.4"/>
            </meta>
            <contentType value="application/octet-stream"/>
            <data value="+rfnhNpwvCkNO2ia0Bqt/D5gEKa3Sx0Uj58f7rsrdAc="/>
         </Binary>
      </resource>
   </entry>
   <signature>
      <type>
         <system value="urn:iso-astm:E1762-95:2013"/>
         <code value="1.2.840.10065.1.12.1.1"/>
      </type>
      <when value="2025-03-28T08:02:12.172+00:00"/>
      <who>
         <reference value="urn:uuid:af8341f3-9f04-4472-a39a-6752218d33ea"/>
      </who>
      <sigFormat value="application/pkcs7-mime"/>
      <data value=""/>
   </signature>
</Bundle>