<Bundle xmlns="http://hl7.org/fhir"><id value="dec272a5-a0ef-460d-85fd-e8045fbb8444"/><meta><lastUpdated value="2023-04-21T09:16:13.469+02:00"/><profile value="http://fhir.abda.de/eRezeptAbgabedaten/StructureDefinition/DAV-PKV-PR-ERP-AbgabedatenBundle|1.1"/></meta><identifier><system value="https://gematik.de/fhir/erp/NamingSystem/GEM_ERP_NS_PrescriptionId"/><value value="200.000.001.944.116.42"/></identifier><type value="document"/><timestamp value="2023-04-21T09:16:13.469+02:00"/><entry><fullUrl value="urn:uuid:47771057-b409-4dae-b5e5-b9dcd74a7500"/><resource><Composition xmlns="http://hl7.org/fhir"><id value="47771057-b409-4dae-b5e5-b9dcd74a7500"/><meta><profile value="http://fhir.abda.de/eRezeptAbgabedaten/StructureDefinition/DAV-PKV-PR-ERP-AbgabedatenComposition|1.1"/></meta><status value="final"/><type><coding><system value="http://fhir.abda.de/eRezeptAbgabedaten/CodeSystem/DAV-CS-ERP-CompositionTypes"/><code value="ERezeptAbgabedaten"/></coding></type><date value="2023-04-21T09:16:13+02:00"/><author><reference value="urn:uuid:a936c041-e3b4-48d8-aeb5-21e2972d0296"/></author><title value="ERezeptAbgabedaten"/><section><title value="Apotheke"/><entry><reference value="urn:uuid:a936c041-e3b4-48d8-aeb5-21e2972d0296"/></entry></section><section><title value="Abgabeinformationen"/><entry><reference value="urn:uuid:055e9d65-d428-4a8d-9552-6e6f7516932d"/></entry></section></Composition></resource></entry><entry><fullUrl value="urn:uuid:a936c041-e3b4-48d8-aeb5-21e2972d0296"/><resource><Organization xmlns="http://hl7.org/fhir"><id value="a936c041-e3b4-48d8-aeb5-21e2972d0296"/><meta><profile value="http://fhir.abda.de/eRezeptAbgabedaten/StructureDefinition/DAV-PKV-PR-ERP-Apotheke|1.1"/></meta><identifier><system value="http://fhir.de/sid/arge-ik/iknr"/><value value="720361015"/></identifier><name value="Apotheke Anna Graham"/><address><type value="physical"/><line value="Poststr. 06c"><extension url="http://hl7.org/fhir/StructureDefinition/iso21090-ADXP-houseNumber"><valueString value="06c"/></extension><extension url="http://hl7.org/fhir/StructureDefinition/iso21090-ADXP-streetName"><valueString value="Poststr."/></extension></line><city value="Östringerland"/><postalCode value="06533"/><country value="D"/></address></Organization></resource></entry><entry><fullUrl value="urn:uuid:62d2481f-e866-43ba-a83b-17a7b4e9380d"/><resource><Invoice xmlns="http://hl7.org/fhir"><id value="62d2481f-e866-43ba-a83b-17a7b4e9380d"/><meta><profile value="http://fhir.abda.de/eRezeptAbgabedaten/StructureDefinition/DAV-PKV-PR-ERP-Abrechnungszeilen|1.1"/></meta><status value="issued"/><type><coding><system value="http://fhir.abda.de/eRezeptAbgabedaten/CodeSystem/DAV-CS-ERP-InvoiceTyp"/><code value="Abrechnungszeilen"/></coding></type><lineItem><sequence value="1"/><chargeItemCodeableConcept><coding><system value="http://fhir.de/CodeSystem/ifa/pzn"/><code value="91918005"/></coding></chargeItemCodeableConcept><priceComponent><extension url="http://fhir.abda.de/eRezeptAbgabedaten/StructureDefinition/DAV-EX-ERP-KostenVersicherter"><extension url="Kategorie"><valueCodeableConcept><coding><system value="http://fhir.abda.de/eRezeptAbgabedaten/CodeSystem/DAV-PKV-CS-ERP-KostenVersicherterKategorie"/><code value="0"/></coding></valueCodeableConcept></extension><extension url="Kostenbetrag"><valueMoney><value value="146.19"/><currency value="EUR"/></valueMoney></extension></extension><extension url="http://fhir.abda.de/eRezeptAbgabedaten/StructureDefinition/DAV-EX-ERP-MwStSatz"><valueDecimal value="18.67"/></extension><type value="informational"/><factor value="1"/><amount><value value="147.88"/><currency value="EUR"/></amount></priceComponent></lineItem><totalGross><extension url="http://fhir.abda.de/eRezeptAbgabedaten/StructureDefinition/DAV-EX-ERP-Gesamtzuzahlung"><valueMoney><value value="146.19"/><currency value="EUR"/></valueMoney></extension><value value="147.88"/><currency value="EUR"/></totalGross></Invoice></resource></entry><entry><fullUrl value="urn:uuid:055e9d65-d428-4a8d-9552-6e6f7516932d"/><resource><MedicationDispense xmlns="http://hl7.org/fhir"><id value="055e9d65-d428-4a8d-9552-6e6f7516932d"/><meta><profile value="http://fhir.abda.de/eRezeptAbgabedaten/StructureDefinition/DAV-PKV-PR-ERP-Abgabeinformationen|1.1"/></meta><extension url="http://fhir.abda.de/eRezeptAbgabedaten/StructureDefinition/DAV-PKV-EX-ERP-AbrechnungsTyp"><valueCodeableConcept><coding><system value="http://fhir.abda.de/eRezeptAbgabedaten/CodeSystem/DAV-PKV-CS-ERP-AbrechnungsTyp"/><code value="1"/></coding></valueCodeableConcept></extension><extension url="http://fhir.abda.de/eRezeptAbgabedaten/StructureDefinition/DAV-EX-ERP-Abrechnungszeilen"><valueReference><reference value="urn:uuid:62d2481f-e866-43ba-a83b-17a7b4e9380d"/></valueReference></extension><status value="completed"/><medicationCodeableConcept><coding><system value="http://terminology.hl7.org/CodeSystem/data-absent-reason"/><code value="not-applicable"/></coding></medicationCodeableConcept><performer><actor><reference value="urn:uuid:a936c041-e3b4-48d8-aeb5-21e2972d0296"/></actor></performer><authorizingPrescription><identifier><system value="https://gematik.de/fhir/erp/NamingSystem/GEM_ERP_NS_PrescriptionId"/><value value="200.000.001.944.116.42"/></identifier></authorizingPrescription><type><coding><system value="http://fhir.abda.de/eRezeptAbgabedaten/CodeSystem/DAV-CS-ERP-MedicationDispenseTyp"/><code value="Abgabeinformationen"/></coding></type><whenHandedOver value="2023-04-21"/></MedicationDispense></resource></entry></Bundle>