{
  "resourceType": "Bundle",
  "id": "286bdc87-3f8f-4f2f-84e3-383a7f2b4515",
  "type": "collection",
  "timestamp": "2023-04-18T06:46:33.987+00:00",
  "entry": [
    {
      "fullUrl": "https://erp-dev.zentral.erp.splitdns.ti-dienste.de/ChargeItem/200.000.001.943.789.53",
      "resource": {
        "resourceType": "ChargeItem",
        "id": "200.000.001.943.789.53",
        "meta": {
          "profile": [
            "https://gematik.de/fhir/erpchrg/StructureDefinition/GEM_ERPCHRG_PR_ChargeItem|1.0"
          ]
        },
        "identifier": [
          {
            "system": "https://gematik.de/fhir/erp/NamingSystem/GEM_ERP_NS_AccessCode",
            "value": "cf337a9776c45d1496c44aadabfd87a0e8cdba573a33b6cd10ec6bb937797cb4"
          },
          {
            "system": "https://gematik.de/fhir/erp/NamingSystem/GEM_ERP_NS_PrescriptionId",
            "value": "200.000.001.943.789.53"
          }
        ],
        "status": "billable",
        "code": {
          "coding": [
            {
              "system": "http://terminology.hl7.org/CodeSystem/data-absent-reason",
              "code": "not-applicable"
            }
          ]
        },
        "subject": {
          "identifier": {
            "system": "http://fhir.de/sid/pkv/kvid-10",
            "value": "X110465770"
          }
        },
        "enterer": {
          "identifier": {
            "system": "https://gematik.de/fhir/sid/telematik-id",
            "value": "3-SMC-B-Testkarte-883110000116873"
          }
        },
        "enteredDate": "2023-04-18T06:46:33.221+00:00",
        "supportingInformation": [
          {
            "reference": "urn:uuid:c8eda81d-0000-0000-0001-000000000000",
            "display": "https://fhir.kbv.de/StructureDefinition/KBV_PR_ERP_Bundle"
          },
          {
            "reference": "urn:uuid:c8eda81d-0000-0000-0004-000000000000",
            "display": "http://fhir.abda.de/eRezeptAbgabedaten/StructureDefinition/DAV-PKV-PR-ERP-AbgabedatenBundle"
          },
          {
            "reference": "urn:uuid:c8eda81d-0000-0000-0003-000000000000",
            "display": "https://gematik.de/fhir/erp/StructureDefinition/GEM_ERP_PR_Bundle"
          }
        ]
      }
    },
    {
      "fullUrl": "urn:uuid:c8eda81d-0000-0000-0004-000000000000",
      "resource": {
        "resourceType": "Bundle",
        "id": "8daa9b98-9800-4092-a0b2-74440df93fef",
        "meta": {
          "lastUpdated": "2023-04-18T08:46:30.682+02:00",
          "profile": [
            "http://fhir.abda.de/eRezeptAbgabedaten/StructureDefinition/DAV-PKV-PR-ERP-AbgabedatenBundle|1.1"
          ]
        },
        "identifier": {
          "system": "https://gematik.de/fhir/erp/NamingSystem/GEM_ERP_NS_PrescriptionId",
          "value": "200.000.001.943.789.53"
        },
        "type": "document",
        "timestamp": "2023-04-18T08:46:30.682+02:00",
        "entry": [
          {
            "fullUrl": "urn:uuid:fd8eebac-616f-4501-88f5-84a8721b89d0",
            "resource": {
              "resourceType": "Composition",
              "meta": {
                "profile": [
                  "http://fhir.abda.de/eRezeptAbgabedaten/StructureDefinition/DAV-PKV-PR-ERP-AbgabedatenComposition|1.1"
                ]
              },
              "status": "final",
              "type": {
                "coding": [
                  {
                    "system": "http://fhir.abda.de/eRezeptAbgabedaten/CodeSystem/DAV-CS-ERP-CompositionTypes",
                    "code": "ERezeptAbgabedaten"
                  }
                ]
              },
              "date": "2023-04-18T08:46:30+02:00",
              "author": [
                {
                  "reference": "urn:uuid:702f44c3-5777-4f46-9d09-b510aebe4888"
                }
              ],
              "title": "ERezeptAbgabedaten",
              "section": [
                {
                  "title": "Apotheke",
                  "entry": [
                    {
                      "reference": "urn:uuid:702f44c3-5777-4f46-9d09-b510aebe4888"
                    }
                  ]
                },
                {
                  "title": "Abgabeinformationen",
                  "entry": [
                    {
                      "reference": "urn:uuid:e8a1e3ee-5a2b-4642-930e-29fe3d580b91"
                    }
                  ]
                }
              ]
            }
          },
          {
            "fullUrl": "urn:uuid:702f44c3-5777-4f46-9d09-b510aebe4888",
            "resource": {
              "resourceType": "Organization",
              "meta": {
                "profile": [
                  "http://fhir.abda.de/eRezeptAbgabedaten/StructureDefinition/DAV-PKV-PR-ERP-Apotheke|1.1"
                ]
              },
              "identifier": [
                {
                  "system": "http://fhir.de/sid/arge-ik/iknr",
                  "value": "628364106"
                }
              ],
              "name": "Apotheke Ken Oppenner",
              "address": [
                {
                  "type": "physical",
                  "line": ["Sperberweg 060"],
                  "_line": [
                    {
                      "extension": [
                        {
                          "url": "http://hl7.org/fhir/StructureDefinition/iso21090-ADXP-houseNumber",
                          "valueString": "060"
                        },
                        {
                          "url": "http://hl7.org/fhir/StructureDefinition/iso21090-ADXP-streetName",
                          "valueString": "Sperberweg"
                        }
                      ]
                    }
                  ],
                  "city": "Leadorf",
                  "postalCode": "64979",
                  "country": "D"
                }
              ]
            }
          },
          {
            "fullUrl": "urn:uuid:5f502b72-8668-425c-917d-6cdb86e529cb",
            "resource": {
              "resourceType": "Invoice",
              "meta": {
                "profile": [
                  "http://fhir.abda.de/eRezeptAbgabedaten/StructureDefinition/DAV-PKV-PR-ERP-Abrechnungszeilen|1.1"
                ]
              },
              "status": "issued",
              "type": {
                "coding": [
                  {
                    "system": "http://fhir.abda.de/eRezeptAbgabedaten/CodeSystem/DAV-CS-ERP-InvoiceTyp",
                    "code": "Abrechnungszeilen"
                  }
                ]
              },
              "lineItem": [
                {
                  "sequence": 1,
                  "chargeItemCodeableConcept": {
                    "coding": [
                      {
                        "system": "http://fhir.de/CodeSystem/ifa/pzn",
                        "code": "24119565"
                      }
                    ]
                  },
                  "priceComponent": [
                    {
                      "extension": [
                        {
                          "url": "http://fhir.abda.de/eRezeptAbgabedaten/StructureDefinition/DAV-EX-ERP-KostenVersicherter",
                          "extension": [
                            {
                              "url": "Kategorie",
                              "valueCodeableConcept": {
                                "coding": [
                                  {
                                    "system": "http://fhir.abda.de/eRezeptAbgabedaten/CodeSystem/DAV-PKV-CS-ERP-KostenVersicherterKategorie",
                                    "code": "0"
                                  }
                                ]
                              }
                            },
                            {
                              "url": "Kostenbetrag",
                              "valueMoney": {
                                "value": 94.72,
                                "currency": "EUR"
                              }
                            }
                          ]
                        },
                        {
                          "url": "http://fhir.abda.de/eRezeptAbgabedaten/StructureDefinition/DAV-EX-ERP-MwStSatz",
                          "valueDecimal": 15.27
                        }
                      ],
                      "type": "informational",
                      "factor": 1,
                      "amount": {
                        "value": 204.39,
                        "currency": "EUR"
                      }
                    }
                  ]
                },
                {
                  "sequence": 2,
                  "chargeItemCodeableConcept": {
                    "coding": [
                      {
                        "system": "http://fhir.de/CodeSystem/ifa/pzn",
                        "code": "40782049"
                      }
                    ]
                  },
                  "priceComponent": [
                    {
                      "extension": [
                        {
                          "url": "http://fhir.abda.de/eRezeptAbgabedaten/StructureDefinition/DAV-EX-ERP-KostenVersicherter",
                          "extension": [
                            {
                              "url": "Kategorie",
                              "valueCodeableConcept": {
                                "coding": [
                                  {
                                    "system": "http://fhir.abda.de/eRezeptAbgabedaten/CodeSystem/DAV-PKV-CS-ERP-KostenVersicherterKategorie",
                                    "code": "0"
                                  }
                                ]
                              }
                            },
                            {
                              "url": "Kostenbetrag",
                              "valueMoney": {
                                "value": 45.09,
                                "currency": "EUR"
                              }
                            }
                          ]
                        },
                        {
                          "url": "http://fhir.abda.de/eRezeptAbgabedaten/StructureDefinition/DAV-EX-ERP-MwStSatz",
                          "valueDecimal": 15.27
                        }
                      ],
                      "type": "informational",
                      "factor": 1,
                      "amount": {
                        "value": 45.37,
                        "currency": "EUR"
                      }
                    }
                  ]
                },
                {
                  "sequence": 3,
                  "chargeItemCodeableConcept": {
                    "coding": [
                      {
                        "system": "http://fhir.de/CodeSystem/ifa/pzn",
                        "code": "85080884"
                      }
                    ]
                  },
                  "priceComponent": [
                    {
                      "extension": [
                        {
                          "url": "http://fhir.abda.de/eRezeptAbgabedaten/StructureDefinition/DAV-EX-ERP-KostenVersicherter",
                          "extension": [
                            {
                              "url": "Kategorie",
                              "valueCodeableConcept": {
                                "coding": [
                                  {
                                    "system": "http://fhir.abda.de/eRezeptAbgabedaten/CodeSystem/DAV-PKV-CS-ERP-KostenVersicherterKategorie",
                                    "code": "0"
                                  }
                                ]
                              }
                            },
                            {
                              "url": "Kostenbetrag",
                              "valueMoney": {
                                "value": 20.19,
                                "currency": "EUR"
                              }
                            }
                          ]
                        },
                        {
                          "url": "http://fhir.abda.de/eRezeptAbgabedaten/StructureDefinition/DAV-EX-ERP-MwStSatz",
                          "valueDecimal": 15.27
                        }
                      ],
                      "type": "informational",
                      "factor": 1,
                      "amount": {
                        "value": 55.97,
                        "currency": "EUR"
                      }
                    }
                  ]
                },
                {
                  "sequence": 4,
                  "chargeItemCodeableConcept": {
                    "coding": [
                      {
                        "system": "http://fhir.de/CodeSystem/ifa/pzn",
                        "code": "44708855"
                      }
                    ]
                  },
                  "priceComponent": [
                    {
                      "extension": [
                        {
                          "url": "http://fhir.abda.de/eRezeptAbgabedaten/StructureDefinition/DAV-EX-ERP-KostenVersicherter",
                          "extension": [
                            {
                              "url": "Kategorie",
                              "valueCodeableConcept": {
                                "coding": [
                                  {
                                    "system": "http://fhir.abda.de/eRezeptAbgabedaten/CodeSystem/DAV-PKV-CS-ERP-KostenVersicherterKategorie",
                                    "code": "0"
                                  }
                                ]
                              }
                            },
                            {
                              "url": "Kostenbetrag",
                              "valueMoney": {
                                "value": 13.64,
                                "currency": "EUR"
                              }
                            }
                          ]
                        },
                        {
                          "url": "http://fhir.abda.de/eRezeptAbgabedaten/StructureDefinition/DAV-EX-ERP-MwStSatz",
                          "valueDecimal": 15.27
                        }
                      ],
                      "type": "informational",
                      "factor": 1,
                      "amount": {
                        "value": 17.48,
                        "currency": "EUR"
                      }
                    }
                  ]
                }
              ],
              "totalGross": {
                "extension": [
                  {
                    "url": "http://fhir.abda.de/eRezeptAbgabedaten/StructureDefinition/DAV-EX-ERP-Gesamtzuzahlung",
                    "valueMoney": {
                      "value": 173.64,
                      "currency": "EUR"
                    }
                  }
                ],
                "value": 323.21,
                "currency": "EUR"
              }
            }
          },
          {
            "fullUrl": "urn:uuid:e8a1e3ee-5a2b-4642-930e-29fe3d580b91",
            "resource": {
              "resourceType": "MedicationDispense",
              "meta": {
                "profile": [
                  "http://fhir.abda.de/eRezeptAbgabedaten/StructureDefinition/DAV-PKV-PR-ERP-Abgabeinformationen|1.1"
                ]
              },
              "extension": [
                {
                  "url": "http://fhir.abda.de/eRezeptAbgabedaten/StructureDefinition/DAV-PKV-EX-ERP-AbrechnungsTyp",
                  "valueCodeableConcept": {
                    "coding": [
                      {
                        "system": "http://fhir.abda.de/eRezeptAbgabedaten/CodeSystem/DAV-PKV-CS-ERP-AbrechnungsTyp",
                        "code": "1"
                      }
                    ]
                  }
                },
                {
                  "url": "http://fhir.abda.de/eRezeptAbgabedaten/StructureDefinition/DAV-EX-ERP-Abrechnungszeilen",
                  "valueReference": {
                    "reference": "urn:uuid:5f502b72-8668-425c-917d-6cdb86e529cb"
                  }
                }
              ],
              "status": "completed",
              "medicationCodeableConcept": {
                "coding": [
                  {
                    "system": "http://terminology.hl7.org/CodeSystem/data-absent-reason",
                    "code": "not-applicable"
                  }
                ]
              },
              "performer": [
                {
                  "actor": {
                    "reference": "urn:uuid:702f44c3-5777-4f46-9d09-b510aebe4888"
                  }
                }
              ],
              "authorizingPrescription": [
                {
                  "identifier": {
                    "system": "https://gematik.de/fhir/erp/NamingSystem/GEM_ERP_NS_PrescriptionId",
                    "value": "200.000.001.943.789.53"
                  }
                }
              ],
              "type": {
                "coding": [
                  {
                    "system": "http://fhir.abda.de/eRezeptAbgabedaten/CodeSystem/DAV-CS-ERP-MedicationDispenseTyp",
                    "code": "Abgabeinformationen"
                  }
                ]
              },
              "whenHandedOver": "2023-04-18"
            }
          }
        ],
        "signature": {
          "type": [
            {
              "system": "urn:iso-astm:E1762-95:2013",
              "code": "1.2.840.10065.1.12.1.1"
            }
          ],
          "when": "2023-04-18T06:46:34.015+00:00",
          "who": {
            "reference": "https://erp-dev.zentral.erp.splitdns.ti-dienste.de/Device/1"
          },
          "sigFormat": "application/pkcs7-mime",
          "data": ""
        }
      }
    },
    {
      "fullUrl": "urn:uuid:c8eda81d-0000-0000-0001-000000000000",
      "resource": {
        "resourceType": "Bundle",
        "id": "7778f634-300d-483f-bfd2-c7f2b55e6063",
        "meta": {
          "lastUpdated": "2023-04-18T08:46:28.308+02:00",
          "profile": [
            "https://fhir.kbv.de/StructureDefinition/KBV_PR_ERP_Bundle|1.1.0"
          ]
        },
        "identifier": {
          "system": "https://gematik.de/fhir/erp/NamingSystem/GEM_ERP_NS_PrescriptionId",
          "value": "200.000.001.943.789.53"
        },
        "type": "document",
        "timestamp": "2023-04-18T08:46:28.308+02:00",
        "entry": [
          {
            "fullUrl": "https://pvs.gematik.de/fhir/Composition/29fa78d3-ef3b-4470-8969-b852fd31f064",
            "resource": {
              "resourceType": "Composition",
              "id": "29fa78d3-ef3b-4470-8969-b852fd31f064",
              "meta": {
                "profile": [
                  "https://fhir.kbv.de/StructureDefinition/KBV_PR_ERP_Composition|1.1.0"
                ]
              },
              "extension": [
                {
                  "url": "https://fhir.kbv.de/StructureDefinition/KBV_EX_FOR_Legal_basis",
                  "valueCoding": {
                    "system": "https://fhir.kbv.de/CodeSystem/KBV_CS_SFHIR_KBV_STATUSKENNZEICHEN",
                    "code": "00"
                  }
                }
              ],
              "status": "final",
              "type": {
                "coding": [
                  {
                    "system": "https://fhir.kbv.de/CodeSystem/KBV_CS_SFHIR_KBV_FORMULAR_ART",
                    "code": "e16A"
                  }
                ]
              },
              "subject": {
                "reference": "Patient/15d5442f-6dbd-4309-96d0-396dde06e2e4"
              },
              "date": "2023-04-18T08:46:28+02:00",
              "author": [
                {
                  "reference": "Practitioner/4e8feec2-64c3-4db1-b21d-74b7777e0470",
                  "type": "Practitioner"
                },
                {
                  "type": "Device",
                  "identifier": {
                    "system": "https://fhir.kbv.de/NamingSystem/KBV_NS_FOR_Pruefnummer",
                    "value": "GEMATIK/410/2109/36/123"
                  }
                }
              ],
              "title": "elektronische Arzneimittelverordnung",
              "custodian": {
                "reference": "Organization/7ab91e5b-9342-4f85-ae9b-8ea4b5ef070b"
              },
              "section": [
                {
                  "code": {
                    "coding": [
                      {
                        "system": "https://fhir.kbv.de/CodeSystem/KBV_CS_ERP_Section_Type",
                        "code": "Coverage"
                      }
                    ]
                  },
                  "entry": [
                    {
                      "reference": "Coverage/c4ddcc3f-4803-43a7-a58f-d715feee54a7"
                    }
                  ]
                },
                {
                  "code": {
                    "coding": [
                      {
                        "system": "https://fhir.kbv.de/CodeSystem/KBV_CS_ERP_Section_Type",
                        "code": "Prescription"
                      }
                    ]
                  },
                  "entry": [
                    {
                      "reference": "MedicationRequest/4ec5cbc6-26b4-480c-b3af-d935c1cfcb56"
                    }
                  ]
                }
              ]
            }
          },
          {
            "fullUrl": "https://pvs.gematik.de/fhir/MedicationRequest/4ec5cbc6-26b4-480c-b3af-d935c1cfcb56",
            "resource": {
              "resourceType": "MedicationRequest",
              "id": "4ec5cbc6-26b4-480c-b3af-d935c1cfcb56",
              "meta": {
                "profile": [
                  "https://fhir.kbv.de/StructureDefinition/KBV_PR_ERP_Prescription|1.1.0"
                ]
              },
              "extension": [
                {
                  "url": "https://fhir.kbv.de/StructureDefinition/KBV_EX_ERP_BVG",
                  "valueBoolean": false
                },
                {
                  "url": "https://fhir.kbv.de/StructureDefinition/KBV_EX_ERP_EmergencyServicesFee",
                  "valueBoolean": false
                },
                {
                  "url": "https://fhir.kbv.de/StructureDefinition/KBV_EX_ERP_Multiple_Prescription",
                  "extension": [
                    {
                      "url": "Kennzeichen",
                      "valueBoolean": false
                    }
                  ]
                },
                {
                  "url": "https://fhir.kbv.de/StructureDefinition/KBV_EX_FOR_StatusCoPayment",
                  "valueCoding": {
                    "system": "https://fhir.kbv.de/CodeSystem/KBV_CS_FOR_StatusCoPayment",
                    "code": "0"
                  }
                }
              ],
              "status": "active",
              "intent": "order",
              "medicationReference": {
                "reference": "Medication/a7273477-406c-452d-8009-08137c15ce2b"
              },
              "subject": {
                "reference": "Patient/15d5442f-6dbd-4309-96d0-396dde06e2e4"
              },
              "authoredOn": "2023-04-18",
              "requester": {
                "reference": "Practitioner/4e8feec2-64c3-4db1-b21d-74b7777e0470"
              },
              "insurance": [
                {
                  "reference": "Coverage/c4ddcc3f-4803-43a7-a58f-d715feee54a7"
                }
              ],
              "dosageInstruction": [
                {
                  "extension": [
                    {
                      "url": "https://fhir.kbv.de/StructureDefinition/KBV_EX_ERP_DosageFlag",
                      "valueBoolean": true
                    }
                  ],
                  "text": "1-0-0-0"
                }
              ],
              "dispenseRequest": {
                "quantity": {
                  "value": 1,
                  "system": "http://unitsofmeasure.org",
                  "code": "{Package}"
                }
              },
              "substitution": {
                "allowedBoolean": true
              }
            }
          },
          {
            "fullUrl": "https://pvs.gematik.de/fhir/Medication/a7273477-406c-452d-8009-08137c15ce2b",
            "resource": {
              "resourceType": "Medication",
              "id": "a7273477-406c-452d-8009-08137c15ce2b",
              "meta": {
                "profile": [
                  "https://fhir.kbv.de/StructureDefinition/KBV_PR_ERP_Medication_PZN|1.1.0"
                ]
              },
              "extension": [
                {
                  "url": "https://fhir.kbv.de/StructureDefinition/KBV_EX_Base_Medication_Type",
                  "valueCodeableConcept": {
                    "coding": [
                      {
                        "system": "http://snomed.info/sct",
                        "version": "http://snomed.info/sct/900000000000207008/version/20220331",
                        "code": "763158003",
                        "display": "Medicinal product (product)"
                      }
                    ]
                  }
                },
                {
                  "url": "https://fhir.kbv.de/StructureDefinition/KBV_EX_ERP_Medication_Category",
                  "valueCoding": {
                    "system": "https://fhir.kbv.de/CodeSystem/KBV_CS_ERP_Medication_Category",
                    "code": "00"
                  }
                },
                {
                  "url": "https://fhir.kbv.de/StructureDefinition/KBV_EX_ERP_Medication_Vaccine",
                  "valueBoolean": false
                },
                {
                  "url": "http://fhir.de/StructureDefinition/normgroesse",
                  "valueCode": "NB"
                }
              ],
              "code": {
                "coding": [
                  {
                    "system": "http://fhir.de/CodeSystem/ifa/pzn",
                    "code": "06377578"
                  }
                ],
                "text": "Schmerzmittel"
              },
              "form": {
                "coding": [
                  {
                    "system": "https://fhir.kbv.de/CodeSystem/KBV_CS_SFHIR_KBV_DARREICHUNGSFORM",
                    "code": "TAB"
                  }
                ]
              },
              "amount": {
                "numerator": {
                  "extension": [
                    {
                      "url": "https://fhir.kbv.de/StructureDefinition/KBV_EX_ERP_Medication_PackagingSize",
                      "valueString": "1"
                    }
                  ],
                  "unit": "Stk"
                },
                "denominator": {
                  "value": 1
                }
              }
            }
          },
          {
            "fullUrl": "https://pvs.gematik.de/fhir/Patient/15d5442f-6dbd-4309-96d0-396dde06e2e4",
            "resource": {
              "resourceType": "Patient",
              "id": "15d5442f-6dbd-4309-96d0-396dde06e2e4",
              "meta": {
                "profile": [
                  "https://fhir.kbv.de/StructureDefinition/KBV_PR_FOR_Patient|1.1.0"
                ]
              },
              "identifier": [
                {
                  "type": {
                    "coding": [
                      {
                        "system": "http://fhir.de/CodeSystem/identifier-type-de-basis",
                        "code": "PKV"
                      }
                    ]
                  },
                  "system": "http://fhir.de/sid/pkv/kvid-10",
                  "value": "X110465770"
                }
              ],
              "name": [
                {
                  "use": "official",
                  "family": "Angermänn",
                  "_family": {
                    "extension": [
                      {
                        "url": "http://hl7.org/fhir/StructureDefinition/humanname-own-name",
                        "valueString": "Angermänn"
                      }
                    ]
                  },
                  "given": ["Günther"]
                }
              ],
              "birthDate": "1962-06-03",
              "address": [
                {
                  "type": "both",
                  "line": ["Im Buchenhain 63c"],
                  "_line": [
                    {
                      "extension": [
                        {
                          "url": "http://hl7.org/fhir/StructureDefinition/iso21090-ADXP-houseNumber",
                          "valueString": "63c"
                        },
                        {
                          "url": "http://hl7.org/fhir/StructureDefinition/iso21090-ADXP-streetName",
                          "valueString": "Im Buchenhain"
                        }
                      ]
                    }
                  ],
                  "city": "Alt Hugo",
                  "postalCode": "35291",
                  "country": "D"
                }
              ]
            }
          },
          {
            "fullUrl": "https://pvs.gematik.de/fhir/Organization/7ab91e5b-9342-4f85-ae9b-8ea4b5ef070b",
            "resource": {
              "resourceType": "Organization",
              "id": "7ab91e5b-9342-4f85-ae9b-8ea4b5ef070b",
              "meta": {
                "profile": [
                  "https://fhir.kbv.de/StructureDefinition/KBV_PR_FOR_Organization|1.1.0"
                ]
              },
              "identifier": [
                {
                  "type": {
                    "coding": [
                      {
                        "system": "http://terminology.hl7.org/CodeSystem/v2-0203",
                        "code": "BSNR"
                      }
                    ]
                  },
                  "system": "https://fhir.kbv.de/NamingSystem/KBV_NS_Base_BSNR",
                  "value": "461831293"
                }
              ],
              "name": "Arztpraxis Schraßer",
              "telecom": [
                {
                  "system": "phone",
                  "value": "+49-467-6765186"
                },
                {
                  "system": "email",
                  "value": "smilla.mauroff@becker.ch"
                }
              ],
              "address": [
                {
                  "type": "both",
                  "line": ["Im Mühlenfeld 64a"],
                  "_line": [
                    {
                      "extension": [
                        {
                          "url": "http://hl7.org/fhir/StructureDefinition/iso21090-ADXP-houseNumber",
                          "valueString": "64a"
                        },
                        {
                          "url": "http://hl7.org/fhir/StructureDefinition/iso21090-ADXP-streetName",
                          "valueString": "Im Mühlenfeld"
                        }
                      ]
                    }
                  ],
                  "city": "Niedermeierheim",
                  "postalCode": "82265",
                  "country": "D"
                }
              ]
            }
          },
          {
            "fullUrl": "https://pvs.gematik.de/fhir/Coverage/c4ddcc3f-4803-43a7-a58f-d715feee54a7",
            "resource": {
              "resourceType": "Coverage",
              "id": "c4ddcc3f-4803-43a7-a58f-d715feee54a7",
              "meta": {
                "profile": [
                  "https://fhir.kbv.de/StructureDefinition/KBV_PR_FOR_Coverage|1.1.0"
                ]
              },
              "extension": [
                {
                  "url": "http://fhir.de/StructureDefinition/gkv/besondere-personengruppe",
                  "valueCoding": {
                    "system": "https://fhir.kbv.de/CodeSystem/KBV_CS_SFHIR_KBV_PERSONENGRUPPE",
                    "code": "00"
                  }
                },
                {
                  "url": "http://fhir.de/StructureDefinition/gkv/dmp-kennzeichen",
                  "valueCoding": {
                    "system": "https://fhir.kbv.de/CodeSystem/KBV_CS_SFHIR_KBV_DMP",
                    "code": "00"
                  }
                },
                {
                  "url": "http://fhir.de/StructureDefinition/gkv/wop",
                  "valueCoding": {
                    "system": "https://fhir.kbv.de/CodeSystem/KBV_CS_SFHIR_ITA_WOP",
                    "code": "51"
                  }
                },
                {
                  "url": "http://fhir.de/StructureDefinition/gkv/versichertenart",
                  "valueCoding": {
                    "system": "https://fhir.kbv.de/CodeSystem/KBV_CS_SFHIR_KBV_VERSICHERTENSTATUS",
                    "code": "1"
                  }
                }
              ],
              "status": "active",
              "type": {
                "coding": [
                  {
                    "system": "http://fhir.de/CodeSystem/versicherungsart-de-basis",
                    "code": "PKV"
                  }
                ]
              },
              "beneficiary": {
                "reference": "Patient/6bba6003-8b23-4852-a56c-7896a7d21bcb"
              },
              "payor": [
                {
                  "identifier": {
                    "system": "http://fhir.de/sid/arge-ik/iknr",
                    "value": "442611189"
                  },
                  "display": "Farmer Mecklenburg-Vorpommern"
                }
              ]
            }
          },
          {
            "fullUrl": "https://pvs.gematik.de/fhir/Practitioner/4e8feec2-64c3-4db1-b21d-74b7777e0470",
            "resource": {
              "resourceType": "Practitioner",
              "id": "4e8feec2-64c3-4db1-b21d-74b7777e0470",
              "meta": {
                "profile": [
                  "https://fhir.kbv.de/StructureDefinition/KBV_PR_FOR_Practitioner|1.1.0"
                ]
              },
              "identifier": [
                {
                  "type": {
                    "coding": [
                      {
                        "system": "http://terminology.hl7.org/CodeSystem/v2-0203",
                        "code": "LANR"
                      }
                    ]
                  },
                  "system": "https://fhir.kbv.de/NamingSystem/KBV_NS_Base_ANR",
                  "value": "609278214"
                }
              ],
              "name": [
                {
                  "use": "official",
                  "family": "Schraßer",
                  "_family": {
                    "extension": [
                      {
                        "url": "http://hl7.org/fhir/StructureDefinition/humanname-own-name",
                        "valueString": "Schraßer"
                      }
                    ]
                  },
                  "given": ["Dr."],
                  "prefix": ["Dr."],
                  "_prefix": [
                    {
                      "extension": [
                        {
                          "url": "http://hl7.org/fhir/StructureDefinition/iso21090-EN-qualifier",
                          "valueCode": "AC"
                        }
                      ]
                    }
                  ]
                }
              ],
              "qualification": [
                {
                  "code": {
                    "coding": [
                      {
                        "system": "https://fhir.kbv.de/CodeSystem/KBV_CS_FOR_Qualification_Type",
                        "code": "00"
                      }
                    ]
                  }
                },
                {
                  "code": {
                    "coding": [
                      {
                        "system": "https://fhir.kbv.de/CodeSystem/KBV_CS_FOR_Berufsbezeichnung",
                        "code": "Berufsbezeichnung"
                      }
                    ],
                    "text": "Super-Facharzt für alles Mögliche"
                  }
                }
              ]
            }
          }
        ],
        "signature": {
          "type": [
            {
              "system": "urn:iso-astm:E1762-95:2013",
              "code": "1.2.840.10065.1.12.1.1"
            }
          ],
          "when": "2023-04-18T06:46:34.013+00:00",
          "who": {
            "reference": "https://erp-dev.zentral.erp.splitdns.ti-dienste.de/Device/1"
          },
          "sigFormat": "application/pkcs7-mime",
          "data": ""
        }
      }
    },
    {
      "fullUrl": "urn:uuid:c8eda81d-0000-0000-0003-000000000000",
      "resource": {
        "resourceType": "Bundle",
        "meta": {
          "profile": [
            "https://gematik.de/fhir/erp/StructureDefinition/GEM_ERP_PR_Bundle|1.2"
          ]
        },
        "identifier": {
          "system": "https://gematik.de/fhir/erp/NamingSystem/GEM_ERP_NS_PrescriptionId",
          "value": "200.000.001.943.789.53"
        },
        "type": "document",
        "timestamp": "2023-04-18T06:46:31.840+00:00",
        "link": [
          {
            "relation": "self",
            "url": "https://erp-dev.zentral.erp.splitdns.ti-dienste.de/Task/200.000.001.943.789.53/$close/"
          }
        ],
        "entry": [
          {
            "fullUrl": "urn:uuid:a9efa74f-4fd0-4d7d-aa75-0a9cd2485ef3",
            "resource": {
              "resourceType": "Composition",
              "id": "a9efa74f-4fd0-4d7d-aa75-0a9cd2485ef3",
              "meta": {
                "profile": [
                  "https://gematik.de/fhir/erp/StructureDefinition/GEM_ERP_PR_Composition|1.2"
                ]
              },
              "extension": [
                {
                  "url": "https://gematik.de/fhir/erp/StructureDefinition/GEM_ERP_EX_Beneficiary",
                  "valueIdentifier": {
                    "system": "https://gematik.de/fhir/sid/telematik-id",
                    "value": "3-SMC-B-Testkarte-883110000116873"
                  }
                }
              ],
              "status": "final",
              "type": {
                "coding": [
                  {
                    "system": "https://gematik.de/fhir/erp/CodeSystem/GEM_ERP_CS_DocumentType",
                    "code": "3",
                    "display": "Receipt"
                  }
                ]
              },
              "date": "2023-04-18T06:46:31.839+00:00",
              "author": [
                {
                  "reference": "https://erp-dev.zentral.erp.splitdns.ti-dienste.de/Device/1"
                }
              ],
              "title": "Quittung",
              "event": [
                {
                  "period": {
                    "start": "2023-04-18T06:46:30.392+00:00",
                    "end": "2023-04-18T06:46:31.839+00:00"
                  }
                }
              ],
              "section": [
                {
                  "entry": [
                    {
                      "reference": "Binary/PrescriptionDigest-200.000.001.943.789.53"
                    }
                  ]
                }
              ]
            }
          },
          {
            "fullUrl": "https://erp-dev.zentral.erp.splitdns.ti-dienste.de/Device/1",
            "resource": {
              "resourceType": "Device",
              "id": "1",
              "meta": {
                "profile": [
                  "https://gematik.de/fhir/erp/StructureDefinition/GEM_ERP_PR_Device|1.2"
                ]
              },
              "status": "active",
              "serialNumber": "1.10.0",
              "deviceName": [
                {
                  "name": "E-Rezept Fachdienst",
                  "type": "user-friendly-name"
                }
              ],
              "version": [
                {
                  "value": "1.10.0"
                }
              ],
              "contact": [
                {
                  "system": "email",
                  "value": "betrieb@gematik.de"
                }
              ]
            }
          },
          {
            "fullUrl": "https://erp-dev.zentral.erp.splitdns.ti-dienste.de/Binary/PrescriptionDigest-200.000.001.943.789.53",
            "resource": {
              "resourceType": "Binary",
              "id": "PrescriptionDigest-200.000.001.943.789.53",
              "meta": {
                "versionId": "1",
                "profile": [
                  "https://gematik.de/fhir/erp/StructureDefinition/GEM_ERP_PR_Digest|1.2"
                ]
              },
              "contentType": "application/octet-stream",
              "data": "ni83XXaratCqSr/Dh3wY3lAKRIxXLwIhesLh8I5HPu8="
            }
          }
        ],
        "signature": {
          "type": [
            {
              "system": "urn:iso-astm:E1762-95:2013",
              "code": "1.2.840.10065.1.12.1.1"
            }
          ],
          "when": "2023-04-18T06:46:34.014+00:00",
          "who": {
            "reference": "https://erp-dev.zentral.erp.splitdns.ti-dienste.de/Device/1"
          },
          "sigFormat": "application/pkcs7-mime",
          "data": ""
        }
      }
    }
  ]
}
