{
  "resourceType": "Bundle",
  "id": "e80ac02c-597f-47a1-aa30-1cc46766dfa2",
  "type": "collection",
  "timestamp": "2023-04-21T07:09:33.339+00:00",
  "link": [
    {
      "relation": "self",
      "url": "https://erp-dev.zentral.erp.splitdns.ti-dienste.de/Task/169.000.001.776.093.93"
    }
  ],
  "entry": [
    {
      "fullUrl": "https://erp-dev.zentral.erp.splitdns.ti-dienste.de/Task/169.000.001.776.093.93",
      "resource": {
        "resourceType": "Task",
        "id": "169.000.001.776.093.93",
        "meta": {
          "profile": [
            "https://gematik.de/fhir/erp/StructureDefinition/GEM_ERP_PR_Task|1.2"
          ]
        },
        "extension": [
          {
            "url": "https://gematik.de/fhir/erp/StructureDefinition/GEM_ERP_EX_PrescriptionType",
            "valueCoding": {
              "system": "https://gematik.de/fhir/erp/CodeSystem/GEM_ERP_CS_FlowType",
              "code": "169",
              "display": "Muster 16 (Direkte Zuweisung)"
            }
          },
          {
            "url": "https://gematik.de/fhir/erp/StructureDefinition/GEM_ERP_EX_ExpiryDate",
            "valueDate": "2024-04-20"
          },
          {
            "url": "https://gematik.de/fhir/erp/StructureDefinition/GEM_ERP_EX_AcceptDate",
            "valueDate": "2024-04-20"
          }
        ],
        "identifier": [
          {
            "use": "official",
            "system": "https://gematik.de/fhir/erp/NamingSystem/GEM_ERP_NS_PrescriptionId",
            "value": "169.000.001.776.093.93"
          }
        ],
        "status": "ready",
        "intent": "order",
        "for": {
          "identifier": {
            "system": "http://fhir.de/sid/gkv/kvid-10",
            "value": "X110498565"
          }
        },
        "authoredOn": "2023-04-21T07:09:32.508+00:00",
        "lastModified": "2023-04-21T07:09:32.886+00:00",
        "performerType": [
          {
            "coding": [
              {
                "system": "https://gematik.de/fhir/erp/CodeSystem/GEM_ERP_CS_OrganizationType",
                "code": "urn:oid:1.2.276.0.76.4.54",
                "display": "Öffentliche Apotheke"
              }
            ],
            "text": "Öffentliche Apotheke"
          }
        ],
        "input": [
          {
            "type": {
              "coding": [
                {
                  "system": "https://gematik.de/fhir/erp/CodeSystem/GEM_ERP_CS_DocumentType",
                  "code": "2"
                }
              ]
            },
            "valueReference": {
              "reference": "a9dd191b-0000-0000-0002-000000000000"
            }
          }
        ]
      }
    },
    {
      "fullUrl": "urn:uuid:a9dd191b-0000-0000-0002-000000000000",
      "resource": {
        "resourceType": "Bundle",
        "meta": {
          "lastUpdated": "2023-04-21T09:09:32.030+02:00",
          "profile": [
            "https://fhir.kbv.de/StructureDefinition/KBV_PR_ERP_Bundle|1.1.0"
          ]
        },
        "identifier": {
          "system": "https://gematik.de/fhir/erp/NamingSystem/GEM_ERP_NS_PrescriptionId",
          "value": "169.000.001.776.093.93"
        },
        "type": "document",
        "timestamp": "2023-04-21T09:09:32.030+02:00",
        "entry": [
          {
            "fullUrl": "https://pvs.gematik.de/fhir/Composition/b0d5cc4f-51c4-4021-83f2-72b144978409",
            "resource": {
              "resourceType": "Composition",
              "id": "b0d5cc4f-51c4-4021-83f2-72b144978409",
              "meta": {
                "profile": [
                  "https://fhir.kbv.de/StructureDefinition/KBV_PR_ERP_Composition|1.1.0"
                ]
              },
              "extension": [
                {
                  "url": "https://fhir.kbv.de/StructureDefinition/KBV_EX_FOR_Legal_basis",
                  "valueCoding": {
                    "system": "https://fhir.kbv.de/CodeSystem/KBV_CS_SFHIR_KBV_STATUSKENNZEICHEN",
                    "code": "00"
                  }
                }
              ],
              "status": "final",
              "type": {
                "coding": [
                  {
                    "system": "https://fhir.kbv.de/CodeSystem/KBV_CS_SFHIR_KBV_FORMULAR_ART",
                    "code": "e16A"
                  }
                ]
              },
              "subject": {
                "reference": "Patient/87180c29-5a26-4e51-a66d-2e4aefb6e5cf"
              },
              "date": "2023-04-21T09:09:32+02:00",
              "author": [
                {
                  "reference": "Practitioner/b596f6b7-7148-4cd2-9a86-2c72bdd57537",
                  "type": "Practitioner"
                },
                {
                  "type": "Device",
                  "identifier": {
                    "system": "https://fhir.kbv.de/NamingSystem/KBV_NS_FOR_Pruefnummer",
                    "value": "GEMATIK/410/2109/36/123"
                  }
                }
              ],
              "title": "elektronische Arzneimittelverordnung",
              "custodian": {
                "reference": "Organization/ada7c44c-a66f-4ede-8ca8-ded704380e58"
              },
              "section": [
                {
                  "code": {
                    "coding": [
                      {
                        "system": "https://fhir.kbv.de/CodeSystem/KBV_CS_ERP_Section_Type",
                        "code": "Coverage"
                      }
                    ]
                  },
                  "entry": [
                    {
                      "reference": "Coverage/ec6e197c-43a9-4f90-9b62-7029fe34fa69"
                    }
                  ]
                },
                {
                  "code": {
                    "coding": [
                      {
                        "system": "https://fhir.kbv.de/CodeSystem/KBV_CS_ERP_Section_Type",
                        "code": "Prescription"
                      }
                    ]
                  },
                  "entry": [
                    {
                      "reference": "MedicationRequest/16e1ce72-d00d-4f5d-b3a6-db91d5df0105"
                    }
                  ]
                }
              ]
            }
          },
          {
            "fullUrl": "https://pvs.gematik.de/fhir/MedicationRequest/16e1ce72-d00d-4f5d-b3a6-db91d5df0105",
            "resource": {
              "resourceType": "MedicationRequest",
              "id": "16e1ce72-d00d-4f5d-b3a6-db91d5df0105",
              "meta": {
                "profile": [
                  "https://fhir.kbv.de/StructureDefinition/KBV_PR_ERP_Prescription|1.1.0"
                ]
              },
              "extension": [
                {
                  "url": "https://fhir.kbv.de/StructureDefinition/KBV_EX_ERP_BVG",
                  "valueBoolean": false
                },
                {
                  "url": "https://fhir.kbv.de/StructureDefinition/KBV_EX_ERP_EmergencyServicesFee",
                  "valueBoolean": false
                },
                {
                  "url": "https://fhir.kbv.de/StructureDefinition/KBV_EX_ERP_Multiple_Prescription",
                  "extension": [
                    {
                      "url": "Kennzeichen",
                      "valueBoolean": true
                    },
                    {
                      "url": "Nummerierung",
                      "valueRatio": {
                        "numerator": {
                          "value": 4
                        },
                        "denominator": {
                          "value": 4
                        }
                      }
                    },
                    {
                      "url": "Zeitraum",
                      "valuePeriod": {
                        "start": "2024-01-16"
                      }
                    },
                    {
                      "url": "ID",
                      "valueIdentifier": {
                        "system": "urn:ietf:rfc:3986",
                        "value": "urn:uuid:c48abe55-f811-4734-8380-181789a8f707"
                      }
                    }
                  ]
                },
                {
                  "url": "https://fhir.kbv.de/StructureDefinition/KBV_EX_FOR_StatusCoPayment",
                  "valueCoding": {
                    "system": "https://fhir.kbv.de/CodeSystem/KBV_CS_FOR_StatusCoPayment",
                    "code": "0"
                  }
                }
              ],
              "status": "active",
              "intent": "order",
              "medicationReference": {
                "reference": "Medication/22bcf590-e26c-4d96-a3c1-ff72a8b8328a"
              },
              "subject": {
                "reference": "Patient/87180c29-5a26-4e51-a66d-2e4aefb6e5cf"
              },
              "authoredOn": "2023-04-21",
              "requester": {
                "reference": "Practitioner/b596f6b7-7148-4cd2-9a86-2c72bdd57537"
              },
              "insurance": [
                {
                  "reference": "Coverage/ec6e197c-43a9-4f90-9b62-7029fe34fa69"
                }
              ],
              "dosageInstruction": [
                {
                  "extension": [
                    {
                      "url": "https://fhir.kbv.de/StructureDefinition/KBV_EX_ERP_DosageFlag",
                      "valueBoolean": true
                    }
                  ],
                  "text": "1-0-0-0"
                }
              ],
              "dispenseRequest": {
                "quantity": {
                  "value": 1,
                  "system": "http://unitsofmeasure.org",
                  "code": "{Package}"
                }
              },
              "substitution": {
                "allowedBoolean": true
              }
            }
          },
          {
            "fullUrl": "https://pvs.gematik.de/fhir/Medication/22bcf590-e26c-4d96-a3c1-ff72a8b8328a",
            "resource": {
              "resourceType": "Medication",
              "id": "22bcf590-e26c-4d96-a3c1-ff72a8b8328a",
              "meta": {
                "profile": [
                  "https://fhir.kbv.de/StructureDefinition/KBV_PR_ERP_Medication_PZN|1.1.0"
                ]
              },
              "extension": [
                {
                  "url": "https://fhir.kbv.de/StructureDefinition/KBV_EX_Base_Medication_Type",
                  "valueCodeableConcept": {
                    "coding": [
                      {
                        "system": "http://snomed.info/sct",
                        "version": "http://snomed.info/sct/900000000000207008/version/20220331",
                        "code": "763158003",
                        "display": "Medicinal product (product)"
                      }
                    ]
                  }
                },
                {
                  "url": "https://fhir.kbv.de/StructureDefinition/KBV_EX_ERP_Medication_Category",
                  "valueCoding": {
                    "system": "https://fhir.kbv.de/CodeSystem/KBV_CS_ERP_Medication_Category",
                    "code": "00"
                  }
                },
                {
                  "url": "https://fhir.kbv.de/StructureDefinition/KBV_EX_ERP_Medication_Vaccine",
                  "valueBoolean": false
                },
                {
                  "url": "http://fhir.de/StructureDefinition/normgroesse",
                  "valueCode": "NB"
                }
              ],
              "code": {
                "coding": [
                  {
                    "system": "http://fhir.de/CodeSystem/ifa/pzn",
                    "code": "49397401"
                  }
                ],
                "text": "Hemimorat"
              },
              "form": {
                "coding": [
                  {
                    "system": "https://fhir.kbv.de/CodeSystem/KBV_CS_SFHIR_KBV_DARREICHUNGSFORM",
                    "code": "TAB"
                  }
                ]
              },
              "amount": {
                "numerator": {
                  "extension": [
                    {
                      "url": "https://fhir.kbv.de/StructureDefinition/KBV_EX_ERP_Medication_PackagingSize",
                      "valueString": "1"
                    }
                  ],
                  "unit": "Stk"
                },
                "denominator": {
                  "value": 1
                }
              }
            }
          },
          {
            "fullUrl": "https://pvs.gematik.de/fhir/Patient/87180c29-5a26-4e51-a66d-2e4aefb6e5cf",
            "resource": {
              "resourceType": "Patient",
              "id": "87180c29-5a26-4e51-a66d-2e4aefb6e5cf",
              "meta": {
                "profile": [
                  "https://fhir.kbv.de/StructureDefinition/KBV_PR_FOR_Patient|1.1.0"
                ]
              },
              "identifier": [
                {
                  "type": {
                    "coding": [
                      {
                        "system": "http://fhir.de/CodeSystem/identifier-type-de-basis",
                        "code": "GKV"
                      }
                    ]
                  },
                  "system": "http://fhir.de/sid/gkv/kvid-10",
                  "value": "X110498565"
                }
              ],
              "name": [
                {
                  "use": "official",
                  "family": "Hüllmann",
                  "_family": {
                    "extension": [
                      {
                        "url": "http://hl7.org/fhir/StructureDefinition/humanname-own-name",
                        "valueString": "Hüllmann"
                      }
                    ]
                  },
                  "given": ["Sina"]
                }
              ],
              "birthDate": "1974-04-10",
              "address": [
                {
                  "type": "both",
                  "line": ["Lützenkirchener Str. 66c"],
                  "_line": [
                    {
                      "extension": [
                        {
                          "url": "http://hl7.org/fhir/StructureDefinition/iso21090-ADXP-houseNumber",
                          "valueString": "66c"
                        },
                        {
                          "url": "http://hl7.org/fhir/StructureDefinition/iso21090-ADXP-streetName",
                          "valueString": "Lützenkirchener Str."
                        }
                      ]
                    }
                  ],
                  "city": "Henningberg",
                  "postalCode": "36321",
                  "country": "D"
                }
              ]
            }
          },
          {
            "fullUrl": "https://pvs.gematik.de/fhir/Organization/ada7c44c-a66f-4ede-8ca8-ded704380e58",
            "resource": {
              "resourceType": "Organization",
              "id": "ada7c44c-a66f-4ede-8ca8-ded704380e58",
              "meta": {
                "profile": [
                  "https://fhir.kbv.de/StructureDefinition/KBV_PR_FOR_Organization|1.1.0"
                ]
              },
              "identifier": [
                {
                  "type": {
                    "coding": [
                      {
                        "system": "http://terminology.hl7.org/CodeSystem/v2-0203",
                        "code": "BSNR"
                      }
                    ]
                  },
                  "system": "https://fhir.kbv.de/NamingSystem/KBV_NS_Base_BSNR",
                  "value": "462423188"
                }
              ],
              "name": "Arztpraxis Schraßer",
              "telecom": [
                {
                  "system": "phone",
                  "value": "(09852) 9798222"
                },
                {
                  "system": "email",
                  "value": "klara.walter@filipowski.org"
                }
              ],
              "address": [
                {
                  "type": "both",
                  "line": ["Bornheimer Str. 02c"],
                  "_line": [
                    {
                      "extension": [
                        {
                          "url": "http://hl7.org/fhir/StructureDefinition/iso21090-ADXP-houseNumber",
                          "valueString": "02c"
                        },
                        {
                          "url": "http://hl7.org/fhir/StructureDefinition/iso21090-ADXP-streetName",
                          "valueString": "Bornheimer Str."
                        }
                      ]
                    }
                  ],
                  "city": "Jolieland",
                  "postalCode": "57526",
                  "country": "D"
                }
              ]
            }
          },
          {
            "fullUrl": "https://pvs.gematik.de/fhir/Coverage/ec6e197c-43a9-4f90-9b62-7029fe34fa69",
            "resource": {
              "resourceType": "Coverage",
              "id": "ec6e197c-43a9-4f90-9b62-7029fe34fa69",
              "meta": {
                "profile": [
                  "https://fhir.kbv.de/StructureDefinition/KBV_PR_FOR_Coverage|1.1.0"
                ]
              },
              "extension": [
                {
                  "url": "http://fhir.de/StructureDefinition/gkv/besondere-personengruppe",
                  "valueCoding": {
                    "system": "https://fhir.kbv.de/CodeSystem/KBV_CS_SFHIR_KBV_PERSONENGRUPPE",
                    "code": "00"
                  }
                },
                {
                  "url": "http://fhir.de/StructureDefinition/gkv/dmp-kennzeichen",
                  "valueCoding": {
                    "system": "https://fhir.kbv.de/CodeSystem/KBV_CS_SFHIR_KBV_DMP",
                    "code": "00"
                  }
                },
                {
                  "url": "http://fhir.de/StructureDefinition/gkv/wop",
                  "valueCoding": {
                    "system": "https://fhir.kbv.de/CodeSystem/KBV_CS_SFHIR_ITA_WOP",
                    "code": "01"
                  }
                },
                {
                  "url": "http://fhir.de/StructureDefinition/gkv/versichertenart",
                  "valueCoding": {
                    "system": "https://fhir.kbv.de/CodeSystem/KBV_CS_SFHIR_KBV_VERSICHERTENSTATUS",
                    "code": "1"
                  }
                }
              ],
              "status": "active",
              "type": {
                "coding": [
                  {
                    "system": "http://fhir.de/CodeSystem/versicherungsart-de-basis",
                    "code": "GKV"
                  }
                ]
              },
              "beneficiary": {
                "reference": "Patient/4caafbb1-4850-44e0-91f5-2f0d310a8861"
              },
              "payor": [
                {
                  "identifier": {
                    "system": "http://fhir.de/sid/arge-ik/iknr",
                    "value": "355392247"
                  },
                  "display": "KOA Trier"
                }
              ]
            }
          },
          {
            "fullUrl": "https://pvs.gematik.de/fhir/Practitioner/b596f6b7-7148-4cd2-9a86-2c72bdd57537",
            "resource": {
              "resourceType": "Practitioner",
              "id": "b596f6b7-7148-4cd2-9a86-2c72bdd57537",
              "meta": {
                "profile": [
                  "https://fhir.kbv.de/StructureDefinition/KBV_PR_FOR_Practitioner|1.1.0"
                ]
              },
              "identifier": [
                {
                  "type": {
                    "coding": [
                      {
                        "system": "http://terminology.hl7.org/CodeSystem/v2-0203",
                        "code": "LANR"
                      }
                    ]
                  },
                  "system": "https://fhir.kbv.de/NamingSystem/KBV_NS_Base_ANR",
                  "value": "887925485"
                }
              ],
              "name": [
                {
                  "use": "official",
                  "family": "Schraßer",
                  "_family": {
                    "extension": [
                      {
                        "url": "http://hl7.org/fhir/StructureDefinition/humanname-own-name",
                        "valueString": "Schraßer"
                      }
                    ]
                  },
                  "given": ["Dr."],
                  "prefix": ["Dr."],
                  "_prefix": [
                    {
                      "extension": [
                        {
                          "url": "http://hl7.org/fhir/StructureDefinition/iso21090-EN-qualifier",
                          "valueCode": "AC"
                        }
                      ]
                    }
                  ]
                }
              ],
              "qualification": [
                {
                  "code": {
                    "coding": [
                      {
                        "system": "https://fhir.kbv.de/CodeSystem/KBV_CS_FOR_Qualification_Type",
                        "code": "00"
                      }
                    ]
                  }
                },
                {
                  "code": {
                    "coding": [
                      {
                        "system": "https://fhir.kbv.de/CodeSystem/KBV_CS_FOR_Berufsbezeichnung",
                        "code": "Berufsbezeichnung"
                      }
                    ],
                    "text": "Super-Facharzt für alles Mögliche"
                  }
                }
              ]
            }
          }
        ],
        "signature": {
          "type": [
            {
              "system": "urn:iso-astm:E1762-95:2013",
              "code": "1.2.840.10065.1.12.1.5"
            }
          ],
          "when": "2023-04-21T07:09:33.339+00:00",
          "who": {
            "reference": "https://erp-dev.zentral.erp.splitdns.ti-dienste.de/Device/1"
          },
          "targetFormat": "application/fhir+json",
          "sigFormat": "application/jose",
          "data": ""
        }
      }
    }
  ]
}
