{
  "resourceType": "Bundle",
  "id": "753fff3b-5373-4f8d-aa22-852792e799d8",
  "meta": {
    "lastUpdated": "2022-07-27T08:30:00+00:00",
    "profile": [
      "https://fhir.kbv.de/StructureDefinition/KBV_PR_ERP_Bundle|1.0.2"
    ]
  },
  "identifier": {
    "system": "https://gematik.de/fhir/NamingSystem/PrescriptionID",
    "value": "160.100.000.000.013.03"
  },
  "type": "document",
  "timestamp": "2022-07-27T08:30:00+00:00",
  "entry": [
    {
      "fullUrl": "http://pvs.praxis.local/fhir/Composition/607046ff-f07a-4093-8880-e7961c0e0ca8",
      "resource": {
        "resourceType": "Composition",
        "id": "607046ff-f07a-4093-8880-e7961c0e0ca8",
        "meta": {
          "profile": [
            "https://fhir.kbv.de/StructureDefinition/KBV_PR_ERP_Composition|1.0.2"
          ]
        },
        "extension": [
          {
            "url": "https://fhir.kbv.de/StructureDefinition/KBV_EX_FOR_Legal_basis",
            "valueCoding": {
              "system": "https://fhir.kbv.de/CodeSystem/KBV_CS_SFHIR_KBV_STATUSKENNZEICHEN",
              "code": "00"
            }
          }
        ],
        "status": "final",
        "type": {
          "coding": [
            {
              "system": "https://fhir.kbv.de/CodeSystem/KBV_CS_SFHIR_KBV_FORMULAR_ART",
              "code": "e16A"
            }
          ]
        },
        "subject": {
          "reference": "Patient/30635f5d-c233-4500-94e8-6414940236aa"
        },
        "date": "2022-07-27T08:00:00Z",
        "author": [
          {
            "reference": "Practitioner/d77171e1-9bf1-480d-93ee-619d26ea8557",
            "type": "Practitioner"
          },
          {
            "type": "Device",
            "identifier": {
              "system": "https://fhir.kbv.de/NamingSystem/KBV_NS_FOR_Pruefnummer",
              "value": "Y/410/2107/36/999"
            }
          }
        ],
        "title": "elektronische Arzneimittelverordnung",
        "custodian": {
          "reference": "Organization/06c35aa5-d009-436f-aaba-93d835a2fe72"
        },
        "section": [
          {
            "code": {
              "coding": [
                {
                  "system": "https://fhir.kbv.de/CodeSystem/KBV_CS_ERP_Section_Type",
                  "code": "Prescription"
                }
              ]
            },
            "entry": [
              {
                "reference": "MedicationRequest/53dff04a-fa41-45cf-81bc-ce62629917ad"
              }
            ]
          },
          {
            "code": {
              "coding": [
                {
                  "system": "https://fhir.kbv.de/CodeSystem/KBV_CS_ERP_Section_Type",
                  "code": "Coverage"
                }
              ]
            },
            "entry": [
              {
                "reference": "Coverage/e51239e1-ba74-48e0-97fb-9754d2b05c60"
              }
            ]
          }
        ]
      }
    },
    {
      "fullUrl": "http://pvs.praxis.local/fhir/MedicationRequest/53dff04a-fa41-45cf-81bc-ce62629917ad",
      "resource": {
        "resourceType": "MedicationRequest",
        "id": "53dff04a-fa41-45cf-81bc-ce62629917ad",
        "meta": {
          "profile": [
            "https://fhir.kbv.de/StructureDefinition/KBV_PR_ERP_Prescription|1.0.2"
          ]
        },
        "extension": [
          {
            "url": "https://fhir.kbv.de/StructureDefinition/KBV_EX_ERP_StatusCoPayment",
            "valueCoding": {
              "system": "https://fhir.kbv.de/CodeSystem/KBV_CS_ERP_StatusCoPayment",
              "code": "2"
            }
          },
          {
            "url": "https://fhir.kbv.de/StructureDefinition/KBV_EX_ERP_EmergencyServicesFee",
            "valueBoolean": false
          },
          {
            "url": "https://fhir.kbv.de/StructureDefinition/KBV_EX_ERP_BVG",
            "valueBoolean": false
          },
          {
            "extension": [
              {
                "url": "Kennzeichen",
                "valueBoolean": false
              }
            ],
            "url": "https://fhir.kbv.de/StructureDefinition/KBV_EX_ERP_Multiple_Prescription"
          }
        ],
        "status": "active",
        "intent": "order",
        "medicationReference": {
          "reference": "Medication/704db507-79b4-44a1-84b8-344255ad7e36"
        },
        "subject": {
          "reference": "Patient/30635f5d-c233-4500-94e8-6414940236aa"
        },
        "authoredOn": "2022-07-27",
        "requester": {
          "reference": "Practitioner/d77171e1-9bf1-480d-93ee-619d26ea8557"
        },
        "insurance": [
          {
            "reference": "Coverage/e51239e1-ba74-48e0-97fb-9754d2b05c60"
          }
        ],
        "dosageInstruction": [
          {
            "extension": [
              {
                "url": "https://fhir.kbv.de/StructureDefinition/KBV_EX_ERP_DosageFlag",
                "valueBoolean": false
              }
            ]
          }
        ],
        "dispenseRequest": {
          "quantity": {
            "value": 1,
            "system": "http://unitsofmeasure.org",
            "code": "{Package}"
          }
        },
        "substitution": {
          "allowedBoolean": true
        }
      }
    },
    {
      "fullUrl": "http://pvs.praxis.local/fhir/Medication/704db507-79b4-44a1-84b8-344255ad7e36",
      "resource": {
        "resourceType": "Medication",
        "id": "704db507-79b4-44a1-84b8-344255ad7e36",
        "meta": {
          "profile": [
            "https://fhir.kbv.de/StructureDefinition/KBV_PR_ERP_Medication_PZN|1.0.2"
          ]
        },
        "extension": [
          {
            "url": "https://fhir.kbv.de/StructureDefinition/KBV_EX_ERP_Medication_Category",
            "valueCoding": {
              "system": "https://fhir.kbv.de/CodeSystem/KBV_CS_ERP_Medication_Category",
              "code": "00"
            }
          },
          {
            "url": "https://fhir.kbv.de/StructureDefinition/KBV_EX_ERP_Medication_Vaccine",
            "valueBoolean": false
          },
          {
            "url": "http://fhir.de/StructureDefinition/normgroesse",
            "valueCode": "N1"
          }
        ],
        "code": {
          "coding": [
            {
              "system": "http://fhir.de/CodeSystem/ifa/pzn",
              "code": "16332684"
            }
          ],
          "text": "GONAL-f 150 I.E./0,25ml Injektionslösung"
        },
        "form": {
          "coding": [
            {
              "system": "https://fhir.kbv.de/CodeSystem/KBV_CS_SFHIR_KBV_DARREICHUNGSFORM",
              "code": "PEN"
            }
          ]
        },
        "amount": {
          "numerator": {
            "value": 1,
            "unit": "St",
            "system": "http://unitsofmeasure.org",
            "code": "{tbl}"
          },
          "denominator": {
            "value": 1
          }
        }
      }
    },
    {
      "fullUrl": "http://pvs.praxis.local/fhir/Patient/30635f5d-c233-4500-94e8-6414940236aa",
      "resource": {
        "resourceType": "Patient",
        "id": "30635f5d-c233-4500-94e8-6414940236aa",
        "meta": {
          "profile": [
            "https://fhir.kbv.de/StructureDefinition/KBV_PR_FOR_Patient|1.0.3"
          ]
        },
        "identifier": [
          {
            "type": {
              "coding": [
                {
                  "system": "http://fhir.de/CodeSystem/identifier-type-de-basis",
                  "code": "GKV"
                }
              ]
            },
            "system": "http://fhir.de/NamingSystem/gkv/kvid-10",
            "value": "K220645122"
          }
        ],
        "name": [
          {
            "use": "official",
            "family": "Schuhmann",
            "_family": {
              "extension": [
                {
                  "url": "http://hl7.org/fhir/StructureDefinition/humanname-own-name",
                  "valueString": "Schuhmann"
                }
              ]
            },
            "given": [
              "Sahra"
            ]
          }
        ],
        "birthDate": "1984-12-24",
        "address": [
          {
            "type": "both",
            "line": [
              "Berliner Straße 1"
            ],
            "_line": [
              {
                "extension": [
                  {
                    "url": "http://hl7.org/fhir/StructureDefinition/iso21090-ADXP-houseNumber",
                    "valueString": "1"
                  },
                  {
                    "url": "http://hl7.org/fhir/StructureDefinition/iso21090-ADXP-streetName",
                    "valueString": "Berliner Straße"
                  }
                ]
              }
            ],
            "city": "Husum",
            "postalCode": "25813",
            "country": "D"
          }
        ]
      }
    },
    {
      "fullUrl": "http://pvs.praxis.local/fhir/Practitioner/d77171e1-9bf1-480d-93ee-619d26ea8557",
      "resource": {
        "resourceType": "Practitioner",
        "id": "d77171e1-9bf1-480d-93ee-619d26ea8557",
        "meta": {
          "profile": [
            "https://fhir.kbv.de/StructureDefinition/KBV_PR_FOR_Practitioner|1.0.3"
          ]
        },
        "identifier": [
          {
            "type": {
              "coding": [
                {
                  "system": "http://terminology.hl7.org/CodeSystem/v2-0203",
                  "code": "LANR"
                }
              ]
            },
            "system": "https://fhir.kbv.de/NamingSystem/KBV_NS_Base_ANR",
            "value": "167761816"
          }
        ],
        "name": [
          {
            "use": "official",
            "family": "Wagner",
            "_family": {
              "extension": [
                {
                  "url": "http://hl7.org/fhir/StructureDefinition/humanname-own-name",
                  "valueString": "Wagner"
                }
              ]
            },
            "given": [
              "Elias"
            ],
            "prefix": [
              "Prof. Dr. med"
            ],
            "_prefix": [
              {
                "extension": [
                  {
                    "url": "http://hl7.org/fhir/StructureDefinition/iso21090-EN-qualifier",
                    "valueCode": "AC"
                  }
                ]
              }
            ]
          }
        ],
        "qualification": [
          {
            "code": {
              "coding": [
                {
                  "system": "https://fhir.kbv.de/CodeSystem/KBV_CS_FOR_Qualification_Type",
                  "code": "00"
                }
              ]
            }
          },
          {
            "code": {
              "text": "Facharzt für Gynäkologie und Geburtshilfe mit dem Schwerpunkt der gynäkologischen Endokrinologie und Reproduktionsmedizin"
            }
          }
        ]
      }
    },
    {
      "fullUrl": "http://pvs.praxis.local/fhir/Organization/06c35aa5-d009-436f-aaba-93d835a2fe72",
      "resource": {
        "resourceType": "Organization",
        "id": "06c35aa5-d009-436f-aaba-93d835a2fe72",
        "meta": {
          "profile": [
            "https://fhir.kbv.de/StructureDefinition/KBV_PR_FOR_Organization|1.0.3"
          ]
        },
        "identifier": [
          {
            "type": {
              "coding": [
                {
                  "system": "http://terminology.hl7.org/CodeSystem/v2-0203",
                  "code": "BSNR"
                }
              ]
            },
            "system": "https://fhir.kbv.de/NamingSystem/KBV_NS_Base_BSNR",
            "value": "722222200"
          }
        ],
        "name": "Praxis für Frauenheilkunde und Geburtshilfe",
        "telecom": [
          {
            "system": "phone",
            "value": "030741852963"
          }
        ],
        "address": [
          {
            "type": "both",
            "line": [
              "Herbert-Lewin-Platz 2"
            ],
            "_line": [
              {
                "extension": [
                  {
                    "url": "http://hl7.org/fhir/StructureDefinition/iso21090-ADXP-houseNumber",
                    "valueString": "2"
                  },
                  {
                    "url": "http://hl7.org/fhir/StructureDefinition/iso21090-ADXP-streetName",
                    "valueString": "Herbert-Lewin-Platz"
                  }
                ]
              }
            ],
            "city": "Berlin",
            "postalCode": "10623",
            "country": "D"
          }
        ]
      }
    },
    {
      "fullUrl": "http://pvs.praxis.local/fhir/Coverage/e51239e1-ba74-48e0-97fb-9754d2b05c60",
      "resource": {
        "resourceType": "Coverage",
        "id": "e51239e1-ba74-48e0-97fb-9754d2b05c60",
        "meta": {
          "profile": [
            "https://fhir.kbv.de/StructureDefinition/KBV_PR_FOR_Coverage|1.0.3"
          ]
        },
        "extension": [
          {
            "url": "http://fhir.de/StructureDefinition/gkv/besondere-personengruppe",
            "valueCoding": {
              "system": "https://fhir.kbv.de/CodeSystem/KBV_CS_SFHIR_KBV_PERSONENGRUPPE",
              "code": "06"
            }
          },
          {
            "url": "http://fhir.de/StructureDefinition/gkv/dmp-kennzeichen",
            "valueCoding": {
              "system": "https://fhir.kbv.de/CodeSystem/KBV_CS_SFHIR_KBV_DMP",
              "code": "00"
            }
          },
          {
            "url": "http://fhir.de/StructureDefinition/gkv/wop",
            "valueCoding": {
              "system": "https://fhir.kbv.de/CodeSystem/KBV_CS_SFHIR_ITA_WOP",
              "code": "01"
            }
          },
          {
            "url": "http://fhir.de/StructureDefinition/gkv/versichertenart",
            "valueCoding": {
              "system": "https://fhir.kbv.de/CodeSystem/KBV_CS_SFHIR_KBV_VERSICHERTENSTATUS",
              "code": "1"
            }
          }
        ],
        "status": "active",
        "type": {
          "coding": [
            {
              "system": "http://fhir.de/CodeSystem/versicherungsart-de-basis",
              "code": "GKV"
            }
          ]
        },
        "beneficiary": {
          "reference": "Patient/30635f5d-c233-4500-94e8-6414940236aa"
        },
        "payor": [
          {
            "identifier": {
              "system": "http://fhir.de/NamingSystem/arge-ik/iknr",
              "value": "108018347"
            },
            "display": "AOK Ludwigsburg-Bietigheim"
          }
        ]
      }
    }
  ]
}