<Parameters xmlns="http://hl7.org/fhir">
   <id value="98799ea5-1105-45a5-bca5-c1297008cdde"/>
   <meta>
      <profile value="https://gematik.de/fhir/epa-medication/StructureDefinition/epa-op-provide-dispensation-erp-input-parameters|1.0.3"/>
   </meta>
   <parameter>
      <name value="rxDispensation"/>
      <part>
         <name value="prescriptionId"/>
         <valueIdentifier>
            <system value="https://gematik.de/fhir/erp/NamingSystem/GEM_ERP_NS_PrescriptionId"/>
            <value value="160.100.000.000.019.82"/>
         </valueIdentifier>
      </part>
      <part>
         <name value="authoredOn"/>
         <valueDate value="1970-01-01"/>
      </part>
      <part>
         <name value="medicationDispense"/>
         <resource>
            <MedicationDispense xmlns="http://hl7.org/fhir">
               <id value="a858c82a-fb40-4e17-8169-82ed4ff00e7b"/>
               <meta>
                  <profile value="https://gematik.de/fhir/epa-medication/StructureDefinition/epa-medication-dispense|1.0.3"/>
               </meta>
               <identifier>
                  <system value="https://gematik.de/fhir/epa-medication/sid/rx-originator-process-identifier"/>
                  <value value="5906fd7f-35b5-4420-963a-b562a99dcb81_160.100.000.000.019.82"/>
               </identifier>
               <status value="completed"/>
               <category>
                  <coding>
                     <system value="https://gematik.de/fhir/epa-medication/CodeSystem/EPAMedicationDispenseCategoryCS"/>
                     <code value="prescription"/>
                     <display value="prescription dispense"/>
                  </coding>
               </category>
               <medicationReference>
                  <reference value="Medication/c5658376-ba16-436c-844d-43d6bd078037"/>
               </medicationReference>
               <subject>
                  <identifier>
                     <system value="http://fhir.de/sid/gkv/kvid-10"/>
                     <value value="K030182229"/>
                  </identifier>
               </subject>
               <performer>
                  <actor>
                     <reference value="Organization/05f4dbc0-b767-4c24-95d4-46e687e183fe"/>
                  </actor>
               </performer>
               <whenHandedOver value="2024-11-27"/>
               <dosageInstruction>
                  <text value="1-0-0-0"/>
               </dosageInstruction>
            </MedicationDispense>
         </resource>
      </part>
      <part>
         <name value="medication"/>
         <resource>
            <Medication xmlns="http://hl7.org/fhir">
               <id value="c5658376-ba16-436c-844d-43d6bd078037"/>
               <meta>
                  <profile value="https://gematik.de/fhir/epa-medication/StructureDefinition/epa-medication|1.0.3"/>
               </meta>
               <extension url="https://gematik.de/fhir/epa-medication/StructureDefinition/drug-category-extension">
                  <valueCoding>
                     <system value="https://gematik.de/fhir/epa-medication/CodeSystem/epa-drug-category-cs"/>
                     <code value="00"/>
                  </valueCoding>
               </extension>
               <extension url="https://gematik.de/fhir/epa-medication/StructureDefinition/medication-id-vaccine-extension">
                  <valueBoolean value="false"/>
               </extension>
               <extension url="http://fhir.de/StructureDefinition/normgroesse">
                  <valueCode value="N3"/>
               </extension>
               <code>
                  <coding>
                     <system value="http://fhir.de/CodeSystem/ifa/pzn"/>
                     <code value="00766759"/>
                  </coding>
                  <text value="RAMIPRIL-1A Pharma 5 mg Tabletten (100 St)"/>
               </code>
               <form>
                  <coding>
                     <system value="https://fhir.kbv.de/CodeSystem/KBV_CS_SFHIR_KBV_DARREICHUNGSFORM"/>
                     <code value="TAB"/>
                  </coding>
               </form>
               <amount>
                  <numerator>
                     <extension url="https://gematik.de/fhir/epa-medication/StructureDefinition/medication-packaging-size-extension">
                        <valueString value="100"/>
                     </extension>
                     <unit value="Tabletten"/>
                  </numerator>
                  <denominator>
                     <value value="1"/>
                  </denominator>
               </amount>
               <batch>
                  <lotNumber value="A123456789-1"/>
                  <expirationDate value="2025-12-31"/>
               </batch>
            </Medication>
         </resource>
      </part>
      <part>
         <name value="organization"/>
         <resource>
            <Organization xmlns="http://hl7.org/fhir">
               <id value="05f4dbc0-b767-4c24-95d4-46e687e183fe"/>
               <meta>
                  <profile value="https://gematik.de/fhir/directory/StructureDefinition/OrganizationDirectory|0.11.12"/>
                  <tag>
                     <system value="https://gematik.de/fhir/directory/CodeSystem/Origin"/>
                     <code value="ldap"/>
                  </tag>
               </meta>
               <identifier>
                  <system value="https://gematik.de/fhir/sid/telematik-id"/>
                  <value value="3-07.2.1234560000.10.789"/>
               </identifier>
               <type>
                  <coding>
                     <system value="https://gematik.de/fhir/directory/CodeSystem/OrganizationProfessionOID"/>
                     <code value="1.2.276.0.76.4.58"/>
                  </coding>
               </type>
               <name value="Morgan U. Canhandle"/>
            </Organization>
         </resource>
      </part>
   </parameter>
</Parameters>