<Bundle xmlns="http://hl7.org/fhir">
   <id value="83774d94-804d-4933-87f8-a2d28ef20b9a"/>
   <type value="collection"/>
   <timestamp value="2023-04-18T06:46:25.141+00:00"/>
   <entry>
      <fullUrl value="https://erp-dev.zentral.erp.splitdns.ti-dienste.de/ChargeItem/200.000.001.943.788.56"/>
      <resource>
         <ChargeItem xmlns="http://hl7.org/fhir">
            <id value="200.000.001.943.788.56"/>
            <meta>
               <profile value="https://gematik.de/fhir/erpchrg/StructureDefinition/GEM_ERPCHRG_PR_ChargeItem|1.0"/>
            </meta>
            <identifier>
               <system value="https://gematik.de/fhir/erp/NamingSystem/GEM_ERP_NS_PrescriptionId"/>
               <value value="200.000.001.943.788.56"/>
            </identifier>
            <status value="billable"/>
            <code>
               <coding>
                  <system value="http://terminology.hl7.org/CodeSystem/data-absent-reason"/>
                  <code value="not-applicable"/>
               </coding>
            </code>
            <subject>
               <identifier>
                  <system value="http://fhir.de/sid/pkv/kvid-10"/>
                  <value value="X110465770"/>
               </identifier>
            </subject>
            <enterer>
               <identifier>
                  <system value="https://gematik.de/fhir/sid/telematik-id"/>
                  <value value="3-SMC-B-Testkarte-883110000116873"/>
               </identifier>
            </enterer>
            <enteredDate value="2023-04-18T06:46:23.591+00:00"/>
            <supportingInformation>
               <reference value="urn:uuid:c8eca81d-0000-0000-0001-000000000000"/>
               <display value="https://fhir.kbv.de/StructureDefinition/KBV_PR_ERP_Bundle"/>
            </supportingInformation>
            <supportingInformation>
               <reference value="urn:uuid:c8eca81d-0000-0000-0004-000000000000"/>
               <display value="http://fhir.abda.de/eRezeptAbgabedaten/StructureDefinition/DAV-PKV-PR-ERP-AbgabedatenBundle"/>
            </supportingInformation>
            <supportingInformation>
               <reference value="urn:uuid:c8eca81d-0000-0000-0003-000000000000"/>
               <display value="https://gematik.de/fhir/erp/StructureDefinition/GEM_ERP_PR_Bundle"/>
            </supportingInformation>
         </ChargeItem>
      </resource>
   </entry>
   <entry>
      <fullUrl value="urn:uuid:c8eca81d-0000-0000-0001-000000000000"/>
      <resource>
         <Bundle xmlns="http://hl7.org/fhir">
            <id value="9268c527-633d-4263-afad-f6c57bd04d86"/>
            <meta>
               <lastUpdated value="2023-04-18T08:46:18.740+02:00"/>
               <profile value="https://fhir.kbv.de/StructureDefinition/KBV_PR_ERP_Bundle|1.1.0"/>
            </meta>
            <identifier>
               <system value="https://gematik.de/fhir/erp/NamingSystem/GEM_ERP_NS_PrescriptionId"/>
               <value value="200.000.001.943.788.56"/>
            </identifier>
            <type value="document"/>
            <timestamp value="2023-04-18T08:46:18.740+02:00"/>
            <entry>
               <fullUrl value="https://pvs.gematik.de/fhir/Composition/98c64e66-43bf-4d68-bf0f-b7e4ba9b2ac2"/>
               <resource>
                  <Composition xmlns="http://hl7.org/fhir">
                     <id value="98c64e66-43bf-4d68-bf0f-b7e4ba9b2ac2"/>
                     <meta>
                        <profile value="https://fhir.kbv.de/StructureDefinition/KBV_PR_ERP_Composition|1.1.0"/>
                     </meta>
                     <extension url="https://fhir.kbv.de/StructureDefinition/KBV_EX_FOR_Legal_basis">
                        <valueCoding>
                           <system value="https://fhir.kbv.de/CodeSystem/KBV_CS_SFHIR_KBV_STATUSKENNZEICHEN"/>
                           <code value="00"/>
                        </valueCoding>
                     </extension>
                     <status value="final"/>
                     <type>
                        <coding>
                           <system value="https://fhir.kbv.de/CodeSystem/KBV_CS_SFHIR_KBV_FORMULAR_ART"/>
                           <code value="e16A"/>
                        </coding>
                     </type>
                     <subject>
                        <reference value="Patient/2d920359-de0c-442f-b341-506c89704d53"/>
                     </subject>
                     <date value="2023-04-18T08:46:18+02:00"/>
                     <author>
                        <reference value="Practitioner/22fcfaa5-eacd-4712-8001-934f7f61ba31"/>
                        <type value="Practitioner"/>
                     </author>
                     <author>
                        <type value="Device"/>
                        <identifier>
                           <system value="https://fhir.kbv.de/NamingSystem/KBV_NS_FOR_Pruefnummer"/>
                           <value value="GEMATIK/410/2109/36/123"/>
                        </identifier>
                     </author>
                     <title value="elektronische Arzneimittelverordnung"/>
                     <custodian>
                        <reference value="Organization/cc18a924-279b-475a-8b64-f42945a10054"/>
                     </custodian>
                     <section>
                        <code>
                           <coding>
                              <system value="https://fhir.kbv.de/CodeSystem/KBV_CS_ERP_Section_Type"/>
                              <code value="Coverage"/>
                           </coding>
                        </code>
                        <entry>
                           <reference value="Coverage/1d1744ac-663a-43e7-b455-00380c0fa26c"/>
                        </entry>
                     </section>
                     <section>
                        <code>
                           <coding>
                              <system value="https://fhir.kbv.de/CodeSystem/KBV_CS_ERP_Section_Type"/>
                              <code value="Prescription"/>
                           </coding>
                        </code>
                        <entry>
                           <reference value="MedicationRequest/b99f05ce-fe4b-4e21-8e86-8b21034f2e45"/>
                        </entry>
                     </section>
                  </Composition>
               </resource>
            </entry>
            <entry>
               <fullUrl value="https://pvs.gematik.de/fhir/MedicationRequest/b99f05ce-fe4b-4e21-8e86-8b21034f2e45"/>
               <resource>
                  <MedicationRequest xmlns="http://hl7.org/fhir">
                     <id value="b99f05ce-fe4b-4e21-8e86-8b21034f2e45"/>
                     <meta>
                        <profile value="https://fhir.kbv.de/StructureDefinition/KBV_PR_ERP_Prescription|1.1.0"/>
                     </meta>
                     <extension url="https://fhir.kbv.de/StructureDefinition/KBV_EX_ERP_BVG">
                        <valueBoolean value="false"/>
                     </extension>
                     <extension url="https://fhir.kbv.de/StructureDefinition/KBV_EX_ERP_EmergencyServicesFee">
                        <valueBoolean value="false"/>
                     </extension>
                     <extension url="https://fhir.kbv.de/StructureDefinition/KBV_EX_ERP_Multiple_Prescription">
                        <extension url="Kennzeichen">
                           <valueBoolean value="false"/>
                        </extension>
                     </extension>
                     <extension url="https://fhir.kbv.de/StructureDefinition/KBV_EX_FOR_StatusCoPayment">
                        <valueCoding>
                           <system value="https://fhir.kbv.de/CodeSystem/KBV_CS_FOR_StatusCoPayment"/>
                           <code value="0"/>
                        </valueCoding>
                     </extension>
                     <status value="active"/>
                     <intent value="order"/>
                     <medicationReference>
                        <reference value="Medication/a0f7225e-3d77-4f27-bbba-977752eb7313"/>
                     </medicationReference>
                     <subject>
                        <reference value="Patient/2d920359-de0c-442f-b341-506c89704d53"/>
                     </subject>
                     <authoredOn value="2023-04-18"/>
                     <requester>
                        <reference value="Practitioner/22fcfaa5-eacd-4712-8001-934f7f61ba31"/>
                     </requester>
                     <insurance>
                        <reference value="Coverage/1d1744ac-663a-43e7-b455-00380c0fa26c"/>
                     </insurance>
                     <dosageInstruction>
                        <extension url="https://fhir.kbv.de/StructureDefinition/KBV_EX_ERP_DosageFlag">
                           <valueBoolean value="true"/>
                        </extension>
                        <text value="1-0-0-0"/>
                     </dosageInstruction>
                     <dispenseRequest>
                        <quantity>
                           <value value="1"/>
                           <system value="http://unitsofmeasure.org"/>
                           <code value="{Package}"/>
                        </quantity>
                     </dispenseRequest>
                     <substitution>
                        <allowedBoolean value="true"/>
                     </substitution>
                  </MedicationRequest>
               </resource>
            </entry>
            <entry>
               <fullUrl value="https://pvs.gematik.de/fhir/Medication/a0f7225e-3d77-4f27-bbba-977752eb7313"/>
               <resource>
                  <Medication xmlns="http://hl7.org/fhir">
                     <id value="a0f7225e-3d77-4f27-bbba-977752eb7313"/>
                     <meta>
                        <profile value="https://fhir.kbv.de/StructureDefinition/KBV_PR_ERP_Medication_PZN|1.1.0"/>
                     </meta>
                     <extension url="https://fhir.kbv.de/StructureDefinition/KBV_EX_Base_Medication_Type">
                        <valueCodeableConcept>
                           <coding>
                              <system value="http://snomed.info/sct"/>
                              <version value="http://snomed.info/sct/900000000000207008/version/20220331"/>
                              <code value="763158003"/>
                              <display value="Medicinal product (product)"/>
                           </coding>
                        </valueCodeableConcept>
                     </extension>
                     <extension url="https://fhir.kbv.de/StructureDefinition/KBV_EX_ERP_Medication_Category">
                        <valueCoding>
                           <system value="https://fhir.kbv.de/CodeSystem/KBV_CS_ERP_Medication_Category"/>
                           <code value="00"/>
                        </valueCoding>
                     </extension>
                     <extension url="https://fhir.kbv.de/StructureDefinition/KBV_EX_ERP_Medication_Vaccine">
                        <valueBoolean value="false"/>
                     </extension>
                     <extension url="http://fhir.de/StructureDefinition/normgroesse">
                        <valueCode value="NB"/>
                     </extension>
                     <code>
                        <coding>
                           <system value="http://fhir.de/CodeSystem/ifa/pzn"/>
                           <code value="80175543"/>
                        </coding>
                        <text value="Schmerzmittel"/>
                     </code>
                     <form>
                        <coding>
                           <system value="https://fhir.kbv.de/CodeSystem/KBV_CS_SFHIR_KBV_DARREICHUNGSFORM"/>
                           <code value="TAB"/>
                        </coding>
                     </form>
                     <amount>
                        <numerator>
                           <extension url="https://fhir.kbv.de/StructureDefinition/KBV_EX_ERP_Medication_PackagingSize">
                              <valueString value="1"/>
                           </extension>
                           <unit value="Stk"/>
                        </numerator>
                        <denominator>
                           <value value="1"/>
                        </denominator>
                     </amount>
                  </Medication>
               </resource>
            </entry>
            <entry>
               <fullUrl value="https://pvs.gematik.de/fhir/Patient/2d920359-de0c-442f-b341-506c89704d53"/>
               <resource>
                  <Patient xmlns="http://hl7.org/fhir">
                     <id value="2d920359-de0c-442f-b341-506c89704d53"/>
                     <meta>
                        <profile value="https://fhir.kbv.de/StructureDefinition/KBV_PR_FOR_Patient|1.1.0"/>
                     </meta>
                     <identifier>
                        <type>
                           <coding>
                              <system value="http://fhir.de/CodeSystem/identifier-type-de-basis"/>
                              <code value="PKV"/>
                           </coding>
                        </type>
                        <system value="http://fhir.de/sid/pkv/kvid-10"/>
                        <value value="X110465770"/>
                     </identifier>
                     <name>
                        <use value="official"/>
                        <family value="Angermänn">
                           <extension url="http://hl7.org/fhir/StructureDefinition/humanname-own-name">
                              <valueString value="Angermänn"/>
                           </extension>
                        </family>
                        <given value="Günther"/>
                     </name>
                     <birthDate value="1966-01-20"/>
                     <address>
                        <type value="both"/>
                        <line value="Windthorststr. 01">
                           <extension url="http://hl7.org/fhir/StructureDefinition/iso21090-ADXP-houseNumber">
                              <valueString value="01"/>
                           </extension>
                           <extension url="http://hl7.org/fhir/StructureDefinition/iso21090-ADXP-streetName">
                              <valueString value="Windthorststr."/>
                           </extension>
                        </line>
                        <city value="Alt Samscheid"/>
                        <postalCode value="05613"/>
                        <country value="D"/>
                     </address>
                  </Patient>
               </resource>
            </entry>
            <entry>
               <fullUrl value="https://pvs.gematik.de/fhir/Organization/cc18a924-279b-475a-8b64-f42945a10054"/>
               <resource>
                  <Organization xmlns="http://hl7.org/fhir">
                     <id value="cc18a924-279b-475a-8b64-f42945a10054"/>
                     <meta>
                        <profile value="https://fhir.kbv.de/StructureDefinition/KBV_PR_FOR_Organization|1.1.0"/>
                     </meta>
                     <identifier>
                        <type>
                           <coding>
                              <system value="http://terminology.hl7.org/CodeSystem/v2-0203"/>
                              <code value="BSNR"/>
                           </coding>
                        </type>
                        <system value="https://fhir.kbv.de/NamingSystem/KBV_NS_Base_BSNR"/>
                        <value value="473889899"/>
                     </identifier>
                     <name value="Arztpraxis Schraßer"/>
                     <telecom>
                        <system value="phone"/>
                        <value value="+49-0860-90676376"/>
                     </telecom>
                     <telecom>
                        <system value="email"/>
                        <value value="lyn.bittner@schmitz.de"/>
                     </telecom>
                     <address>
                        <type value="both"/>
                        <line value="Auf'm Kamp 23c">
                           <extension url="http://hl7.org/fhir/StructureDefinition/iso21090-ADXP-houseNumber">
                              <valueString value="23c"/>
                           </extension>
                           <extension url="http://hl7.org/fhir/StructureDefinition/iso21090-ADXP-streetName">
                              <valueString value="Auf'm Kamp"/>
                           </extension>
                        </line>
                        <city value="Tamiaberg"/>
                        <postalCode value="02861"/>
                        <country value="D"/>
                     </address>
                  </Organization>
               </resource>
            </entry>
            <entry>
               <fullUrl value="https://pvs.gematik.de/fhir/Coverage/1d1744ac-663a-43e7-b455-00380c0fa26c"/>
               <resource>
                  <Coverage xmlns="http://hl7.org/fhir">
                     <id value="1d1744ac-663a-43e7-b455-00380c0fa26c"/>
                     <meta>
                        <profile value="https://fhir.kbv.de/StructureDefinition/KBV_PR_FOR_Coverage|1.1.0"/>
                     </meta>
                     <extension url="http://fhir.de/StructureDefinition/gkv/besondere-personengruppe">
                        <valueCoding>
                           <system value="https://fhir.kbv.de/CodeSystem/KBV_CS_SFHIR_KBV_PERSONENGRUPPE"/>
                           <code value="00"/>
                        </valueCoding>
                     </extension>
                     <extension url="http://fhir.de/StructureDefinition/gkv/dmp-kennzeichen">
                        <valueCoding>
                           <system value="https://fhir.kbv.de/CodeSystem/KBV_CS_SFHIR_KBV_DMP"/>
                           <code value="00"/>
                        </valueCoding>
                     </extension>
                     <extension url="http://fhir.de/StructureDefinition/gkv/wop">
                        <valueCoding>
                           <system value="https://fhir.kbv.de/CodeSystem/KBV_CS_SFHIR_ITA_WOP"/>
                           <code value="52"/>
                        </valueCoding>
                     </extension>
                     <extension url="http://fhir.de/StructureDefinition/gkv/versichertenart">
                        <valueCoding>
                           <system value="https://fhir.kbv.de/CodeSystem/KBV_CS_SFHIR_KBV_VERSICHERTENSTATUS"/>
                           <code value="1"/>
                        </valueCoding>
                     </extension>
                     <status value="active"/>
                     <type>
                        <coding>
                           <system value="http://fhir.de/CodeSystem/versicherungsart-de-basis"/>
                           <code value="PKV"/>
                        </coding>
                     </type>
                     <beneficiary>
                        <reference value="Patient/7860776f-f7d9-48c1-95b8-20a685786a35"/>
                     </beneficiary>
                     <payor>
                        <identifier>
                           <system value="http://fhir.de/sid/arge-ik/iknr"/>
                           <value value="237123618"/>
                        </identifier>
                        <display value="Farmer Hamburg"/>
                     </payor>
                  </Coverage>
               </resource>
            </entry>
            <entry>
               <fullUrl value="https://pvs.gematik.de/fhir/Practitioner/22fcfaa5-eacd-4712-8001-934f7f61ba31"/>
               <resource>
                  <Practitioner xmlns="http://hl7.org/fhir">
                     <id value="22fcfaa5-eacd-4712-8001-934f7f61ba31"/>
                     <meta>
                        <profile value="https://fhir.kbv.de/StructureDefinition/KBV_PR_FOR_Practitioner|1.1.0"/>
                     </meta>
                     <identifier>
                        <type>
                           <coding>
                              <system value="http://terminology.hl7.org/CodeSystem/v2-0203"/>
                              <code value="LANR"/>
                           </coding>
                        </type>
                        <system value="https://fhir.kbv.de/NamingSystem/KBV_NS_Base_ANR"/>
                        <value value="733962003"/>
                     </identifier>
                     <name>
                        <use value="official"/>
                        <family value="Schraßer">
                           <extension url="http://hl7.org/fhir/StructureDefinition/humanname-own-name">
                              <valueString value="Schraßer"/>
                           </extension>
                        </family>
                        <given value="Dr."/>
                        <prefix value="Dr.">
                           <extension url="http://hl7.org/fhir/StructureDefinition/iso21090-EN-qualifier">
                              <valueCode value="AC"/>
                           </extension>
                        </prefix>
                     </name>
                     <qualification>
                        <code>
                           <coding>
                              <system value="https://fhir.kbv.de/CodeSystem/KBV_CS_FOR_Qualification_Type"/>
                              <code value="00"/>
                           </coding>
                        </code>
                     </qualification>
                     <qualification>
                        <code>
                           <coding>
                              <system value="https://fhir.kbv.de/CodeSystem/KBV_CS_FOR_Berufsbezeichnung"/>
                              <code value="Berufsbezeichnung"/>
                           </coding>
                           <text value="Super-Facharzt für alles Mögliche"/>
                        </code>
                     </qualification>
                  </Practitioner>
               </resource>
            </entry>
            <signature>
               <type>
                  <system value="urn:iso-astm:E1762-95:2013"/>
                  <code value="1.2.840.10065.1.12.1.1"/>
               </type>
               <when value="2023-04-18T06:46:18.000+00:00"/>
               <who>
                  <display value="Arzt"/>
               </who>
               <sigFormat value="application/pkcs7-mime"/>
               <data value=""/>
            </signature>
         </Bundle>
      </resource>
   </entry>
   <entry>
      <fullUrl value="urn:uuid:c8eca81d-0000-0000-0004-000000000000"/>
      <resource>
         <Bundle xmlns="http://hl7.org/fhir">
            <id value="02c71c65-3af4-4a2b-9b42-bff1e195954b"/>
            <meta>
               <lastUpdated value="2023-04-18T08:46:21.071+02:00"/>
               <profile value="http://fhir.abda.de/eRezeptAbgabedaten/StructureDefinition/DAV-PKV-PR-ERP-AbgabedatenBundle|1.1"/>
            </meta>
            <identifier>
               <system value="https://gematik.de/fhir/erp/NamingSystem/GEM_ERP_NS_PrescriptionId"/>
               <value value="200.000.001.943.788.56"/>
            </identifier>
            <type value="document"/>
            <timestamp value="2023-04-18T08:46:21.071+02:00"/>
            <entry>
               <fullUrl value="urn:uuid:1bd9b55f-8cb7-4bb9-924e-b0e16661e713"/>
               <resource>
                  <Composition xmlns="http://hl7.org/fhir">
                     <meta>
                        <profile value="http://fhir.abda.de/eRezeptAbgabedaten/StructureDefinition/DAV-PKV-PR-ERP-AbgabedatenComposition|1.1"/>
                     </meta>
                     <status value="final"/>
                     <type>
                        <coding>
                           <system value="http://fhir.abda.de/eRezeptAbgabedaten/CodeSystem/DAV-CS-ERP-CompositionTypes"/>
                           <code value="ERezeptAbgabedaten"/>
                        </coding>
                     </type>
                     <date value="2023-04-18T08:46:21+02:00"/>
                     <author>
                        <reference value="urn:uuid:a60d73af-3be8-46ef-bf56-c3c3fd8bb203"/>
                     </author>
                     <title value="ERezeptAbgabedaten"/>
                     <section>
                        <title value="Apotheke"/>
                        <entry>
                           <reference value="urn:uuid:a60d73af-3be8-46ef-bf56-c3c3fd8bb203"/>
                        </entry>
                     </section>
                     <section>
                        <title value="Abgabeinformationen"/>
                        <entry>
                           <reference value="urn:uuid:145a0144-cb61-43ca-a8fb-b795b1eadc22"/>
                        </entry>
                     </section>
                  </Composition>
               </resource>
            </entry>
            <entry>
               <fullUrl value="urn:uuid:a60d73af-3be8-46ef-bf56-c3c3fd8bb203"/>
               <resource>
                  <Organization xmlns="http://hl7.org/fhir">
                     <meta>
                        <profile value="http://fhir.abda.de/eRezeptAbgabedaten/StructureDefinition/DAV-PKV-PR-ERP-Apotheke|1.1"/>
                     </meta>
                     <identifier>
                        <system value="http://fhir.de/sid/arge-ik/iknr"/>
                        <value value="026273906"/>
                     </identifier>
                     <name value="Apotheke Noah Lott"/>
                     <address>
                        <type value="physical"/>
                        <line value="Am Ehrenfriedhof 46a">
                           <extension url="http://hl7.org/fhir/StructureDefinition/iso21090-ADXP-houseNumber">
                              <valueString value="46a"/>
                           </extension>
                           <extension url="http://hl7.org/fhir/StructureDefinition/iso21090-ADXP-streetName">
                              <valueString value="Am Ehrenfriedhof"/>
                           </extension>
                        </line>
                        <city value="Süd Jeremias"/>
                        <postalCode value="03297"/>
                        <country value="D"/>
                     </address>
                  </Organization>
               </resource>
            </entry>
            <entry>
               <fullUrl value="urn:uuid:272844bf-ac15-4644-ba20-537a4dabec77"/>
               <resource>
                  <Invoice xmlns="http://hl7.org/fhir">
                     <meta>
                        <profile value="http://fhir.abda.de/eRezeptAbgabedaten/StructureDefinition/DAV-PKV-PR-ERP-Abrechnungszeilen|1.1"/>
                     </meta>
                     <status value="issued"/>
                     <type>
                        <coding>
                           <system value="http://fhir.abda.de/eRezeptAbgabedaten/CodeSystem/DAV-CS-ERP-InvoiceTyp"/>
                           <code value="Abrechnungszeilen"/>
                        </coding>
                     </type>
                     <lineItem>
                        <sequence value="1"/>
                        <chargeItemCodeableConcept>
                           <coding>
                              <system value="http://fhir.de/CodeSystem/ifa/pzn"/>
                              <code value="13116825"/>
                           </coding>
                        </chargeItemCodeableConcept>
                        <priceComponent>
                           <extension url="http://fhir.abda.de/eRezeptAbgabedaten/StructureDefinition/DAV-EX-ERP-KostenVersicherter">
                              <extension url="Kategorie">
                                 <valueCodeableConcept>
                                    <coding>
                                       <system value="http://fhir.abda.de/eRezeptAbgabedaten/CodeSystem/DAV-PKV-CS-ERP-KostenVersicherterKategorie"/>
                                       <code value="0"/>
                                    </coding>
                                 </valueCodeableConcept>
                              </extension>
                              <extension url="Kostenbetrag">
                                 <valueMoney>
                                    <value value="24.74"/>
                                    <currency value="EUR"/>
                                 </valueMoney>
                              </extension>
                           </extension>
                           <extension url="http://fhir.abda.de/eRezeptAbgabedaten/StructureDefinition/DAV-EX-ERP-MwStSatz">
                              <valueDecimal value="28.20"/>
                           </extension>
                           <type value="informational"/>
                           <factor value="1"/>
                           <amount>
                              <value value="53.16"/>
                              <currency value="EUR"/>
                           </amount>
                        </priceComponent>
                     </lineItem>
                     <lineItem>
                        <sequence value="2"/>
                        <chargeItemCodeableConcept>
                           <coding>
                              <system value="http://fhir.de/CodeSystem/ifa/pzn"/>
                              <code value="71550159"/>
                           </coding>
                        </chargeItemCodeableConcept>
                        <priceComponent>
                           <extension url="http://fhir.abda.de/eRezeptAbgabedaten/StructureDefinition/DAV-EX-ERP-KostenVersicherter">
                              <extension url="Kategorie">
                                 <valueCodeableConcept>
                                    <coding>
                                       <system value="http://fhir.abda.de/eRezeptAbgabedaten/CodeSystem/DAV-PKV-CS-ERP-KostenVersicherterKategorie"/>
                                       <code value="0"/>
                                    </coding>
                                 </valueCodeableConcept>
                              </extension>
                              <extension url="Kostenbetrag">
                                 <valueMoney>
                                    <value value="65.92"/>
                                    <currency value="EUR"/>
                                 </valueMoney>
                              </extension>
                           </extension>
                           <extension url="http://fhir.abda.de/eRezeptAbgabedaten/StructureDefinition/DAV-EX-ERP-MwStSatz">
                              <valueDecimal value="28.20"/>
                           </extension>
                           <type value="informational"/>
                           <factor value="1"/>
                           <amount>
                              <value value="158.10"/>
                              <currency value="EUR"/>
                           </amount>
                        </priceComponent>
                     </lineItem>
                     <lineItem>
                        <sequence value="3"/>
                        <chargeItemCodeableConcept>
                           <coding>
                              <system value="http://fhir.de/CodeSystem/ifa/pzn"/>
                              <code value="10523049"/>
                           </coding>
                        </chargeItemCodeableConcept>
                        <priceComponent>
                           <extension url="http://fhir.abda.de/eRezeptAbgabedaten/StructureDefinition/DAV-EX-ERP-KostenVersicherter">
                              <extension url="Kategorie">
                                 <valueCodeableConcept>
                                    <coding>
                                       <system value="http://fhir.abda.de/eRezeptAbgabedaten/CodeSystem/DAV-PKV-CS-ERP-KostenVersicherterKategorie"/>
                                       <code value="0"/>
                                    </coding>
                                 </valueCodeableConcept>
                              </extension>
                              <extension url="Kostenbetrag">
                                 <valueMoney>
                                    <value value="20.90"/>
                                    <currency value="EUR"/>
                                 </valueMoney>
                              </extension>
                           </extension>
                           <extension url="http://fhir.abda.de/eRezeptAbgabedaten/StructureDefinition/DAV-EX-ERP-MwStSatz">
                              <valueDecimal value="28.20"/>
                           </extension>
                           <type value="informational"/>
                           <factor value="1"/>
                           <amount>
                              <value value="68.86"/>
                              <currency value="EUR"/>
                           </amount>
                        </priceComponent>
                     </lineItem>
                     <lineItem>
                        <sequence value="4"/>
                        <chargeItemCodeableConcept>
                           <coding>
                              <system value="http://fhir.de/CodeSystem/ifa/pzn"/>
                              <code value="29280513"/>
                           </coding>
                        </chargeItemCodeableConcept>
                        <priceComponent>
                           <extension url="http://fhir.abda.de/eRezeptAbgabedaten/StructureDefinition/DAV-EX-ERP-KostenVersicherter">
                              <extension url="Kategorie">
                                 <valueCodeableConcept>
                                    <coding>
                                       <system value="http://fhir.abda.de/eRezeptAbgabedaten/CodeSystem/DAV-PKV-CS-ERP-KostenVersicherterKategorie"/>
                                       <code value="0"/>
                                    </coding>
                                 </valueCodeableConcept>
                              </extension>
                              <extension url="Kostenbetrag">
                                 <valueMoney>
                                    <value value="5.55"/>
                                    <currency value="EUR"/>
                                 </valueMoney>
                              </extension>
                           </extension>
                           <extension url="http://fhir.abda.de/eRezeptAbgabedaten/StructureDefinition/DAV-EX-ERP-MwStSatz">
                              <valueDecimal value="28.20"/>
                           </extension>
                           <type value="informational"/>
                           <factor value="1"/>
                           <amount>
                              <value value="7.85"/>
                              <currency value="EUR"/>
                           </amount>
                        </priceComponent>
                     </lineItem>
                     <totalGross>
                        <extension url="http://fhir.abda.de/eRezeptAbgabedaten/StructureDefinition/DAV-EX-ERP-Gesamtzuzahlung">
                           <valueMoney>
                              <value value="117.11"/>
                              <currency value="EUR"/>
                           </valueMoney>
                        </extension>
                        <value value="287.97"/>
                        <currency value="EUR"/>
                     </totalGross>
                  </Invoice>
               </resource>
            </entry>
            <entry>
               <fullUrl value="urn:uuid:145a0144-cb61-43ca-a8fb-b795b1eadc22"/>
               <resource>
                  <MedicationDispense xmlns="http://hl7.org/fhir">
                     <meta>
                        <profile value="http://fhir.abda.de/eRezeptAbgabedaten/StructureDefinition/DAV-PKV-PR-ERP-Abgabeinformationen|1.1"/>
                     </meta>
                     <extension url="http://fhir.abda.de/eRezeptAbgabedaten/StructureDefinition/DAV-PKV-EX-ERP-AbrechnungsTyp">
                        <valueCodeableConcept>
                           <coding>
                              <system value="http://fhir.abda.de/eRezeptAbgabedaten/CodeSystem/DAV-PKV-CS-ERP-AbrechnungsTyp"/>
                              <code value="1"/>
                           </coding>
                        </valueCodeableConcept>
                     </extension>
                     <extension url="http://fhir.abda.de/eRezeptAbgabedaten/StructureDefinition/DAV-EX-ERP-Abrechnungszeilen">
                        <valueReference>
                           <reference value="urn:uuid:272844bf-ac15-4644-ba20-537a4dabec77"/>
                        </valueReference>
                     </extension>
                     <status value="completed"/>
                     <medicationCodeableConcept>
                        <coding>
                           <system value="http://terminology.hl7.org/CodeSystem/data-absent-reason"/>
                           <code value="not-applicable"/>
                        </coding>
                     </medicationCodeableConcept>
                     <performer>
                        <actor>
                           <reference value="urn:uuid:a60d73af-3be8-46ef-bf56-c3c3fd8bb203"/>
                        </actor>
                     </performer>
                     <authorizingPrescription>
                        <identifier>
                           <system value="https://gematik.de/fhir/erp/NamingSystem/GEM_ERP_NS_PrescriptionId"/>
                           <value value="200.000.001.943.788.56"/>
                        </identifier>
                     </authorizingPrescription>
                     <type>
                        <coding>
                           <system value="http://fhir.abda.de/eRezeptAbgabedaten/CodeSystem/DAV-CS-ERP-MedicationDispenseTyp"/>
                           <code value="Abgabeinformationen"/>
                        </coding>
                     </type>
                     <whenHandedOver value="2023-04-18"/>
                  </MedicationDispense>
               </resource>
            </entry>
            <signature>
               <type>
                  <system value="urn:iso-astm:E1762-95:2013"/>
                  <code value="1.2.840.10065.1.12.1.1"/>
               </type>
               <when value="2023-04-18T06:46:22.000+00:00"/>
               <who>
                  <display value="Apotheke"/>
               </who>
               <sigFormat value="application/pkcs7-mime"/>
               <data value=""/>
            </signature>
         </Bundle>
      </resource>
   </entry>
</Bundle>