{
  "resourceType": "Bundle",
  "id": "ad80703d-8c62-44a3-b12b-2ea66eda0aa2",
  "meta": {
    "profile": [
      "http://fhir.abda.de/eRezeptAbgabedaten/StructureDefinition/DAV-PKV-PR-ERP-AbgabedatenBundle|1.2"
    ],
    "tag": [
      {
        "display": "Beispiel RezeptAbgabedatenPKV Bundle (FAM)"
      },
      {
        "display": "ACHTUNG! Der fachlich korrekte Inhalt der Beispielinstanz kann nicht gewährleistet werden. Wir sind jederzeit dankbar für Hinweise auf Fehler oder für Verbesserungsvorschläge."
      }
    ]
  },
  "type": "document",
  "identifier": {
    "system": "https://gematik.de/fhir/erp/NamingSystem/GEM_ERP_NS_PrescriptionId",
    "value": "200.100.000.000.081.90"
  },
  "timestamp": "2023-07-24T11:30:00Z",
  "entry": [
    {
      "resource": {
        "resourceType": "Composition",
        "id": "72183b44-61cf-4fe7-8f74-1e37d58fcea8",
        "meta": {
          "profile": [
            "http://fhir.abda.de/eRezeptAbgabedaten/StructureDefinition/DAV-PKV-PR-ERP-AbgabedatenComposition|1.2"
          ]
        },
        "status": "final",
        "type": {
          "coding": [
            {
              "system": "http://fhir.abda.de/eRezeptAbgabedaten/CodeSystem/DAV-CS-ERP-CompositionTypes",
              "code": "ERezeptAbgabedaten"
            }
          ]
        },
        "title": "ERezeptAbgabedaten",
        "section": [
          {
            "title": "Abgabeinformationen",
            "entry": [
              {
                "reference": "urn:uuid:335784b4-3f89-47cc-b32f-bc386a212e11"
              }
            ]
          },
          {
            "title": "Apotheke",
            "entry": [
              {
                "reference": "urn:uuid:5dc67a4f-c936-4c26-a7c0-967673a70740"
              }
            ]
          }
        ],
        "date": "2023-07-24T11:30:00Z",
        "author": [
          {
            "reference": "urn:uuid:5dc67a4f-c936-4c26-a7c0-967673a70740"
          }
        ]
      },
      "fullUrl": "urn:uuid:72183b44-61cf-4fe7-8f74-1e37d58fcea8"
    },
    {
      "resource": {
        "resourceType": "Organization",
        "id": "5dc67a4f-c936-4c26-a7c0-967673a70740",
        "meta": {
          "profile": [
            "http://fhir.abda.de/eRezeptAbgabedaten/StructureDefinition/DAV-PKV-PR-ERP-Apotheke|1.2"
          ]
        },
        "identifier": [
          {
            "system": "http://fhir.de/sid/arge-ik/iknr",
            "value": "308412345"
          }
        ],
        "address": [
          {
            "type": "physical",
            "line": [
              "Taunusstraße 89"
            ],
            "_line": [
              {
                "extension": [
                  {
                    "url": "http://hl7.org/fhir/StructureDefinition/iso21090-ADXP-streetName",
                    "valueString": "Taunusstraße"
                  },
                  {
                    "url": "http://hl7.org/fhir/StructureDefinition/iso21090-ADXP-houseNumber",
                    "valueString": "89"
                  }
                ]
              }
            ],
            "city": "Langen",
            "postalCode": "63225",
            "country": "D"
          }
        ],
        "name": "Adler-Apotheke"
      },
      "fullUrl": "urn:uuid:5dc67a4f-c936-4c26-a7c0-967673a70740"
    },
    {
      "resource": {
        "resourceType": "MedicationDispense",
        "id": "335784b4-3f89-47cc-b32f-bc386a212e11",
        "meta": {
          "profile": [
            "http://fhir.abda.de/eRezeptAbgabedaten/StructureDefinition/DAV-PKV-PR-ERP-Abgabeinformationen|1.2"
          ]
        },
        "status": "completed",
        "medicationCodeableConcept": {
          "coding": [
            {
              "system": "http://terminology.hl7.org/CodeSystem/data-absent-reason",
              "code": "not-applicable"
            }
          ]
        },
        "type": {
          "coding": [
            {
              "system": "http://fhir.abda.de/eRezeptAbgabedaten/CodeSystem/DAV-CS-ERP-MedicationDispenseTyp",
              "code": "Abgabeinformationen"
            }
          ]
        },
        "extension": [
          {
            "url": "http://fhir.abda.de/eRezeptAbgabedaten/StructureDefinition/DAV-EX-ERP-Abrechnungszeilen",
            "valueReference": {
              "reference": "urn:uuid:cfd49ec7-fd9c-4ab3-865f-f0aaf010ca19"
            }
          },
          {
            "url": "http://fhir.abda.de/eRezeptAbgabedaten/StructureDefinition/DAV-PKV-EX-ERP-AbrechnungsTyp",
            "valueCodeableConcept": {
              "coding": [
                {
                  "code": "1",
                  "system": "http://fhir.abda.de/eRezeptAbgabedaten/CodeSystem/DAV-PKV-CS-ERP-AbrechnungsTyp"
                }
              ]
            }
          }
        ],
        "authorizingPrescription": [
          {
            "identifier": {
              "system": "https://gematik.de/fhir/erp/NamingSystem/GEM_ERP_NS_PrescriptionId",
              "value": "200.100.000.000.081.90"
            }
          }
        ],
        "performer": [
          {
            "actor": {
              "reference": "urn:uuid:5dc67a4f-c936-4c26-a7c0-967673a70740"
            }
          }
        ],
        "whenHandedOver": "2023-07-24"
      },
      "fullUrl": "urn:uuid:335784b4-3f89-47cc-b32f-bc386a212e11"
    },
    {
      "resource": {
        "resourceType": "Invoice",
        "id": "cfd49ec7-fd9c-4ab3-865f-f0aaf010ca19",
        "meta": {
          "profile": [
            "http://fhir.abda.de/eRezeptAbgabedaten/StructureDefinition/DAV-PKV-PR-ERP-Abrechnungszeilen|1.2"
          ]
        },
        "status": "issued",
        "type": {
          "coding": [
            {
              "system": "http://fhir.abda.de/eRezeptAbgabedaten/CodeSystem/DAV-CS-ERP-InvoiceTyp",
              "code": "Abrechnungszeilen"
            }
          ]
        },
        "lineItem": [
          {
            "priceComponent": [
              {
                "type": "informational",
                "extension": [
                  {
                    "url": "http://fhir.abda.de/eRezeptAbgabedaten/StructureDefinition/DAV-EX-ERP-MwStSatz",
                    "valueDecimal": 19.00
                  },
                  {
                    "url": "http://fhir.abda.de/eRezeptAbgabedaten/StructureDefinition/DAV-EX-ERP-KostenVersicherter",
                    "extension": [
                      {
                        "url": "Kategorie",
                        "valueCodeableConcept": {
                          "coding": [
                            {
                              "code": "0",
                              "system": "http://fhir.abda.de/eRezeptAbgabedaten/CodeSystem/DAV-PKV-CS-ERP-KostenVersicherterKategorie"
                            }
                          ]
                        }
                      },
                      {
                        "url": "Kostenbetrag",
                        "valueMoney": {
                          "currency": "EUR",
                          "value": 0.00
                        }
                      }
                    ]
                  }
                ],
                "amount": {
                  "currency": "EUR",
                  "value": 30.33
                },
                "factor": 1
              }
            ],
            "sequence": 1,
            "chargeItemCodeableConcept": {
              "coding": [
                {
                  "code": "06313728",
                  "system": "http://fhir.de/CodeSystem/ifa/pzn"
                }
              ],
              "text": "Sumatriptan 1A Pharma 100 mg Tabletten, 12 St"
            }
          }
        ],
        "totalGross": {
          "currency": "EUR",
          "extension": [
            {
              "url": "http://fhir.abda.de/eRezeptAbgabedaten/StructureDefinition/DAV-EX-ERP-Gesamtzuzahlung",
              "valueMoney": {
                "currency": "EUR",
                "value": 0.00
              }
            }
          ],
          "value": 30.33
        }
      },
      "fullUrl": "urn:uuid:cfd49ec7-fd9c-4ab3-865f-f0aaf010ca19"
    }
  ]
}
