<Bundle xmlns="http://hl7.org/fhir"><id value="ad1bbc37-69a5-4bfe-92ef-88bbb5d808c4"/><meta><lastUpdated value="2023-04-21T09:35:20.886+02:00"/><profile value="https://fhir.kbv.de/StructureDefinition/KBV_PR_ERP_Bundle|1.0.2"/></meta><identifier><system value="https://gematik.de/fhir/NamingSystem/PrescriptionID"/><value value="200.000.000.015.301.49"/></identifier><type value="document"/><timestamp value="2023-04-21T09:35:20.886+02:00"/><entry><fullUrl value="https://pvs.gematik.de/fhir/Composition/d151f1ce-870f-44eb-b383-b683bf5a997e"/><resource><Composition xmlns="http://hl7.org/fhir"><id value="d151f1ce-870f-44eb-b383-b683bf5a997e"/><meta><profile value="https://fhir.kbv.de/StructureDefinition/KBV_PR_ERP_Composition|1.0.2"/></meta><extension url="https://fhir.kbv.de/StructureDefinition/KBV_EX_FOR_PKV_Tariff"><valueCoding><system value="https://fhir.kbv.de/CodeSystem/KBV_CS_SFHIR_KBV_PKV_TARIFF"/><code value="03"/></valueCoding></extension><extension url="https://fhir.kbv.de/StructureDefinition/KBV_EX_FOR_Legal_basis"><valueCoding><system value="https://fhir.kbv.de/CodeSystem/KBV_CS_SFHIR_KBV_STATUSKENNZEICHEN"/><code value="00"/></valueCoding></extension><status value="final"/><type><coding><system value="https://fhir.kbv.de/CodeSystem/KBV_CS_SFHIR_KBV_FORMULAR_ART"/><code value="e16A"/></coding></type><subject><reference value="Patient/934307da-6c2a-4a72-8d8e-a38d7a8fa047"/></subject><date value="2023-04-21T09:35:20+02:00"/><author><reference value="Practitioner/64814cf5-c264-4bad-8c9b-c59b2ecbf3b8"/><type value="Practitioner"/></author><author><type value="Device"/><identifier><system value="https://fhir.kbv.de/NamingSystem/KBV_NS_FOR_Pruefnummer"/><value value="GEMATIK/410/2109/36/123"/></identifier></author><title value="elektronische Arzneimittelverordnung"/><custodian><reference value="Organization/9fef5666-0384-45b8-8395-caf11faf1838"/></custodian><section><code><coding><system value="https://fhir.kbv.de/CodeSystem/KBV_CS_ERP_Section_Type"/><code value="Coverage"/></coding></code><entry><reference value="Coverage/62015d83-31d1-42f4-aa40-24c5a39918ed"/></entry></section><section><code><coding><system value="https://fhir.kbv.de/CodeSystem/KBV_CS_ERP_Section_Type"/><code value="Prescription"/></coding></code><entry><reference value="MedicationRequest/0dd2a045-e9d0-41d1-a633-5f9930d1591a"/></entry></section></Composition></resource></entry><entry><fullUrl value="https://pvs.gematik.de/fhir/MedicationRequest/0dd2a045-e9d0-41d1-a633-5f9930d1591a"/><resource><MedicationRequest xmlns="http://hl7.org/fhir"><id value="0dd2a045-e9d0-41d1-a633-5f9930d1591a"/><meta><profile value="https://fhir.kbv.de/StructureDefinition/KBV_PR_ERP_Prescription|1.0.2"/></meta><extension url="https://fhir.kbv.de/StructureDefinition/KBV_EX_ERP_BVG"><valueBoolean value="false"/></extension><extension url="https://fhir.kbv.de/StructureDefinition/KBV_EX_ERP_EmergencyServicesFee"><valueBoolean value="false"/></extension><extension url="https://fhir.kbv.de/StructureDefinition/KBV_EX_ERP_Multiple_Prescription"><extension url="Kennzeichen"><valueBoolean value="true"/></extension><extension url="Nummerierung"><valueRatio><numerator><value value="4"/></numerator><denominator><value value="4"/></denominator></valueRatio></extension><extension url="Zeitraum"><valuePeriod><start value="2024-01-16"/><end value="2024-04-15"/></valuePeriod></extension></extension><extension url="https://fhir.kbv.de/StructureDefinition/KBV_EX_ERP_StatusCoPayment"><valueCoding><system value="https://fhir.kbv.de/CodeSystem/KBV_CS_ERP_StatusCoPayment"/><code value="0"/></valueCoding></extension><status value="active"/><intent value="order"/><medicationReference><reference value="Medication/d6b1a7b1-3440-41f0-b786-cdeb662bf922"/></medicationReference><subject><reference value="Patient/934307da-6c2a-4a72-8d8e-a38d7a8fa047"/></subject><authoredOn value="2023-04-21"/><requester><reference value="Practitioner/64814cf5-c264-4bad-8c9b-c59b2ecbf3b8"/></requester><insurance><reference value="Coverage/62015d83-31d1-42f4-aa40-24c5a39918ed"/></insurance><dosageInstruction><extension url="https://fhir.kbv.de/StructureDefinition/KBV_EX_ERP_DosageFlag"><valueBoolean value="true"/></extension><text value="1-0-0-0"/></dosageInstruction><dispenseRequest><quantity><value value="1"/><system value="http://unitsofmeasure.org"/><code value="{Package}"/></quantity></dispenseRequest><substitution><allowedBoolean value="true"/></substitution></MedicationRequest></resource></entry><entry><fullUrl value="https://pvs.gematik.de/fhir/Medication/d6b1a7b1-3440-41f0-b786-cdeb662bf922"/><resource><Medication xmlns="http://hl7.org/fhir"><id value="d6b1a7b1-3440-41f0-b786-cdeb662bf922"/><meta><profile value="https://fhir.kbv.de/StructureDefinition/KBV_PR_ERP_Medication_PZN|1.0.2"/></meta><extension url="https://fhir.kbv.de/StructureDefinition/KBV_EX_ERP_Medication_Category"><valueCoding><system value="https://fhir.kbv.de/CodeSystem/KBV_CS_ERP_Medication_Category"/><code value="00"/></valueCoding></extension><extension url="https://fhir.kbv.de/StructureDefinition/KBV_EX_ERP_Medication_Vaccine"><valueBoolean value="false"/></extension><extension url="http://fhir.de/StructureDefinition/normgroesse"><valueCode value="NB"/></extension><code><coding><system value="http://fhir.de/CodeSystem/ifa/pzn"/><code value="16909034"/></coding><text value="Elagamixalon"/></code><form><coding><system value="https://fhir.kbv.de/CodeSystem/KBV_CS_SFHIR_KBV_DARREICHUNGSFORM"/><code value="TAB"/></coding></form><amount><numerator><value value="1"/><unit value="Stk"/></numerator><denominator><value value="1"/></denominator></amount></Medication></resource></entry><entry><fullUrl value="https://pvs.gematik.de/fhir/Patient/934307da-6c2a-4a72-8d8e-a38d7a8fa047"/><resource><Patient xmlns="http://hl7.org/fhir"><id value="934307da-6c2a-4a72-8d8e-a38d7a8fa047"/><meta><profile value="https://fhir.kbv.de/StructureDefinition/KBV_PR_FOR_Patient|1.0.3"/></meta><identifier><type><coding><system value="http://fhir.de/CodeSystem/identifier-type-de-basis"/><code value="PKV"/></coding></type><system value="http://www.acme.com/identifiers/patient"/><value value="X110465770"/><assigner><reference value="Organization/e469d390-de96-4b40-8103-30bc3219b4d8"/><display value="KVED Krankenversicherungs-AG Berlin"/></assigner></identifier><name><use value="official"/><family value="Angermänn"/><given value="Günther"/></name><birthDate value="1994-03-18"/><address><type value="both"/><line value="Mohlenstr. 3"><extension url="http://hl7.org/fhir/StructureDefinition/iso21090-ADXP-houseNumber"><valueString value="3"/></extension><extension url="http://hl7.org/fhir/StructureDefinition/iso21090-ADXP-streetName"><valueString value="Mohlenstr."/></extension></line><city value="Beerberg"/><postalCode value="33713"/><country value="D"/></address></Patient></resource></entry><entry><fullUrl value="https://pvs.gematik.de/fhir/Organization/9fef5666-0384-45b8-8395-caf11faf1838"/><resource><Organization xmlns="http://hl7.org/fhir"><id value="9fef5666-0384-45b8-8395-caf11faf1838"/><meta><profile value="https://fhir.kbv.de/StructureDefinition/KBV_PR_FOR_Organization|1.0.3"/></meta><identifier><type><coding><system value="http://terminology.hl7.org/CodeSystem/v2-0203"/><code value="BSNR"/></coding></type><system value="https://fhir.kbv.de/NamingSystem/KBV_NS_Base_BSNR"/><value value="207191945"/></identifier><name value="Arztpraxis Schraßer"/><telecom><system value="phone"/><value value="+49-109-3703058"/></telecom><telecom><system value="email"/><value value="fabrice.thimm@roth.com"/></telecom><address><type value="both"/><line value="Franz-Marc-Str. 09a"><extension url="http://hl7.org/fhir/StructureDefinition/iso21090-ADXP-houseNumber"><valueString value="09a"/></extension><extension url="http://hl7.org/fhir/StructureDefinition/iso21090-ADXP-streetName"><valueString value="Franz-Marc-Str."/></extension></line><city value="Neu Mika"/><postalCode value="42896"/><country value="D"/></address></Organization></resource></entry><entry><fullUrl value="https://pvs.gematik.de/fhir/Coverage/62015d83-31d1-42f4-aa40-24c5a39918ed"/><resource><Coverage xmlns="http://hl7.org/fhir"><id value="62015d83-31d1-42f4-aa40-24c5a39918ed"/><meta><profile value="https://fhir.kbv.de/StructureDefinition/KBV_PR_FOR_Coverage|1.0.3"/></meta><extension url="http://fhir.de/StructureDefinition/gkv/besondere-personengruppe"><valueCoding><system value="https://fhir.kbv.de/CodeSystem/KBV_CS_SFHIR_KBV_PERSONENGRUPPE"/><code value="00"/></valueCoding></extension><extension url="http://fhir.de/StructureDefinition/gkv/dmp-kennzeichen"><valueCoding><system value="https://fhir.kbv.de/CodeSystem/KBV_CS_SFHIR_KBV_DMP"/><code value="00"/></valueCoding></extension><extension url="http://fhir.de/StructureDefinition/gkv/wop"><valueCoding><system value="https://fhir.kbv.de/CodeSystem/KBV_CS_SFHIR_ITA_WOP"/><code value="38"/></valueCoding></extension><extension url="http://fhir.de/StructureDefinition/gkv/versichertenart"><valueCoding><system value="https://fhir.kbv.de/CodeSystem/KBV_CS_SFHIR_KBV_VERSICHERTENSTATUS"/><code value="1"/></valueCoding></extension><status value="active"/><type><coding><system value="http://fhir.de/CodeSystem/versicherungsart-de-basis"/><code value="PKV"/></coding></type><beneficiary><reference value="Patient/762f6cdc-c2fd-4257-ae38-e05ec906174c"/></beneficiary><payor><identifier><system value="http://fhir.de/NamingSystem/arge-ik/iknr"/><value value="039005362"/></identifier><display value="KOA Hamburg"/></payor></Coverage></resource></entry><entry><fullUrl value="https://pvs.gematik.de/fhir/Practitioner/64814cf5-c264-4bad-8c9b-c59b2ecbf3b8"/><resource><Practitioner xmlns="http://hl7.org/fhir"><id value="64814cf5-c264-4bad-8c9b-c59b2ecbf3b8"/><meta><profile value="https://fhir.kbv.de/StructureDefinition/KBV_PR_FOR_Practitioner|1.0.3"/></meta><identifier><type><coding><system value="http://terminology.hl7.org/CodeSystem/v2-0203"/><code value="LANR"/></coding></type><system value="https://fhir.kbv.de/NamingSystem/KBV_NS_Base_ANR"/><value value="056877803"/></identifier><name><use value="official"/><family value="Schraßer"/><given value="Dr."/><prefix value="Dr."><extension url="http://hl7.org/fhir/StructureDefinition/iso21090-EN-qualifier"><valueCode value="AC"/></extension></prefix></name><qualification><code><coding><system value="https://fhir.kbv.de/CodeSystem/KBV_CS_FOR_Qualification_Type"/><code value="00"/></coding></code></qualification><qualification><code><text value="Super-Facharzt für alles Mögliche"/></code></qualification></Practitioner></resource></entry><entry><fullUrl value="https://pvs.gematik.de/fhir/Organization/e469d390-de96-4b40-8103-30bc3219b4d8"/><resource><Organization xmlns="http://hl7.org/fhir"><id value="e469d390-de96-4b40-8103-30bc3219b4d8"/><meta><profile value="https://fhir.kbv.de/StructureDefinition/KBV_PR_FOR_Organization|1.0.3"/></meta><identifier><type><coding><system value="http://terminology.hl7.org/CodeSystem/v2-0203"/><code value="XX"/></coding></type><system value="http://fhir.de/NamingSystem/arge-ik/iknr"/><value value="293035323"/></identifier><name value="KVED Krankenversicherungs-AG Berlin"/><telecom><system value="phone"/><value value="+49-890-7040795"/></telecom><address><type value="both"/><line value="Lingenfeld 8"><extension url="http://hl7.org/fhir/StructureDefinition/iso21090-ADXP-houseNumber"><valueString value="8"/></extension><extension url="http://hl7.org/fhir/StructureDefinition/iso21090-ADXP-streetName"><valueString value="Lingenfeld"/></extension></line><city value="Schön Jerome"/><postalCode value="24420"/><country value="D"/></address></Organization></resource></entry></Bundle>