<Bundle xmlns="http://hl7.org/fhir"><id value="8d99b6fa-fb6f-48f1-9ad0-dde2d982e7dd"/><meta><lastUpdated value="2023-03-16T12:52:46.699+01:00"/><profile value="https://fhir.kbv.de/StructureDefinition/KBV_PR_ERP_Bundle|1.0.2"/></meta><identifier><system value="https://gematik.de/fhir/NamingSystem/PrescriptionID"/><value value="200.000.000.011.933.65"/></identifier><type value="document"/><timestamp value="2023-03-16T12:52:46.699+01:00"/><entry><fullUrl value="https://pvs.gematik.de/fhir/Composition/9f1c222a-1f30-4736-befc-04e66e93e11e"/><resource><Composition xmlns="http://hl7.org/fhir"><id value="9f1c222a-1f30-4736-befc-04e66e93e11e"/><meta><profile value="https://fhir.kbv.de/StructureDefinition/KBV_PR_ERP_Composition|1.0.2"/></meta><extension url="https://fhir.kbv.de/StructureDefinition/KBV_EX_FOR_PKV_Tariff"><valueCoding><system value="https://fhir.kbv.de/CodeSystem/KBV_CS_SFHIR_KBV_PKV_TARIFF"/><code value="03"/></valueCoding></extension><extension url="https://fhir.kbv.de/StructureDefinition/KBV_EX_FOR_Legal_basis"><valueCoding><system value="https://fhir.kbv.de/CodeSystem/KBV_CS_SFHIR_KBV_STATUSKENNZEICHEN"/><code value="00"/></valueCoding></extension><status value="final"/><type><coding><system value="https://fhir.kbv.de/CodeSystem/KBV_CS_SFHIR_KBV_FORMULAR_ART"/><code value="e16A"/></coding></type><subject><reference value="Patient/4c5d0cd4-d79e-42ad-9b9e-3c7d00ffa94a"/></subject><date value="2023-03-16T12:52:46+01:00"/><author><reference value="Practitioner/5e69d3f5-e87e-47e6-9188-ec72fb11de31"/><type value="Practitioner"/></author><author><type value="Device"/><identifier><system value="https://fhir.kbv.de/NamingSystem/KBV_NS_FOR_Pruefnummer"/><value value="GEMATIK/410/2109/36/123"/></identifier></author><title value="elektronische Arzneimittelverordnung"/><custodian><reference value="Organization/6b53c2c8-cb1e-4b46-a661-faee4aeb7481"/></custodian><section><code><coding><system value="https://fhir.kbv.de/CodeSystem/KBV_CS_ERP_Section_Type"/><code value="Coverage"/></coding></code><entry><reference value="Coverage/15d51a93-ca37-4b0f-8533-495e64079094"/></entry></section><section><code><coding><system value="https://fhir.kbv.de/CodeSystem/KBV_CS_ERP_Section_Type"/><code value="Prescription"/></coding></code><entry><reference value="MedicationRequest/ae8f4075-b577-412e-ab43-f53f9f91467e"/></entry></section></Composition></resource></entry><entry><fullUrl value="https://pvs.gematik.de/fhir/MedicationRequest/ae8f4075-b577-412e-ab43-f53f9f91467e"/><resource><MedicationRequest xmlns="http://hl7.org/fhir"><id value="ae8f4075-b577-412e-ab43-f53f9f91467e"/><meta><profile value="https://fhir.kbv.de/StructureDefinition/KBV_PR_ERP_Prescription|1.0.2"/></meta><extension url="https://fhir.kbv.de/StructureDefinition/KBV_EX_ERP_BVG"><valueBoolean value="false"/></extension><extension url="https://fhir.kbv.de/StructureDefinition/KBV_EX_ERP_EmergencyServicesFee"><valueBoolean value="false"/></extension><extension url="https://fhir.kbv.de/StructureDefinition/KBV_EX_ERP_Multiple_Prescription"><extension url="Kennzeichen"><valueBoolean value="true"/></extension><extension url="Nummerierung"><valueRatio><numerator><value value="4"/></numerator><denominator><value value="4"/></denominator></valueRatio></extension><extension url="Zeitraum"><valuePeriod><start value="2023-12-11"/><end value="2024-03-10"/></valuePeriod></extension></extension><extension url="https://fhir.kbv.de/StructureDefinition/KBV_EX_ERP_StatusCoPayment"><valueCoding><system value="https://fhir.kbv.de/CodeSystem/KBV_CS_ERP_StatusCoPayment"/><code value="0"/></valueCoding></extension><status value="active"/><intent value="order"/><medicationReference><reference value="Medication/18dae995-996d-498a-8056-43011b723f8a"/></medicationReference><subject><reference value="Patient/4c5d0cd4-d79e-42ad-9b9e-3c7d00ffa94a"/></subject><authoredOn value="2023-03-16"/><requester><reference value="Practitioner/5e69d3f5-e87e-47e6-9188-ec72fb11de31"/></requester><insurance><reference value="Coverage/15d51a93-ca37-4b0f-8533-495e64079094"/></insurance><dosageInstruction><extension url="https://fhir.kbv.de/StructureDefinition/KBV_EX_ERP_DosageFlag"><valueBoolean value="true"/></extension><text value="1-0-0-0"/></dosageInstruction><dispenseRequest><quantity><value value="1"/><system value="http://unitsofmeasure.org"/><code value="{Package}"/></quantity></dispenseRequest><substitution><allowedBoolean value="true"/></substitution></MedicationRequest></resource></entry><entry><fullUrl value="https://pvs.gematik.de/fhir/Medication/18dae995-996d-498a-8056-43011b723f8a"/><resource><Medication xmlns="http://hl7.org/fhir"><id value="18dae995-996d-498a-8056-43011b723f8a"/><meta><profile value="https://fhir.kbv.de/StructureDefinition/KBV_PR_ERP_Medication_PZN|1.0.2"/></meta><extension url="https://fhir.kbv.de/StructureDefinition/KBV_EX_ERP_Medication_Category"><valueCoding><system value="https://fhir.kbv.de/CodeSystem/KBV_CS_ERP_Medication_Category"/><code value="00"/></valueCoding></extension><extension url="https://fhir.kbv.de/StructureDefinition/KBV_EX_ERP_Medication_Vaccine"><valueBoolean value="false"/></extension><extension url="http://fhir.de/StructureDefinition/normgroesse"><valueCode value="NB"/></extension><code><coding><system value="http://fhir.de/CodeSystem/ifa/pzn"/><code value="67690504"/></coding><text value="Dicabrarat"/></code><form><coding><system value="https://fhir.kbv.de/CodeSystem/KBV_CS_SFHIR_KBV_DARREICHUNGSFORM"/><code value="TAB"/></coding></form><amount><numerator><value value="1"/><unit value="Stk"/></numerator><denominator><value value="1"/></denominator></amount></Medication></resource></entry><entry><fullUrl value="https://pvs.gematik.de/fhir/Patient/4c5d0cd4-d79e-42ad-9b9e-3c7d00ffa94a"/><resource><Patient xmlns="http://hl7.org/fhir"><id value="4c5d0cd4-d79e-42ad-9b9e-3c7d00ffa94a"/><meta><profile value="https://fhir.kbv.de/StructureDefinition/KBV_PR_FOR_Patient|1.0.3"/></meta><identifier><type><coding><system value="http://fhir.de/CodeSystem/identifier-type-de-basis"/><code value="PKV"/></coding></type><system value="http://www.acme.com/identifiers/patient"/><value value="X110465770"/><assigner><reference value="Organization/eb6be6e5-ddc9-446a-b833-e405a0fce33a"/><display value="Künstler-Krankenkasse Westfalen-Lippe"/></assigner></identifier><name><use value="official"/><family value="Angermänn"/><given value="Günther"/></name><birthDate value="1975-09-05"/><address><type value="both"/><line value="Ackerweg 980"><extension url="http://hl7.org/fhir/StructureDefinition/iso21090-ADXP-houseNumber"><valueString value="980"/></extension><extension url="http://hl7.org/fhir/StructureDefinition/iso21090-ADXP-streetName"><valueString value="Ackerweg"/></extension></line><city value="Schön Ela"/><postalCode value="01243"/><country value="D"/></address></Patient></resource></entry><entry><fullUrl value="https://pvs.gematik.de/fhir/Organization/6b53c2c8-cb1e-4b46-a661-faee4aeb7481"/><resource><Organization xmlns="http://hl7.org/fhir"><id value="6b53c2c8-cb1e-4b46-a661-faee4aeb7481"/><meta><profile value="https://fhir.kbv.de/StructureDefinition/KBV_PR_FOR_Organization|1.0.3"/></meta><identifier><type><coding><system value="http://terminology.hl7.org/CodeSystem/v2-0203"/><code value="BSNR"/></coding></type><system value="https://fhir.kbv.de/NamingSystem/KBV_NS_Base_BSNR"/><value value="622341349"/></identifier><name value="Arztpraxis Schraßer"/><telecom><system value="phone"/><value value="(0097) 345483262"/></telecom><telecom><system value="email"/><value value="hagen.aryee@weiler.org"/></telecom><address><type value="both"/><line value="Königsberger Platz 8"><extension url="http://hl7.org/fhir/StructureDefinition/iso21090-ADXP-houseNumber"><valueString value="8"/></extension><extension url="http://hl7.org/fhir/StructureDefinition/iso21090-ADXP-streetName"><valueString value="Königsberger Platz"/></extension></line><city value="Nord Ashleygrün"/><postalCode value="76104"/><country value="D"/></address></Organization></resource></entry><entry><fullUrl value="https://pvs.gematik.de/fhir/Coverage/15d51a93-ca37-4b0f-8533-495e64079094"/><resource><Coverage xmlns="http://hl7.org/fhir"><id value="15d51a93-ca37-4b0f-8533-495e64079094"/><meta><profile value="https://fhir.kbv.de/StructureDefinition/KBV_PR_FOR_Coverage|1.0.3"/></meta><extension url="http://fhir.de/StructureDefinition/gkv/besondere-personengruppe"><valueCoding><system value="https://fhir.kbv.de/CodeSystem/KBV_CS_SFHIR_KBV_PERSONENGRUPPE"/><code value="00"/></valueCoding></extension><extension url="http://fhir.de/StructureDefinition/gkv/dmp-kennzeichen"><valueCoding><system value="https://fhir.kbv.de/CodeSystem/KBV_CS_SFHIR_KBV_DMP"/><code value="00"/></valueCoding></extension><extension url="http://fhir.de/StructureDefinition/gkv/wop"><valueCoding><system value="https://fhir.kbv.de/CodeSystem/KBV_CS_SFHIR_ITA_WOP"/><code value="93"/></valueCoding></extension><extension url="http://fhir.de/StructureDefinition/gkv/versichertenart"><valueCoding><system value="https://fhir.kbv.de/CodeSystem/KBV_CS_SFHIR_KBV_VERSICHERTENSTATUS"/><code value="1"/></valueCoding></extension><status value="active"/><type><coding><system value="http://fhir.de/CodeSystem/versicherungsart-de-basis"/><code value="PKV"/></coding></type><beneficiary><reference value="Patient/e5338f78-1082-4f8d-a763-37aecab19a6a"/></beneficiary><payor><identifier><system value="http://fhir.de/NamingSystem/arge-ik/iknr"/><value value="322435071"/></identifier><display value="Künstler-Krankenkasse Rheinland-Pfalz"/></payor></Coverage></resource></entry><entry><fullUrl value="https://pvs.gematik.de/fhir/Practitioner/5e69d3f5-e87e-47e6-9188-ec72fb11de31"/><resource><Practitioner xmlns="http://hl7.org/fhir"><id value="5e69d3f5-e87e-47e6-9188-ec72fb11de31"/><meta><profile value="https://fhir.kbv.de/StructureDefinition/KBV_PR_FOR_Practitioner|1.0.3"/></meta><identifier><type><coding><system value="http://terminology.hl7.org/CodeSystem/v2-0203"/><code value="LANR"/></coding></type><system value="https://fhir.kbv.de/NamingSystem/KBV_NS_Base_ANR"/><value value="257417619"/></identifier><name><use value="official"/><family value="Schraßer"/><given value="Dr."/><prefix value="Dr."><extension url="http://hl7.org/fhir/StructureDefinition/iso21090-EN-qualifier"><valueCode value="AC"/></extension></prefix></name><qualification><code><coding><system value="https://fhir.kbv.de/CodeSystem/KBV_CS_FOR_Qualification_Type"/><code value="00"/></coding></code></qualification><qualification><code><text value="Super-Facharzt für alles Mögliche"/></code></qualification></Practitioner></resource></entry><entry><fullUrl value="https://pvs.gematik.de/fhir/Organization/eb6be6e5-ddc9-446a-b833-e405a0fce33a"/><resource><Organization xmlns="http://hl7.org/fhir"><id value="eb6be6e5-ddc9-446a-b833-e405a0fce33a"/><meta><profile value="https://fhir.kbv.de/StructureDefinition/KBV_PR_FOR_Organization|1.0.3"/></meta><identifier><type><coding><system value="http://terminology.hl7.org/CodeSystem/v2-0203"/><code value="XX"/></coding></type><system value="http://fhir.de/NamingSystem/arge-ik/iknr"/><value value="212590546"/></identifier><name value="Künstler-Krankenkasse Westfalen-Lippe"/><telecom><system value="phone"/><value value="+49-302-4090852"/></telecom><address><type value="both"/><line value="Peenestr. 187"><extension url="http://hl7.org/fhir/StructureDefinition/iso21090-ADXP-houseNumber"><valueString value="187"/></extension><extension url="http://hl7.org/fhir/StructureDefinition/iso21090-ADXP-streetName"><valueString value="Peenestr."/></extension></line><city value="Neu Josefinland"/><postalCode value="29486"/><country value="D"/></address></Organization></resource></entry></Bundle>