{
  "resourceType": "Bundle",
  "id": "9dd49aee-57a3-4f28-924b-e7beabb85f44",
  "type": "collection",
  "timestamp": "2023-03-16T11:52:48.665+00:00",
  "link": [
    {
      "relation": "self",
      "url": "https://erp-test.zentral.erp.splitdns.ti-dienste.de/Task/200.000.000.011.933.65"
    }
  ],
  "entry": [
    {
      "fullUrl": "https://erp-test.zentral.erp.splitdns.ti-dienste.de/Task/200.000.000.011.933.65",
      "resource": {
        "resourceType": "Task",
        "id": "200.000.000.011.933.65",
        "meta": {
          "profile": [
            "https://gematik.de/fhir/StructureDefinition/ErxTask|1.1.1"
          ]
        },
        "extension": [
          {
            "url": "https://gematik.de/fhir/StructureDefinition/PrescriptionType",
            "valueCoding": {
              "system": "https://gematik.de/fhir/CodeSystem/Flowtype",
              "code": "200",
              "display": "PKV (Apothekenpflichtige Arzneimittel)"
            }
          },
          {
            "url": "https://gematik.de/fhir/StructureDefinition/ExpiryDate",
            "valueDate": "2024-03-10"
          },
          {
            "url": "https://gematik.de/fhir/StructureDefinition/AcceptDate",
            "valueDate": "2024-03-10"
          }
        ],
        "identifier": [
          {
            "use": "official",
            "system": "https://gematik.de/fhir/NamingSystem/PrescriptionID",
            "value": "200.000.000.011.933.65"
          },
          {
            "use": "official",
            "system": "https://gematik.de/fhir/NamingSystem/AccessCode",
            "value": "718ba2acbdfb710c57c15319f0e64f06d58d13c827b6370066e68de970399d56"
          }
        ],
        "status": "ready",
        "intent": "order",
        "for": {
          "identifier": {
            "system": "http://fhir.de/NamingSystem/gkv/kvid-10",
            "value": "X110465770"
          }
        },
        "authoredOn": "2023-03-16T11:52:47.641+00:00",
        "lastModified": "2023-03-16T11:52:48.048+00:00",
        "performerType": [
          {
            "coding": [
              {
                "system": "urn:ietf:rfc:3986",
                "code": "urn:oid:1.2.276.0.76.4.54",
                "display": "Öffentliche Apotheke"
              }
            ],
            "text": "Öffentliche Apotheke"
          }
        ],
        "input": [
          {
            "type": {
              "coding": [
                {
                  "system": "https://gematik.de/fhir/CodeSystem/Documenttype",
                  "code": "2"
                }
              ]
            },
            "valueReference": {
              "reference": "c89d2e00-0000-0000-0002-000000000000"
            }
          }
        ]
      }
    },
    {
      "fullUrl": "urn:uuid:c89d2e00-0000-0000-0002-000000000000",
      "resource": {
        "resourceType": "Bundle",
        "meta": {
          "lastUpdated": "2023-03-16T12:52:46.699+01:00",
          "profile": [
            "https://fhir.kbv.de/StructureDefinition/KBV_PR_ERP_Bundle|1.0.2"
          ]
        },
        "identifier": {
          "system": "https://gematik.de/fhir/NamingSystem/PrescriptionID",
          "value": "200.000.000.011.933.65"
        },
        "type": "document",
        "timestamp": "2023-03-16T12:52:46.699+01:00",
        "entry": [
          {
            "fullUrl": "https://pvs.gematik.de/fhir/Composition/9f1c222a-1f30-4736-befc-04e66e93e11e",
            "resource": {
              "resourceType": "Composition",
              "id": "9f1c222a-1f30-4736-befc-04e66e93e11e",
              "meta": {
                "profile": [
                  "https://fhir.kbv.de/StructureDefinition/KBV_PR_ERP_Composition|1.0.2"
                ]
              },
              "extension": [
                {
                  "url": "https://fhir.kbv.de/StructureDefinition/KBV_EX_FOR_PKV_Tariff",
                  "valueCoding": {
                    "system": "https://fhir.kbv.de/CodeSystem/KBV_CS_SFHIR_KBV_PKV_TARIFF",
                    "code": "03"
                  }
                },
                {
                  "url": "https://fhir.kbv.de/StructureDefinition/KBV_EX_FOR_Legal_basis",
                  "valueCoding": {
                    "system": "https://fhir.kbv.de/CodeSystem/KBV_CS_SFHIR_KBV_STATUSKENNZEICHEN",
                    "code": "00"
                  }
                }
              ],
              "status": "final",
              "type": {
                "coding": [
                  {
                    "system": "https://fhir.kbv.de/CodeSystem/KBV_CS_SFHIR_KBV_FORMULAR_ART",
                    "code": "e16A"
                  }
                ]
              },
              "subject": {
                "reference": "Patient/4c5d0cd4-d79e-42ad-9b9e-3c7d00ffa94a"
              },
              "date": "2023-03-16T12:52:46+01:00",
              "author": [
                {
                  "reference": "Practitioner/5e69d3f5-e87e-47e6-9188-ec72fb11de31",
                  "type": "Practitioner"
                },
                {
                  "type": "Device",
                  "identifier": {
                    "system": "https://fhir.kbv.de/NamingSystem/KBV_NS_FOR_Pruefnummer",
                    "value": "GEMATIK/410/2109/36/123"
                  }
                }
              ],
              "title": "elektronische Arzneimittelverordnung",
              "custodian": {
                "reference": "Organization/6b53c2c8-cb1e-4b46-a661-faee4aeb7481"
              },
              "section": [
                {
                  "code": {
                    "coding": [
                      {
                        "system": "https://fhir.kbv.de/CodeSystem/KBV_CS_ERP_Section_Type",
                        "code": "Coverage"
                      }
                    ]
                  },
                  "entry": [
                    {
                      "reference": "Coverage/15d51a93-ca37-4b0f-8533-495e64079094"
                    }
                  ]
                },
                {
                  "code": {
                    "coding": [
                      {
                        "system": "https://fhir.kbv.de/CodeSystem/KBV_CS_ERP_Section_Type",
                        "code": "Prescription"
                      }
                    ]
                  },
                  "entry": [
                    {
                      "reference": "MedicationRequest/ae8f4075-b577-412e-ab43-f53f9f91467e"
                    }
                  ]
                }
              ]
            }
          },
          {
            "fullUrl": "https://pvs.gematik.de/fhir/MedicationRequest/ae8f4075-b577-412e-ab43-f53f9f91467e",
            "resource": {
              "resourceType": "MedicationRequest",
              "id": "ae8f4075-b577-412e-ab43-f53f9f91467e",
              "meta": {
                "profile": [
                  "https://fhir.kbv.de/StructureDefinition/KBV_PR_ERP_Prescription|1.0.2"
                ]
              },
              "extension": [
                {
                  "url": "https://fhir.kbv.de/StructureDefinition/KBV_EX_ERP_BVG",
                  "valueBoolean": false
                },
                {
                  "url": "https://fhir.kbv.de/StructureDefinition/KBV_EX_ERP_EmergencyServicesFee",
                  "valueBoolean": false
                },
                {
                  "url": "https://fhir.kbv.de/StructureDefinition/KBV_EX_ERP_Multiple_Prescription",
                  "extension": [
                    {
                      "url": "Kennzeichen",
                      "valueBoolean": true
                    },
                    {
                      "url": "Nummerierung",
                      "valueRatio": {
                        "numerator": {
                          "value": 4
                        },
                        "denominator": {
                          "value": 4
                        }
                      }
                    },
                    {
                      "url": "Zeitraum",
                      "valuePeriod": {
                        "start": "2023-12-11",
                        "end": "2024-03-10"
                      }
                    }
                  ]
                },
                {
                  "url": "https://fhir.kbv.de/StructureDefinition/KBV_EX_ERP_StatusCoPayment",
                  "valueCoding": {
                    "system": "https://fhir.kbv.de/CodeSystem/KBV_CS_ERP_StatusCoPayment",
                    "code": "0"
                  }
                }
              ],
              "status": "active",
              "intent": "order",
              "medicationReference": {
                "reference": "Medication/18dae995-996d-498a-8056-43011b723f8a"
              },
              "subject": {
                "reference": "Patient/4c5d0cd4-d79e-42ad-9b9e-3c7d00ffa94a"
              },
              "authoredOn": "2023-03-16",
              "requester": {
                "reference": "Practitioner/5e69d3f5-e87e-47e6-9188-ec72fb11de31"
              },
              "insurance": [
                {
                  "reference": "Coverage/15d51a93-ca37-4b0f-8533-495e64079094"
                }
              ],
              "dosageInstruction": [
                {
                  "extension": [
                    {
                      "url": "https://fhir.kbv.de/StructureDefinition/KBV_EX_ERP_DosageFlag",
                      "valueBoolean": true
                    }
                  ],
                  "text": "1-0-0-0"
                }
              ],
              "dispenseRequest": {
                "quantity": {
                  "value": 1,
                  "system": "http://unitsofmeasure.org",
                  "code": "{Package}"
                }
              },
              "substitution": {
                "allowedBoolean": true
              }
            }
          },
          {
            "fullUrl": "https://pvs.gematik.de/fhir/Medication/18dae995-996d-498a-8056-43011b723f8a",
            "resource": {
              "resourceType": "Medication",
              "id": "18dae995-996d-498a-8056-43011b723f8a",
              "meta": {
                "profile": [
                  "https://fhir.kbv.de/StructureDefinition/KBV_PR_ERP_Medication_PZN|1.0.2"
                ]
              },
              "extension": [
                {
                  "url": "https://fhir.kbv.de/StructureDefinition/KBV_EX_ERP_Medication_Category",
                  "valueCoding": {
                    "system": "https://fhir.kbv.de/CodeSystem/KBV_CS_ERP_Medication_Category",
                    "code": "00"
                  }
                },
                {
                  "url": "https://fhir.kbv.de/StructureDefinition/KBV_EX_ERP_Medication_Vaccine",
                  "valueBoolean": false
                },
                {
                  "url": "http://fhir.de/StructureDefinition/normgroesse",
                  "valueCode": "NB"
                }
              ],
              "code": {
                "coding": [
                  {
                    "system": "http://fhir.de/CodeSystem/ifa/pzn",
                    "code": "67690504"
                  }
                ],
                "text": "Dicabrarat"
              },
              "form": {
                "coding": [
                  {
                    "system": "https://fhir.kbv.de/CodeSystem/KBV_CS_SFHIR_KBV_DARREICHUNGSFORM",
                    "code": "TAB"
                  }
                ]
              },
              "amount": {
                "numerator": {
                  "value": 1,
                  "unit": "Stk"
                },
                "denominator": {
                  "value": 1
                }
              }
            }
          },
          {
            "fullUrl": "https://pvs.gematik.de/fhir/Patient/4c5d0cd4-d79e-42ad-9b9e-3c7d00ffa94a",
            "resource": {
              "resourceType": "Patient",
              "id": "4c5d0cd4-d79e-42ad-9b9e-3c7d00ffa94a",
              "meta": {
                "profile": [
                  "https://fhir.kbv.de/StructureDefinition/KBV_PR_FOR_Patient|1.0.3"
                ]
              },
              "identifier": [
                {
                  "type": {
                    "coding": [
                      {
                        "system": "http://fhir.de/CodeSystem/identifier-type-de-basis",
                        "code": "PKV"
                      }
                    ]
                  },
                  "system": "http://www.acme.com/identifiers/patient",
                  "value": "X110465770",
                  "assigner": {
                    "reference": "Organization/eb6be6e5-ddc9-446a-b833-e405a0fce33a",
                    "display": "Künstler-Krankenkasse Westfalen-Lippe"
                  }
                }
              ],
              "name": [
                {
                  "use": "official",
                  "family": "Angermänn",
                  "given": ["Günther"]
                }
              ],
              "birthDate": "1975-09-05",
              "address": [
                {
                  "type": "both",
                  "line": ["Ackerweg 980"],
                  "_line": [
                    {
                      "extension": [
                        {
                          "url": "http://hl7.org/fhir/StructureDefinition/iso21090-ADXP-houseNumber",
                          "valueString": "980"
                        },
                        {
                          "url": "http://hl7.org/fhir/StructureDefinition/iso21090-ADXP-streetName",
                          "valueString": "Ackerweg"
                        }
                      ]
                    }
                  ],
                  "city": "Schön Ela",
                  "postalCode": "01243",
                  "country": "D"
                }
              ]
            }
          },
          {
            "fullUrl": "https://pvs.gematik.de/fhir/Organization/6b53c2c8-cb1e-4b46-a661-faee4aeb7481",
            "resource": {
              "resourceType": "Organization",
              "id": "6b53c2c8-cb1e-4b46-a661-faee4aeb7481",
              "meta": {
                "profile": [
                  "https://fhir.kbv.de/StructureDefinition/KBV_PR_FOR_Organization|1.0.3"
                ]
              },
              "identifier": [
                {
                  "type": {
                    "coding": [
                      {
                        "system": "http://terminology.hl7.org/CodeSystem/v2-0203",
                        "code": "BSNR"
                      }
                    ]
                  },
                  "system": "https://fhir.kbv.de/NamingSystem/KBV_NS_Base_BSNR",
                  "value": "622341349"
                }
              ],
              "name": "Arztpraxis Schraßer",
              "telecom": [
                {
                  "system": "phone",
                  "value": "(0097) 345483262"
                },
                {
                  "system": "email",
                  "value": "hagen.aryee@weiler.org"
                }
              ],
              "address": [
                {
                  "type": "both",
                  "line": ["Königsberger Platz 8"],
                  "_line": [
                    {
                      "extension": [
                        {
                          "url": "http://hl7.org/fhir/StructureDefinition/iso21090-ADXP-houseNumber",
                          "valueString": "8"
                        },
                        {
                          "url": "http://hl7.org/fhir/StructureDefinition/iso21090-ADXP-streetName",
                          "valueString": "Königsberger Platz"
                        }
                      ]
                    }
                  ],
                  "city": "Nord Ashleygrün",
                  "postalCode": "76104",
                  "country": "D"
                }
              ]
            }
          },
          {
            "fullUrl": "https://pvs.gematik.de/fhir/Coverage/15d51a93-ca37-4b0f-8533-495e64079094",
            "resource": {
              "resourceType": "Coverage",
              "id": "15d51a93-ca37-4b0f-8533-495e64079094",
              "meta": {
                "profile": [
                  "https://fhir.kbv.de/StructureDefinition/KBV_PR_FOR_Coverage|1.0.3"
                ]
              },
              "extension": [
                {
                  "url": "http://fhir.de/StructureDefinition/gkv/besondere-personengruppe",
                  "valueCoding": {
                    "system": "https://fhir.kbv.de/CodeSystem/KBV_CS_SFHIR_KBV_PERSONENGRUPPE",
                    "code": "00"
                  }
                },
                {
                  "url": "http://fhir.de/StructureDefinition/gkv/dmp-kennzeichen",
                  "valueCoding": {
                    "system": "https://fhir.kbv.de/CodeSystem/KBV_CS_SFHIR_KBV_DMP",
                    "code": "00"
                  }
                },
                {
                  "url": "http://fhir.de/StructureDefinition/gkv/wop",
                  "valueCoding": {
                    "system": "https://fhir.kbv.de/CodeSystem/KBV_CS_SFHIR_ITA_WOP",
                    "code": "93"
                  }
                },
                {
                  "url": "http://fhir.de/StructureDefinition/gkv/versichertenart",
                  "valueCoding": {
                    "system": "https://fhir.kbv.de/CodeSystem/KBV_CS_SFHIR_KBV_VERSICHERTENSTATUS",
                    "code": "1"
                  }
                }
              ],
              "status": "active",
              "type": {
                "coding": [
                  {
                    "system": "http://fhir.de/CodeSystem/versicherungsart-de-basis",
                    "code": "PKV"
                  }
                ]
              },
              "beneficiary": {
                "reference": "Patient/e5338f78-1082-4f8d-a763-37aecab19a6a"
              },
              "payor": [
                {
                  "identifier": {
                    "system": "http://fhir.de/NamingSystem/arge-ik/iknr",
                    "value": "322435071"
                  },
                  "display": "Künstler-Krankenkasse Rheinland-Pfalz"
                }
              ]
            }
          },
          {
            "fullUrl": "https://pvs.gematik.de/fhir/Practitioner/5e69d3f5-e87e-47e6-9188-ec72fb11de31",
            "resource": {
              "resourceType": "Practitioner",
              "id": "5e69d3f5-e87e-47e6-9188-ec72fb11de31",
              "meta": {
                "profile": [
                  "https://fhir.kbv.de/StructureDefinition/KBV_PR_FOR_Practitioner|1.0.3"
                ]
              },
              "identifier": [
                {
                  "type": {
                    "coding": [
                      {
                        "system": "http://terminology.hl7.org/CodeSystem/v2-0203",
                        "code": "LANR"
                      }
                    ]
                  },
                  "system": "https://fhir.kbv.de/NamingSystem/KBV_NS_Base_ANR",
                  "value": "257417619"
                }
              ],
              "name": [
                {
                  "use": "official",
                  "family": "Schraßer",
                  "given": ["Dr."],
                  "prefix": ["Dr."],
                  "_prefix": [
                    {
                      "extension": [
                        {
                          "url": "http://hl7.org/fhir/StructureDefinition/iso21090-EN-qualifier",
                          "valueCode": "AC"
                        }
                      ]
                    }
                  ]
                }
              ],
              "qualification": [
                {
                  "code": {
                    "coding": [
                      {
                        "system": "https://fhir.kbv.de/CodeSystem/KBV_CS_FOR_Qualification_Type",
                        "code": "00"
                      }
                    ]
                  }
                },
                {
                  "code": {
                    "text": "Super-Facharzt für alles Mögliche"
                  }
                }
              ]
            }
          },
          {
            "fullUrl": "https://pvs.gematik.de/fhir/Organization/eb6be6e5-ddc9-446a-b833-e405a0fce33a",
            "resource": {
              "resourceType": "Organization",
              "id": "eb6be6e5-ddc9-446a-b833-e405a0fce33a",
              "meta": {
                "profile": [
                  "https://fhir.kbv.de/StructureDefinition/KBV_PR_FOR_Organization|1.0.3"
                ]
              },
              "identifier": [
                {
                  "type": {
                    "coding": [
                      {
                        "system": "http://terminology.hl7.org/CodeSystem/v2-0203",
                        "code": "XX"
                      }
                    ]
                  },
                  "system": "http://fhir.de/NamingSystem/arge-ik/iknr",
                  "value": "212590546"
                }
              ],
              "name": "Künstler-Krankenkasse Westfalen-Lippe",
              "telecom": [
                {
                  "system": "phone",
                  "value": "+49-302-4090852"
                }
              ],
              "address": [
                {
                  "type": "both",
                  "line": ["Peenestr. 187"],
                  "_line": [
                    {
                      "extension": [
                        {
                          "url": "http://hl7.org/fhir/StructureDefinition/iso21090-ADXP-houseNumber",
                          "valueString": "187"
                        },
                        {
                          "url": "http://hl7.org/fhir/StructureDefinition/iso21090-ADXP-streetName",
                          "valueString": "Peenestr."
                        }
                      ]
                    }
                  ],
                  "city": "Neu Josefinland",
                  "postalCode": "29486",
                  "country": "D"
                }
              ]
            }
          }
        ],
        "signature": {
          "type": [
            {
              "system": "urn:iso-astm:E1762-95:2013",
              "code": "1.2.840.10065.1.12.1.5"
            }
          ],
          "when": "2023-03-16T11:52:48.665+00:00",
          "who": {
            "reference": "https://erp-test.zentral.erp.splitdns.ti-dienste.de/Device/1"
          },
          "targetFormat": "application/fhir+json",
          "sigFormat": "application/jose",
          "data": ""
        }
      }
    }
  ]
}
