{
  "resourceType": "Bundle",
  "id": "evdga-bundle-sonderkostentraeger",
  "meta": {
    "profile": [
      "https://fhir.kbv.de/StructureDefinition/KBV_PR_EVDGA_Bundle|1.1"
    ]
  },
  "identifier": {
    "system": "https://gematik.de/fhir/erp/NamingSystem/GEM_ERP_NS_PrescriptionId",
    "value": "162.100.000.000.105.35"
  },
  "type": "document",
  "timestamp": "2023-03-26T13:12:00+00:00",
  "entry": [
    {
      "fullUrl": "http://pvs.praxis-topp-gluecklich.local/fhir/Composition/cd3d50e0-bd3f-46f5-9022-c1a6f270e2ca",
      "resource": {
        "resourceType": "Composition",
        "id": "cd3d50e0-bd3f-46f5-9022-c1a6f270e2ca",
        "meta": {
          "profile": [
            "https://fhir.kbv.de/StructureDefinition/KBV_PR_EVDGA_Composition|1.1"
          ]
        },
        "extension": [
          {
            "url": "https://fhir.kbv.de/StructureDefinition/KBV_EX_FOR_Legal_basis",
            "valueCoding": {
              "system": "https://fhir.kbv.de/CodeSystem/KBV_CS_SFHIR_KBV_STATUSKENNZEICHEN",
              "code": "00"
            }
          }
        ],
        "status": "final",
        "type": {
          "coding": [
            {
              "system": "https://fhir.kbv.de/CodeSystem/KBV_CS_SFHIR_KBV_FORMULAR_ART",
              "code": "e16D"
            }
          ]
        },
        "subject": {
          "reference": "Patient/c63cec5c-7584-4959-b9e3-2b7091f9cb4b"
        },
        "date": "2023-03-26T13:12:00Z",
        "author": [
          {
            "reference": "Practitioner/1228772e-1c72-493b-8b5c-5ae54d25843d",
            "type": "Practitioner"
          },
          {
            "type": "Device",
            "identifier": {
              "system": "https://fhir.kbv.de/NamingSystem/KBV_NS_FOR_Pruefnummer",
              "value": "Y/450/2501/36/523"
            }
          }
        ],
        "title": "elektronische Verordnung digitaler Gesundheitsanwendungen",
        "custodian": {
          "reference": "Organization/b87b9d90-c8db-4660-93eb-fed916caa2da"
        },
        "section": [
          {
            "code": {
              "coding": [
                {
                  "system": "https://fhir.kbv.de/CodeSystem/KBV_CS_EVDGA_Section_Type",
                  "code": "Prescription"
                }
              ]
            },
            "entry": [
              {
                "reference": "DeviceRequest/697023ad-a247-476a-a3df-92abc605ef9b"
              }
            ]
          },
          {
            "code": {
              "coding": [
                {
                  "system": "https://fhir.kbv.de/CodeSystem/KBV_CS_EVDGA_Section_Type",
                  "code": "HealthInsurance"
                }
              ]
            },
            "entry": [
              {
                "reference": "Coverage/dadfeb16-075b-4d59-8ef4-a6301b7e7483"
              }
            ]
          }
        ]
      }
    },
    {
      "fullUrl": "http://pvs.praxis-topp-gluecklich.local/fhir/DeviceRequest/697023ad-a247-476a-a3df-92abc605ef9b",
      "resource": {
        "resourceType": "DeviceRequest",
        "id": "697023ad-a247-476a-a3df-92abc605ef9b",
        "meta": {
          "profile": [
            "https://fhir.kbv.de/StructureDefinition/KBV_PR_EVDGA_HealthAppRequest|1.1"
          ]
        },
        "extension": [
          {
            "url": "https://fhir.kbv.de/StructureDefinition/KBV_EX_EVDGA_SER",
            "valueBoolean": false
          }
        ],
        "status": "active",
        "intent": "order",
        "codeCodeableConcept": {
          "coding": [
            {
              "system": "http://fhir.de/CodeSystem/ifa/pzn",
              "code": "18016941"
            }
          ],
          "text": "HelloBetter Vaginismus 001"
        },
        "subject": {
          "reference": "Patient/c63cec5c-7584-4959-b9e3-2b7091f9cb4b"
        },
        "authoredOn": "2023-03-26",
        "requester": {
          "reference": "Practitioner/1228772e-1c72-493b-8b5c-5ae54d25843d"
        },
        "insurance": [
          {
            "reference": "Coverage/dadfeb16-075b-4d59-8ef4-a6301b7e7483"
          }
        ]
      }
    },
    {
      "fullUrl": "http://pvs.praxis-topp-gluecklich.local/fhir/Patient/c63cec5c-7584-4959-b9e3-2b7091f9cb4b",
      "resource": {
        "resourceType": "Patient",
        "id": "c63cec5c-7584-4959-b9e3-2b7091f9cb4b",
        "meta": {
          "profile": [
            "https://fhir.kbv.de/StructureDefinition/KBV_PR_FOR_Patient|1.1.0"
          ]
        },
        "identifier": [
          {
            "type": {
              "coding": [
                {
                  "system": "http://fhir.de/CodeSystem/identifier-type-de-basis",
                  "code": "GKV"
                }
              ]
            },
            "system": "http://fhir.de/sid/gkv/kvid-10",
            "value": "T576543456"
          }
        ],
        "name": [
          {
            "use": "official",
            "family": "Haselnuss",
            "_family": {
              "extension": [
                {
                  "url": "http://hl7.org/fhir/StructureDefinition/humanname-own-name",
                  "valueString": "Haselnuss"
                }
              ]
            },
            "given": [
              "Eileen"
            ]
          }
        ],
        "birthDate": "1993-08-13",
        "address": [
          {
            "type": "both",
            "line": [
              "Musterstr. 3"
            ],
            "_line": [
              {
                "extension": [
                  {
                    "url": "http://hl7.org/fhir/StructureDefinition/iso21090-ADXP-houseNumber",
                    "valueString": "3"
                  },
                  {
                    "url": "http://hl7.org/fhir/StructureDefinition/iso21090-ADXP-streetName",
                    "valueString": "Musterstr."
                  }
                ]
              }
            ],
            "city": "Berlin",
            "postalCode": "10623"
          }
        ]
      }
    },
    {
      "fullUrl": "http://pvs.praxis-topp-gluecklich.local/fhir/Practitioner/1228772e-1c72-493b-8b5c-5ae54d25843d",
      "resource": {
        "resourceType": "Practitioner",
        "id": "1228772e-1c72-493b-8b5c-5ae54d25843d",
        "meta": {
          "profile": [
            "https://fhir.kbv.de/StructureDefinition/KBV_PR_FOR_Practitioner|1.1.0"
          ]
        },
        "identifier": [
          {
            "type": {
              "coding": [
                {
                  "system": "http://terminology.hl7.org/CodeSystem/v2-0203",
                  "code": "LANR"
                }
              ]
            },
            "system": "https://fhir.kbv.de/NamingSystem/KBV_NS_Base_ANR",
            "value": "838382202"
          }
        ],
        "name": [
          {
            "use": "official",
            "family": "Topp-Glücklich",
            "_family": {
              "extension": [
                {
                  "url": "http://hl7.org/fhir/StructureDefinition/humanname-own-name",
                  "valueString": "Topp-Glücklich"
                }
              ]
            },
            "given": [
              "Hans"
            ],
            "prefix": [
              "Dr. med."
            ],
            "_prefix": [
              {
                "extension": [
                  {
                    "url": "http://hl7.org/fhir/StructureDefinition/iso21090-EN-qualifier",
                    "valueCode": "AC"
                  }
                ]
              }
            ]
          }
        ],
        "qualification": [
          {
            "code": {
              "coding": [
                {
                  "system": "https://fhir.kbv.de/CodeSystem/KBV_CS_FOR_Qualification_Type",
                  "code": "00"
                }
              ]
            }
          },
          {
            "code": {
              "coding": [
                {
                  "system": "https://fhir.kbv.de/CodeSystem/KBV_CS_FOR_Berufsbezeichnung",
                  "code": "Berufsbezeichnung"
                }
              ],
              "text": "Hausarzt"
            }
          }
        ]
      }
    },
    {
      "fullUrl": "http://pvs.praxis-topp-gluecklich.local/fhir/Organization/b87b9d90-c8db-4660-93eb-fed916caa2da",
      "resource": {
        "resourceType": "Organization",
        "id": "b87b9d90-c8db-4660-93eb-fed916caa2da",
        "meta": {
          "profile": [
            "https://fhir.kbv.de/StructureDefinition/KBV_PR_FOR_Organization|1.1.0"
          ]
        },
        "identifier": [
          {
            "type": {
              "coding": [
                {
                  "system": "http://terminology.hl7.org/CodeSystem/v2-0203",
                  "code": "BSNR"
                }
              ]
            },
            "system": "https://fhir.kbv.de/NamingSystem/KBV_NS_Base_BSNR",
            "value": "031234567"
          }
        ],
        "name": "Hausarztpraxis Dr. Topp-Glücklich",
        "telecom": [
          {
            "system": "phone",
            "value": "0301234567"
          }
        ],
        "address": [
          {
            "type": "both",
            "line": [
              "Musterstr. 2"
            ],
            "_line": [
              {
                "extension": [
                  {
                    "url": "http://hl7.org/fhir/StructureDefinition/iso21090-ADXP-houseNumber",
                    "valueString": "2"
                  },
                  {
                    "url": "http://hl7.org/fhir/StructureDefinition/iso21090-ADXP-streetName",
                    "valueString": "Musterstr."
                  }
                ]
              }
            ],
            "city": "Berlin",
            "postalCode": "10623"
          }
        ]
      }
    },
    {
      "fullUrl": "http://pvs.praxis-topp-gluecklich.local/fhir/Coverage/dadfeb16-075b-4d59-8ef4-a6301b7e7483",
      "resource": {
        "resourceType": "Coverage",
        "id": "dadfeb16-075b-4d59-8ef4-a6301b7e7483",
        "meta": {
          "profile": [
            "https://fhir.kbv.de/StructureDefinition/KBV_PR_FOR_Coverage|1.1.0"
          ]
        },
        "extension": [
          {
            "url": "http://fhir.de/StructureDefinition/gkv/besondere-personengruppe",
            "valueCoding": {
              "system": "https://fhir.kbv.de/CodeSystem/KBV_CS_SFHIR_KBV_PERSONENGRUPPE",
              "code": "00"
            }
          },
          {
            "url": "http://fhir.de/StructureDefinition/gkv/dmp-kennzeichen",
            "valueCoding": {
              "system": "https://fhir.kbv.de/CodeSystem/KBV_CS_SFHIR_KBV_DMP",
              "code": "00"
            }
          },
          {
            "url": "http://fhir.de/StructureDefinition/gkv/versichertenart",
            "valueCoding": {
              "system": "https://fhir.kbv.de/CodeSystem/KBV_CS_SFHIR_KBV_VERSICHERTENSTATUS",
              "code": "1"
            }
          }
        ],
        "status": "active",
        "type": {
          "coding": [
            {
              "system": "https://fhir.kbv.de/CodeSystem/KBV_CS_FOR_Payor_Type_KBV",
              "code": "SKT"
            }
          ]
        },
        "beneficiary": {
          "reference": "Patient/c63cec5c-7584-4959-b9e3-2b7091f9cb4b"
        },
        "payor": [
          {
            "identifier": {
              "system": "http://fhir.de/sid/arge-ik/iknr",
              "value": "103600375"
            },
            "display": "BGS Grenzschutz -Ost"
          }
        ]
      }
    }
  ]
}