{
  "resourceType": "Bundle",
  "id": "evdga-bundle-private-krankenversicherung-negativer-testfall",
  "meta": {
    "profile": [
      "https://fhir.kbv.de/StructureDefinition/KBV_PR_EVDGA_Bundle|1.1"
    ]
  },
  "identifier": {
    "system": "https://gematik.de/fhir/erp/NamingSystem/GEM_ERP_NS_PrescriptionId",
    "value": "162.100.000.000.213.02"
  },
  "type": "document",
  "timestamp": "2023-03-26T13:12:00+00:00",
  "entry": [
    {
      "fullUrl": "http://pvs.praxis-topp-gluecklich.local/fhir/Composition/9dbb33f9-7d5b-419c-952f-b520d7a1de33",
      "resource": {
        "resourceType": "Composition",
        "id": "9dbb33f9-7d5b-419c-952f-b520d7a1de33",
        "meta": {
          "profile": [
            "https://fhir.kbv.de/StructureDefinition/KBV_PR_EVDGA_Composition|1.1"
          ]
        },
        "extension": [
          {
            "url": "https://fhir.kbv.de/StructureDefinition/KBV_EX_FOR_Legal_basis",
            "valueCoding": {
              "system": "https://fhir.kbv.de/CodeSystem/KBV_CS_SFHIR_KBV_STATUSKENNZEICHEN",
              "code": "00"
            }
          },
          {
            "url": "https://fhir.kbv.de/StructureDefinition/KBV_EX_FOR_PKV_Tariff",
            "valueCoding": {
              "system": "https://fhir.kbv.de/CodeSystem/KBV_CS_SFHIR_KBV_PKV_TARIFF",
              "code": "01"
            }
          }
        ],
        "status": "final",
        "type": {
          "coding": [
            {
              "system": "https://fhir.kbv.de/CodeSystem/KBV_CS_SFHIR_KBV_FORMULAR_ART",
              "code": "e16D"
            }
          ]
        },
        "subject": {
          "reference": "Patient/0821422d-1697-4435-a306-565c1d7fe147"
        },
        "date": "2023-03-26T13:12:00Z",
        "author": [
          {
            "reference": "Practitioner/1228772e-1c72-493b-8b5c-5ae54d25843d",
            "type": "Practitioner"
          },
          {
            "type": "Device",
            "identifier": {
              "system": "https://fhir.kbv.de/NamingSystem/KBV_NS_FOR_Pruefnummer",
              "value": "Y/450/2501/36/523"
            }
          }
        ],
        "title": "elektronische Verordnung digitaler Gesundheitsanwendungen",
        "custodian": {
          "reference": "Organization/b87b9d90-c8db-4660-93eb-fed916caa2da"
        },
        "section": [
          {
            "code": {
              "coding": [
                {
                  "system": "https://fhir.kbv.de/CodeSystem/KBV_CS_EVDGA_Section_Type",
                  "code": "Prescription"
                }
              ]
            },
            "entry": [
              {
                "reference": "DeviceRequest/637a3ffd-06fe-424e-9e3b-9fb0d5bfb959"
              }
            ]
          },
          {
            "code": {
              "coding": [
                {
                  "system": "https://fhir.kbv.de/CodeSystem/KBV_CS_EVDGA_Section_Type",
                  "code": "HealthInsurance"
                }
              ]
            },
            "entry": [
              {
                "reference": "Coverage/97cb5965-bc32-4c4e-ac0a-5cc44b7d27ec"
              }
            ]
          }
        ]
      }
    },
    {
      "fullUrl": "http://pvs.praxis-topp-gluecklich.local/fhir/DeviceRequest/637a3ffd-06fe-424e-9e3b-9fb0d5bfb959",
      "resource": {
        "resourceType": "DeviceRequest",
        "id": "637a3ffd-06fe-424e-9e3b-9fb0d5bfb959",
        "meta": {
          "profile": [
            "https://fhir.kbv.de/StructureDefinition/KBV_PR_EVDGA_HealthAppRequest|1.1"
          ]
        },
        "extension": [
          {
            "url": "https://fhir.kbv.de/StructureDefinition/KBV_EX_EVDGA_SER",
            "valueBoolean": false
          }
        ],
        "status": "active",
        "intent": "order",
        "codeCodeableConcept": {
          "coding": [
            {
              "system": "http://fhir.de/CodeSystem/ifa/pzn",
              "code": "19341005"
            }
          ],
          "text": "Invirto Soziale Phobie 002"
        },
        "subject": {
          "reference": "Patient/0821422d-1697-4435-a306-565c1d7fe147"
        },
        "authoredOn": "2023-03-26",
        "requester": {
          "reference": "Practitioner/1228772e-1c72-493b-8b5c-5ae54d25843d"
        },
        "insurance": [
          {
            "reference": "Coverage/97cb5965-bc32-4c4e-ac0a-5cc44b7d27ec"
          }
        ]
      }
    },
    {
      "fullUrl": "http://pvs.praxis-topp-gluecklich.local/fhir/Patient/0821422d-1697-4435-a306-565c1d7fe147",
      "resource": {
        "resourceType": "Patient",
        "id": "0821422d-1697-4435-a306-565c1d7fe147",
        "meta": {
          "profile": [
            "https://fhir.kbv.de/StructureDefinition/KBV_PR_FOR_Patient|1.1.0"
          ]
        },
        "identifier": [
          {
            "type": {
              "coding": [
                {
                  "system": "http://fhir.de/CodeSystem/identifier-type-de-basis",
                  "code": "PKV"
                }
              ]
            },
            "system": "http://fhir.de/sid/pkv/kvid-10",
            "value": "C703617495"
          }
        ],
        "name": [
          {
            "use": "official",
            "family": "Fürst von und zur Baustelle",
            "_family": {
              "extension": [
                {
                  "url": "http://fhir.de/StructureDefinition/humanname-namenszusatz",
                  "valueString": "Fürst"
                },
                {
                  "url": "http://hl7.org/fhir/StructureDefinition/humanname-own-name",
                  "valueString": "Baustelle"
                },
                {
                  "url": "http://hl7.org/fhir/StructureDefinition/humanname-own-prefix",
                  "valueString": "von und zur"
                }
              ]
            },
            "given": [
              "Franz Alexander"
            ]
          }
        ],
        "birthDate": "1957-11-17",
        "address": [
          {
            "type": "both",
            "line": [
              "Musterstr. 4"
            ],
            "_line": [
              {
                "extension": [
                  {
                    "url": "http://hl7.org/fhir/StructureDefinition/iso21090-ADXP-houseNumber",
                    "valueString": "4"
                  },
                  {
                    "url": "http://hl7.org/fhir/StructureDefinition/iso21090-ADXP-streetName",
                    "valueString": "Musterstr."
                  }
                ]
              }
            ],
            "city": "Berlin",
            "postalCode": "10623"
          }
        ]
      }
    },
    {
      "fullUrl": "http://pvs.praxis-topp-gluecklich.local/fhir/Practitioner/1228772e-1c72-493b-8b5c-5ae54d25843d",
      "resource": {
        "resourceType": "Practitioner",
        "id": "1228772e-1c72-493b-8b5c-5ae54d25843d",
        "meta": {
          "profile": [
            "https://fhir.kbv.de/StructureDefinition/KBV_PR_FOR_Practitioner|1.1.0"
          ]
        },
        "identifier": [
          {
            "type": {
              "coding": [
                {
                  "system": "http://terminology.hl7.org/CodeSystem/v2-0203",
                  "code": "LANR"
                }
              ]
            },
            "system": "https://fhir.kbv.de/NamingSystem/KBV_NS_Base_ANR",
            "value": "838382202"
          },
          {
            "type": {
              "coding": [
                {
                  "system": "http://terminology.hl7.org/CodeSystem/v2-0203",
                  "code": "PRN"
                }
              ]
            },
            "system": "https://gematik.de/fhir/sid/telematik-id",
            "value": "1-2b84jd-s863"
          }
        ],
        "name": [
          {
            "use": "official",
            "family": "Topp-Glücklich",
            "_family": {
              "extension": [
                {
                  "url": "http://hl7.org/fhir/StructureDefinition/humanname-own-name",
                  "valueString": "Topp-Glücklich"
                }
              ]
            },
            "given": [
              "Hans"
            ],
            "prefix": [
              "Dr. med."
            ],
            "_prefix": [
              {
                "extension": [
                  {
                    "url": "http://hl7.org/fhir/StructureDefinition/iso21090-EN-qualifier",
                    "valueCode": "AC"
                  }
                ]
              }
            ]
          }
        ],
        "qualification": [
          {
            "code": {
              "coding": [
                {
                  "system": "https://fhir.kbv.de/CodeSystem/KBV_CS_FOR_Qualification_Type",
                  "code": "00"
                }
              ]
            }
          },
          {
            "code": {
              "coding": [
                {
                  "system": "https://fhir.kbv.de/CodeSystem/KBV_CS_FOR_Berufsbezeichnung",
                  "code": "Berufsbezeichnung"
                }
              ],
              "text": "Hausarzt"
            }
          }
        ]
      }
    },
    {
      "fullUrl": "http://pvs.praxis-topp-gluecklich.local/fhir/Organization/b87b9d90-c8db-4660-93eb-fed916caa2da",
      "resource": {
        "resourceType": "Organization",
        "id": "b87b9d90-c8db-4660-93eb-fed916caa2da",
        "meta": {
          "profile": [
            "https://fhir.kbv.de/StructureDefinition/KBV_PR_FOR_Organization|1.1.0"
          ]
        },
        "identifier": [
          {
            "type": {
              "coding": [
                {
                  "system": "http://terminology.hl7.org/CodeSystem/v2-0203",
                  "code": "BSNR"
                }
              ]
            },
            "system": "https://fhir.kbv.de/NamingSystem/KBV_NS_Base_BSNR",
            "value": "031234567"
          },
          {
            "type": {
              "coding": [
                {
                  "system": "http://terminology.hl7.org/CodeSystem/v2-0203",
                  "code": "PRN"
                }
              ]
            },
            "system": "https://gematik.de/fhir/sid/telematik-id",
            "value": "1-1a25sd-d529"
          }
        ],
        "name": "Hausarztpraxis Dr. Topp-Glücklich",
        "telecom": [
          {
            "system": "phone",
            "value": "0301234567"
          }
        ],
        "address": [
          {
            "type": "both",
            "line": [
              "Musterstr. 2"
            ],
            "_line": [
              {
                "extension": [
                  {
                    "url": "http://hl7.org/fhir/StructureDefinition/iso21090-ADXP-houseNumber",
                    "valueString": "2"
                  },
                  {
                    "url": "http://hl7.org/fhir/StructureDefinition/iso21090-ADXP-streetName",
                    "valueString": "Musterstr."
                  }
                ]
              }
            ],
            "city": "Berlin",
            "postalCode": "10623"
          }
        ]
      }
    },
    {
      "fullUrl": "http://pvs.praxis-topp-gluecklich.local/fhir/Coverage/97cb5965-bc32-4c4e-ac0a-5cc44b7d27ec",
      "resource": {
        "resourceType": "Coverage",
        "id": "97cb5965-bc32-4c4e-ac0a-5cc44b7d27ec",
        "meta": {
          "profile": [
            "https://fhir.kbv.de/StructureDefinition/KBV_PR_FOR_Coverage|1.1.0"
          ]
        },
        "extension": [
          {
            "url": "http://fhir.de/StructureDefinition/gkv/besondere-personengruppe",
            "valueCoding": {
              "system": "https://fhir.kbv.de/CodeSystem/KBV_CS_SFHIR_KBV_PERSONENGRUPPE",
              "code": "00"
            }
          },
          {
            "url": "http://fhir.de/StructureDefinition/gkv/dmp-kennzeichen",
            "valueCoding": {
              "system": "https://fhir.kbv.de/CodeSystem/KBV_CS_SFHIR_KBV_DMP",
              "code": "00"
            }
          },
          {
            "url": "http://fhir.de/StructureDefinition/gkv/versichertenart",
            "valueCoding": {
              "system": "https://fhir.kbv.de/CodeSystem/KBV_CS_SFHIR_KBV_VERSICHERTENSTATUS",
              "code": "1"
            }
          }
        ],
        "status": "active",
        "type": {
          "coding": [
            {
              "system": "http://fhir.de/CodeSystem/versicherungsart-de-basis",
              "code": "PKV"
            }
          ]
        },
        "beneficiary": {
          "reference": "Patient/0821422d-1697-4435-a306-565c1d7fe147"
        },
        "payor": [
          {
            "identifier": {
              "system": "http://fhir.de/sid/arge-ik/iknr",
              "value": "168141461"
            },
            "display": "ottonova Krankenversicherung"
          }
        ]
      }
    }
  ]
}