{
  "resourceType": "Bundle",
  "id": "89bdc7d7-9c3f-41d3-856f-6f0be9145cb7",
  "type": "collection",
  "timestamp": "2023-04-21T07:09:16.859+00:00",
  "link": [
    {
      "relation": "self",
      "url": "https://erp-dev.zentral.erp.splitdns.ti-dienste.de/Task/200.000.001.944.084.41"
    }
  ],
  "entry": [
    {
      "fullUrl": "https://erp-dev.zentral.erp.splitdns.ti-dienste.de/Task/200.000.001.944.084.41",
      "resource": {
        "resourceType": "Task",
        "id": "200.000.001.944.084.41",
        "meta": {
          "profile": [
            "https://gematik.de/fhir/erp/StructureDefinition/GEM_ERP_PR_Task|1.2"
          ]
        },
        "extension": [
          {
            "url": "https://gematik.de/fhir/erp/StructureDefinition/GEM_ERP_EX_PrescriptionType",
            "valueCoding": {
              "system": "https://gematik.de/fhir/erp/CodeSystem/GEM_ERP_CS_FlowType",
              "code": "200",
              "display": "PKV (Apothekenpflichtige Arzneimittel)"
            }
          },
          {
            "url": "https://gematik.de/fhir/erp/StructureDefinition/GEM_ERP_EX_ExpiryDate",
            "valueDate": "2024-04-15"
          },
          {
            "url": "https://gematik.de/fhir/erp/StructureDefinition/GEM_ERP_EX_AcceptDate",
            "valueDate": "2024-04-15"
          }
        ],
        "identifier": [
          {
            "use": "official",
            "system": "https://gematik.de/fhir/erp/NamingSystem/GEM_ERP_NS_PrescriptionId",
            "value": "200.000.001.944.084.41"
          },
          {
            "use": "official",
            "system": "https://gematik.de/fhir/erp/NamingSystem/GEM_ERP_NS_AccessCode",
            "value": "bfca25205be1776d0f4f263c3b3772d8012e3c2d8e862fc66afbc9feca1344be"
          }
        ],
        "status": "ready",
        "intent": "order",
        "for": {
          "identifier": {
            "system": "http://fhir.de/sid/pkv/kvid-10",
            "value": "X110465770"
          }
        },
        "authoredOn": "2023-04-21T07:09:15.944+00:00",
        "lastModified": "2023-04-21T07:09:16.342+00:00",
        "performerType": [
          {
            "coding": [
              {
                "system": "https://gematik.de/fhir/erp/CodeSystem/GEM_ERP_CS_OrganizationType",
                "code": "urn:oid:1.2.276.0.76.4.54",
                "display": "Öffentliche Apotheke"
              }
            ],
            "text": "Öffentliche Apotheke"
          }
        ],
        "input": [
          {
            "type": {
              "coding": [
                {
                  "system": "https://gematik.de/fhir/erp/CodeSystem/GEM_ERP_CS_DocumentType",
                  "code": "2"
                }
              ]
            },
            "valueReference": {
              "reference": "c814aa1d-0000-0000-0002-000000000000"
            }
          }
        ]
      }
    },
    {
      "fullUrl": "urn:uuid:c814aa1d-0000-0000-0002-000000000000",
      "resource": {
        "resourceType": "Bundle",
        "meta": {
          "lastUpdated": "2023-04-21T09:09:15.458+02:00",
          "profile": [
            "https://fhir.kbv.de/StructureDefinition/KBV_PR_ERP_Bundle|1.1.0"
          ]
        },
        "identifier": {
          "system": "https://gematik.de/fhir/erp/NamingSystem/GEM_ERP_NS_PrescriptionId",
          "value": "200.000.001.944.084.41"
        },
        "type": "document",
        "timestamp": "2023-04-21T09:09:15.458+02:00",
        "entry": [
          {
            "fullUrl": "https://pvs.gematik.de/fhir/Composition/10a8000b-56fd-4512-806b-0e583a260676",
            "resource": {
              "resourceType": "Composition",
              "id": "10a8000b-56fd-4512-806b-0e583a260676",
              "meta": {
                "profile": [
                  "https://fhir.kbv.de/StructureDefinition/KBV_PR_ERP_Composition|1.1.0"
                ]
              },
              "extension": [
                {
                  "url": "https://fhir.kbv.de/StructureDefinition/KBV_EX_FOR_Legal_basis",
                  "valueCoding": {
                    "system": "https://fhir.kbv.de/CodeSystem/KBV_CS_SFHIR_KBV_STATUSKENNZEICHEN",
                    "code": "00"
                  }
                }
              ],
              "status": "final",
              "type": {
                "coding": [
                  {
                    "system": "https://fhir.kbv.de/CodeSystem/KBV_CS_SFHIR_KBV_FORMULAR_ART",
                    "code": "e16A"
                  }
                ]
              },
              "subject": {
                "reference": "Patient/07427983-e230-4640-97e2-1b94f8d08017"
              },
              "date": "2023-04-21T09:09:15+02:00",
              "author": [
                {
                  "reference": "Practitioner/33f157a2-9e95-4250-bf15-c52808eb765d",
                  "type": "Practitioner"
                },
                {
                  "type": "Device",
                  "identifier": {
                    "system": "https://fhir.kbv.de/NamingSystem/KBV_NS_FOR_Pruefnummer",
                    "value": "GEMATIK/410/2109/36/123"
                  }
                }
              ],
              "title": "elektronische Arzneimittelverordnung",
              "custodian": {
                "reference": "Organization/92cdd71a-636d-4d82-9d4c-d02b156bb4a8"
              },
              "section": [
                {
                  "code": {
                    "coding": [
                      {
                        "system": "https://fhir.kbv.de/CodeSystem/KBV_CS_ERP_Section_Type",
                        "code": "Coverage"
                      }
                    ]
                  },
                  "entry": [
                    {
                      "reference": "Coverage/07477a59-d991-4acc-a8a7-699adcdcdb28"
                    }
                  ]
                },
                {
                  "code": {
                    "coding": [
                      {
                        "system": "https://fhir.kbv.de/CodeSystem/KBV_CS_ERP_Section_Type",
                        "code": "Prescription"
                      }
                    ]
                  },
                  "entry": [
                    {
                      "reference": "MedicationRequest/a5506cc1-4715-4bc7-974b-a8daa507a869"
                    }
                  ]
                }
              ]
            }
          },
          {
            "fullUrl": "https://pvs.gematik.de/fhir/MedicationRequest/a5506cc1-4715-4bc7-974b-a8daa507a869",
            "resource": {
              "resourceType": "MedicationRequest",
              "id": "a5506cc1-4715-4bc7-974b-a8daa507a869",
              "meta": {
                "profile": [
                  "https://fhir.kbv.de/StructureDefinition/KBV_PR_ERP_Prescription|1.1.0"
                ]
              },
              "extension": [
                {
                  "url": "https://fhir.kbv.de/StructureDefinition/KBV_EX_ERP_BVG",
                  "valueBoolean": false
                },
                {
                  "url": "https://fhir.kbv.de/StructureDefinition/KBV_EX_ERP_EmergencyServicesFee",
                  "valueBoolean": false
                },
                {
                  "url": "https://fhir.kbv.de/StructureDefinition/KBV_EX_ERP_Multiple_Prescription",
                  "extension": [
                    {
                      "url": "Kennzeichen",
                      "valueBoolean": true
                    },
                    {
                      "url": "Nummerierung",
                      "valueRatio": {
                        "numerator": {
                          "value": 4
                        },
                        "denominator": {
                          "value": 4
                        }
                      }
                    },
                    {
                      "url": "Zeitraum",
                      "valuePeriod": {
                        "start": "2024-01-16",
                        "end": "2024-04-15"
                      }
                    },
                    {
                      "url": "ID",
                      "valueIdentifier": {
                        "system": "urn:ietf:rfc:3986",
                        "value": "urn:uuid:52bd2a20-02e1-4ba8-9012-08353d32e6db"
                      }
                    }
                  ]
                },
                {
                  "url": "https://fhir.kbv.de/StructureDefinition/KBV_EX_FOR_StatusCoPayment",
                  "valueCoding": {
                    "system": "https://fhir.kbv.de/CodeSystem/KBV_CS_FOR_StatusCoPayment",
                    "code": "0"
                  }
                }
              ],
              "status": "active",
              "intent": "order",
              "medicationReference": {
                "reference": "Medication/74b956f3-f8a3-4d1d-860b-8e71a9f94324"
              },
              "subject": {
                "reference": "Patient/07427983-e230-4640-97e2-1b94f8d08017"
              },
              "authoredOn": "2023-04-21",
              "requester": {
                "reference": "Practitioner/33f157a2-9e95-4250-bf15-c52808eb765d"
              },
              "insurance": [
                {
                  "reference": "Coverage/07477a59-d991-4acc-a8a7-699adcdcdb28"
                }
              ],
              "dosageInstruction": [
                {
                  "extension": [
                    {
                      "url": "https://fhir.kbv.de/StructureDefinition/KBV_EX_ERP_DosageFlag",
                      "valueBoolean": true
                    }
                  ],
                  "text": "1-0-0-0"
                }
              ],
              "dispenseRequest": {
                "quantity": {
                  "value": 1,
                  "system": "http://unitsofmeasure.org",
                  "code": "{Package}"
                }
              },
              "substitution": {
                "allowedBoolean": true
              }
            }
          },
          {
            "fullUrl": "https://pvs.gematik.de/fhir/Medication/74b956f3-f8a3-4d1d-860b-8e71a9f94324",
            "resource": {
              "resourceType": "Medication",
              "id": "74b956f3-f8a3-4d1d-860b-8e71a9f94324",
              "meta": {
                "profile": [
                  "https://fhir.kbv.de/StructureDefinition/KBV_PR_ERP_Medication_PZN|1.1.0"
                ]
              },
              "extension": [
                {
                  "url": "https://fhir.kbv.de/StructureDefinition/KBV_EX_Base_Medication_Type",
                  "valueCodeableConcept": {
                    "coding": [
                      {
                        "system": "http://snomed.info/sct",
                        "version": "http://snomed.info/sct/900000000000207008/version/20220331",
                        "code": "763158003",
                        "display": "Medicinal product (product)"
                      }
                    ]
                  }
                },
                {
                  "url": "https://fhir.kbv.de/StructureDefinition/KBV_EX_ERP_Medication_Category",
                  "valueCoding": {
                    "system": "https://fhir.kbv.de/CodeSystem/KBV_CS_ERP_Medication_Category",
                    "code": "00"
                  }
                },
                {
                  "url": "https://fhir.kbv.de/StructureDefinition/KBV_EX_ERP_Medication_Vaccine",
                  "valueBoolean": false
                },
                {
                  "url": "http://fhir.de/StructureDefinition/normgroesse",
                  "valueCode": "NB"
                }
              ],
              "code": {
                "coding": [
                  {
                    "system": "http://fhir.de/CodeSystem/ifa/pzn",
                    "code": "97942106"
                  }
                ],
                "text": "Belterfen"
              },
              "form": {
                "coding": [
                  {
                    "system": "https://fhir.kbv.de/CodeSystem/KBV_CS_SFHIR_KBV_DARREICHUNGSFORM",
                    "code": "TAB"
                  }
                ]
              },
              "amount": {
                "numerator": {
                  "extension": [
                    {
                      "url": "https://fhir.kbv.de/StructureDefinition/KBV_EX_ERP_Medication_PackagingSize",
                      "valueString": "1"
                    }
                  ],
                  "unit": "Stk"
                },
                "denominator": {
                  "value": 1
                }
              }
            }
          },
          {
            "fullUrl": "https://pvs.gematik.de/fhir/Patient/07427983-e230-4640-97e2-1b94f8d08017",
            "resource": {
              "resourceType": "Patient",
              "id": "07427983-e230-4640-97e2-1b94f8d08017",
              "meta": {
                "profile": [
                  "https://fhir.kbv.de/StructureDefinition/KBV_PR_FOR_Patient|1.1.0"
                ]
              },
              "identifier": [
                {
                  "type": {
                    "coding": [
                      {
                        "system": "http://fhir.de/CodeSystem/identifier-type-de-basis",
                        "code": "PKV"
                      }
                    ]
                  },
                  "system": "http://fhir.de/sid/pkv/kvid-10",
                  "value": "X110465770"
                }
              ],
              "name": [
                {
                  "use": "official",
                  "family": "Angermänn",
                  "_family": {
                    "extension": [
                      {
                        "url": "http://hl7.org/fhir/StructureDefinition/humanname-own-name",
                        "valueString": "Angermänn"
                      }
                    ]
                  },
                  "given": ["Günther"]
                }
              ],
              "birthDate": "1999-11-22",
              "address": [
                {
                  "type": "both",
                  "line": ["Gabriele-Münter-Str. 442"],
                  "_line": [
                    {
                      "extension": [
                        {
                          "url": "http://hl7.org/fhir/StructureDefinition/iso21090-ADXP-houseNumber",
                          "valueString": "442"
                        },
                        {
                          "url": "http://hl7.org/fhir/StructureDefinition/iso21090-ADXP-streetName",
                          "valueString": "Gabriele-Münter-Str."
                        }
                      ]
                    }
                  ],
                  "city": "Manuelheim",
                  "postalCode": "38767",
                  "country": "D"
                }
              ]
            }
          },
          {
            "fullUrl": "https://pvs.gematik.de/fhir/Organization/92cdd71a-636d-4d82-9d4c-d02b156bb4a8",
            "resource": {
              "resourceType": "Organization",
              "id": "92cdd71a-636d-4d82-9d4c-d02b156bb4a8",
              "meta": {
                "profile": [
                  "https://fhir.kbv.de/StructureDefinition/KBV_PR_FOR_Organization|1.1.0"
                ]
              },
              "identifier": [
                {
                  "type": {
                    "coding": [
                      {
                        "system": "http://terminology.hl7.org/CodeSystem/v2-0203",
                        "code": "BSNR"
                      }
                    ]
                  },
                  "system": "https://fhir.kbv.de/NamingSystem/KBV_NS_Base_BSNR",
                  "value": "015257524"
                }
              ],
              "name": "Arztpraxis Schraßer",
              "telecom": [
                {
                  "system": "phone",
                  "value": "+49-8322-34658511"
                },
                {
                  "system": "email",
                  "value": "sven.boruschewski@christ.org"
                }
              ],
              "address": [
                {
                  "type": "both",
                  "line": ["Ernst-Bloch-Str. 05a"],
                  "_line": [
                    {
                      "extension": [
                        {
                          "url": "http://hl7.org/fhir/StructureDefinition/iso21090-ADXP-houseNumber",
                          "valueString": "05a"
                        },
                        {
                          "url": "http://hl7.org/fhir/StructureDefinition/iso21090-ADXP-streetName",
                          "valueString": "Ernst-Bloch-Str."
                        }
                      ]
                    }
                  ],
                  "city": "Burgerberg",
                  "postalCode": "64575",
                  "country": "D"
                }
              ]
            }
          },
          {
            "fullUrl": "https://pvs.gematik.de/fhir/Coverage/07477a59-d991-4acc-a8a7-699adcdcdb28",
            "resource": {
              "resourceType": "Coverage",
              "id": "07477a59-d991-4acc-a8a7-699adcdcdb28",
              "meta": {
                "profile": [
                  "https://fhir.kbv.de/StructureDefinition/KBV_PR_FOR_Coverage|1.1.0"
                ]
              },
              "extension": [
                {
                  "url": "http://fhir.de/StructureDefinition/gkv/besondere-personengruppe",
                  "valueCoding": {
                    "system": "https://fhir.kbv.de/CodeSystem/KBV_CS_SFHIR_KBV_PERSONENGRUPPE",
                    "code": "00"
                  }
                },
                {
                  "url": "http://fhir.de/StructureDefinition/gkv/dmp-kennzeichen",
                  "valueCoding": {
                    "system": "https://fhir.kbv.de/CodeSystem/KBV_CS_SFHIR_KBV_DMP",
                    "code": "00"
                  }
                },
                {
                  "url": "http://fhir.de/StructureDefinition/gkv/wop",
                  "valueCoding": {
                    "system": "https://fhir.kbv.de/CodeSystem/KBV_CS_SFHIR_ITA_WOP",
                    "code": "20"
                  }
                },
                {
                  "url": "http://fhir.de/StructureDefinition/gkv/versichertenart",
                  "valueCoding": {
                    "system": "https://fhir.kbv.de/CodeSystem/KBV_CS_SFHIR_KBV_VERSICHERTENSTATUS",
                    "code": "1"
                  }
                }
              ],
              "status": "active",
              "type": {
                "coding": [
                  {
                    "system": "http://fhir.de/CodeSystem/versicherungsart-de-basis",
                    "code": "PKV"
                  }
                ]
              },
              "beneficiary": {
                "reference": "Patient/ba5f2f31-cb54-4f1e-b96f-35e90ed7b301"
              },
              "payor": [
                {
                  "identifier": {
                    "system": "http://fhir.de/sid/arge-ik/iknr",
                    "value": "165886342"
                  },
                  "display": "Farmer Westfalen-Lippe"
                }
              ]
            }
          },
          {
            "fullUrl": "https://pvs.gematik.de/fhir/Practitioner/33f157a2-9e95-4250-bf15-c52808eb765d",
            "resource": {
              "resourceType": "Practitioner",
              "id": "33f157a2-9e95-4250-bf15-c52808eb765d",
              "meta": {
                "profile": [
                  "https://fhir.kbv.de/StructureDefinition/KBV_PR_FOR_Practitioner|1.1.0"
                ]
              },
              "identifier": [
                {
                  "type": {
                    "coding": [
                      {
                        "system": "http://terminology.hl7.org/CodeSystem/v2-0203",
                        "code": "LANR"
                      }
                    ]
                  },
                  "system": "https://fhir.kbv.de/NamingSystem/KBV_NS_Base_ANR",
                  "value": "460217512"
                }
              ],
              "name": [
                {
                  "use": "official",
                  "family": "Schraßer",
                  "_family": {
                    "extension": [
                      {
                        "url": "http://hl7.org/fhir/StructureDefinition/humanname-own-name",
                        "valueString": "Schraßer"
                      }
                    ]
                  },
                  "given": ["Dr."],
                  "prefix": ["Dr."],
                  "_prefix": [
                    {
                      "extension": [
                        {
                          "url": "http://hl7.org/fhir/StructureDefinition/iso21090-EN-qualifier",
                          "valueCode": "AC"
                        }
                      ]
                    }
                  ]
                }
              ],
              "qualification": [
                {
                  "code": {
                    "coding": [
                      {
                        "system": "https://fhir.kbv.de/CodeSystem/KBV_CS_FOR_Qualification_Type",
                        "code": "00"
                      }
                    ]
                  }
                },
                {
                  "code": {
                    "coding": [
                      {
                        "system": "https://fhir.kbv.de/CodeSystem/KBV_CS_FOR_Berufsbezeichnung",
                        "code": "Berufsbezeichnung"
                      }
                    ],
                    "text": "Super-Facharzt für alles Mögliche"
                  }
                }
              ]
            }
          }
        ],
        "signature": {
          "type": [
            {
              "system": "urn:iso-astm:E1762-95:2013",
              "code": "1.2.840.10065.1.12.1.5"
            }
          ],
          "when": "2023-04-21T07:09:16.859+00:00",
          "who": {
            "reference": "https://erp-dev.zentral.erp.splitdns.ti-dienste.de/Device/1"
          },
          "targetFormat": "application/fhir+json",
          "sigFormat": "application/jose",
          "data": ""
        }
      }
    }
  ]
}
