<Bundle xmlns="http://hl7.org/fhir"><id value="42a530c1-6da6-480a-8191-c3c852a3caf5"/><meta><lastUpdated value="2023-04-21T09:16:03.711+02:00"/><profile value="http://fhir.abda.de/eRezeptAbgabedaten/StructureDefinition/DAV-PKV-PR-ERP-AbgabedatenBundle|1.1"/></meta><identifier><system value="https://gematik.de/fhir/erp/NamingSystem/GEM_ERP_NS_PrescriptionId"/><value value="200.000.001.944.115.45"/></identifier><type value="document"/><timestamp value="2023-04-21T09:16:03.711+02:00"/><entry><fullUrl value="urn:uuid:bf0f4f09-56c2-4437-b91d-0054c1bb1bee"/><resource><Composition xmlns="http://hl7.org/fhir"><id value="bf0f4f09-56c2-4437-b91d-0054c1bb1bee"/><meta><profile value="http://fhir.abda.de/eRezeptAbgabedaten/StructureDefinition/DAV-PKV-PR-ERP-AbgabedatenComposition|1.1"/></meta><status value="final"/><type><coding><system value="http://fhir.abda.de/eRezeptAbgabedaten/CodeSystem/DAV-CS-ERP-CompositionTypes"/><code value="ERezeptAbgabedaten"/></coding></type><date value="2023-04-21T09:16:03+02:00"/><author><reference value="urn:uuid:1419f7d1-ae8b-4f09-891e-7728ce5896fd"/></author><title value="ERezeptAbgabedaten"/><section><title value="Apotheke"/><entry><reference value="urn:uuid:1419f7d1-ae8b-4f09-891e-7728ce5896fd"/></entry></section><section><title value="Abgabeinformationen"/><entry><reference value="urn:uuid:30b4472b-780f-4604-afaa-e8b4fd0e3d15"/></entry></section></Composition></resource></entry><entry><fullUrl value="urn:uuid:1419f7d1-ae8b-4f09-891e-7728ce5896fd"/><resource><Organization xmlns="http://hl7.org/fhir"><id value="1419f7d1-ae8b-4f09-891e-7728ce5896fd"/><meta><profile value="http://fhir.abda.de/eRezeptAbgabedaten/StructureDefinition/DAV-PKV-PR-ERP-Apotheke|1.1"/></meta><identifier><system value="http://fhir.de/sid/arge-ik/iknr"/><value value="132161172"/></identifier><name value="Apotheke Morgan U. Canhandle"/><address><type value="physical"/><line value="Höfer Mühle 98b"><extension url="http://hl7.org/fhir/StructureDefinition/iso21090-ADXP-houseNumber"><valueString value="98b"/></extension><extension url="http://hl7.org/fhir/StructureDefinition/iso21090-ADXP-streetName"><valueString value="Höfer Mühle"/></extension></line><city value="Neu Matildabrunn"/><postalCode value="61954"/><country value="D"/></address></Organization></resource></entry><entry><fullUrl value="urn:uuid:b42310fa-c848-4377-a4ea-575c6b0771c6"/><resource><Invoice xmlns="http://hl7.org/fhir"><id value="b42310fa-c848-4377-a4ea-575c6b0771c6"/><meta><profile value="http://fhir.abda.de/eRezeptAbgabedaten/StructureDefinition/DAV-PKV-PR-ERP-Abrechnungszeilen|1.1"/></meta><status value="issued"/><type><coding><system value="http://fhir.abda.de/eRezeptAbgabedaten/CodeSystem/DAV-CS-ERP-InvoiceTyp"/><code value="Abrechnungszeilen"/></coding></type><lineItem><sequence value="1"/><chargeItemCodeableConcept><coding><system value="http://fhir.de/CodeSystem/ifa/pzn"/><code value="77748053"/></coding></chargeItemCodeableConcept><priceComponent><extension url="http://fhir.abda.de/eRezeptAbgabedaten/StructureDefinition/DAV-EX-ERP-KostenVersicherter"><extension url="Kategorie"><valueCodeableConcept><coding><system value="http://fhir.abda.de/eRezeptAbgabedaten/CodeSystem/DAV-PKV-CS-ERP-KostenVersicherterKategorie"/><code value="0"/></coding></valueCodeableConcept></extension><extension url="Kostenbetrag"><valueMoney><value value="114.36"/><currency value="EUR"/></valueMoney></extension></extension><extension url="http://fhir.abda.de/eRezeptAbgabedaten/StructureDefinition/DAV-EX-ERP-MwStSatz"><valueDecimal value="21.09"/></extension><type value="informational"/><factor value="1"/><amount><value value="200.84"/><currency value="EUR"/></amount></priceComponent></lineItem><totalGross><extension url="http://fhir.abda.de/eRezeptAbgabedaten/StructureDefinition/DAV-EX-ERP-Gesamtzuzahlung"><valueMoney><value value="114.36"/><currency value="EUR"/></valueMoney></extension><value value="200.84"/><currency value="EUR"/></totalGross></Invoice></resource></entry><entry><fullUrl value="urn:uuid:30b4472b-780f-4604-afaa-e8b4fd0e3d15"/><resource><MedicationDispense xmlns="http://hl7.org/fhir"><id value="30b4472b-780f-4604-afaa-e8b4fd0e3d15"/><meta><profile value="http://fhir.abda.de/eRezeptAbgabedaten/StructureDefinition/DAV-PKV-PR-ERP-Abgabeinformationen|1.1"/></meta><extension url="http://fhir.abda.de/eRezeptAbgabedaten/StructureDefinition/DAV-PKV-EX-ERP-AbrechnungsTyp"><valueCodeableConcept><coding><system value="http://fhir.abda.de/eRezeptAbgabedaten/CodeSystem/DAV-PKV-CS-ERP-AbrechnungsTyp"/><code value="1"/></coding></valueCodeableConcept></extension><extension url="http://fhir.abda.de/eRezeptAbgabedaten/StructureDefinition/DAV-EX-ERP-Abrechnungszeilen"><valueReference><reference value="urn:uuid:b42310fa-c848-4377-a4ea-575c6b0771c6"/></valueReference></extension><status value="completed"/><medicationCodeableConcept><coding><system value="http://terminology.hl7.org/CodeSystem/data-absent-reason"/><code value="not-applicable"/></coding></medicationCodeableConcept><performer><actor><reference value="urn:uuid:1419f7d1-ae8b-4f09-891e-7728ce5896fd"/></actor></performer><authorizingPrescription><identifier><system value="https://gematik.de/fhir/erp/NamingSystem/GEM_ERP_NS_PrescriptionId"/><value value="200.000.001.944.115.45"/></identifier></authorizingPrescription><type><coding><system value="http://fhir.abda.de/eRezeptAbgabedaten/CodeSystem/DAV-CS-ERP-MedicationDispenseTyp"/><code value="Abgabeinformationen"/></coding></type><whenHandedOver value="2023-04-21"/></MedicationDispense></resource></entry></Bundle>