<Bundle xmlns="http://hl7.org/fhir">
   <id value="73d73663-dcc7-4143-a407-4a0a2f2c7907"/>
   <type value="collection"/>
   <timestamp value="2023-04-21T07:16:07.043+00:00"/>
   <entry>
      <fullUrl value="https://erp-dev.zentral.erp.splitdns.ti-dienste.de/ChargeItem/200.000.001.944.115.45"/>
      <resource>
         <ChargeItem xmlns="http://hl7.org/fhir">
            <id value="200.000.001.944.115.45"/>
            <meta>
               <profile value="https://gematik.de/fhir/erpchrg/StructureDefinition/GEM_ERPCHRG_PR_ChargeItem|1.0"/>
            </meta>
            <identifier>
               <system value="https://gematik.de/fhir/erp/NamingSystem/GEM_ERP_NS_PrescriptionId"/>
               <value value="200.000.001.944.115.45"/>
            </identifier>
            <status value="billable"/>
            <code>
               <coding>
                  <system value="http://terminology.hl7.org/CodeSystem/data-absent-reason"/>
                  <code value="not-applicable"/>
               </coding>
            </code>
            <subject>
               <identifier>
                  <system value="http://fhir.de/sid/pkv/kvid-10"/>
                  <value value="X110465770"/>
               </identifier>
            </subject>
            <enterer>
               <identifier>
                  <system value="https://gematik.de/fhir/sid/telematik-id"/>
                  <value value="3-SMC-B-Testkarte-883110000116873"/>
               </identifier>
            </enterer>
            <enteredDate value="2023-04-21T07:16:05.601+00:00"/>
            <supportingInformation>
               <reference value="urn:uuid:c833aa1d-0000-0000-0001-000000000000"/>
               <display value="https://fhir.kbv.de/StructureDefinition/KBV_PR_ERP_Bundle"/>
            </supportingInformation>
            <supportingInformation>
               <reference value="urn:uuid:c833aa1d-0000-0000-0004-000000000000"/>
               <display value="http://fhir.abda.de/eRezeptAbgabedaten/StructureDefinition/DAV-PKV-PR-ERP-AbgabedatenBundle"/>
            </supportingInformation>
            <supportingInformation>
               <reference value="urn:uuid:c833aa1d-0000-0000-0003-000000000000"/>
               <display value="https://gematik.de/fhir/erp/StructureDefinition/GEM_ERP_PR_Bundle"/>
            </supportingInformation>
         </ChargeItem>
      </resource>
   </entry>
   <entry>
      <fullUrl value="urn:uuid:c833aa1d-0000-0000-0001-000000000000"/>
      <resource>
         <Bundle xmlns="http://hl7.org/fhir">
            <id value="61fa940a-50df-4ed9-8145-7e5631b0573d"/>
            <meta>
               <lastUpdated value="2023-04-21T09:16:01.172+02:00"/>
               <profile value="https://fhir.kbv.de/StructureDefinition/KBV_PR_ERP_Bundle|1.1.0"/>
            </meta>
            <identifier>
               <system value="https://gematik.de/fhir/erp/NamingSystem/GEM_ERP_NS_PrescriptionId"/>
               <value value="200.000.001.944.115.45"/>
            </identifier>
            <type value="document"/>
            <timestamp value="2023-04-21T09:16:01.172+02:00"/>
            <entry>
               <fullUrl value="https://pvs.gematik.de/fhir/Composition/ee946945-b434-4935-8eaf-7970183ff638"/>
               <resource>
                  <Composition xmlns="http://hl7.org/fhir">
                     <id value="ee946945-b434-4935-8eaf-7970183ff638"/>
                     <meta>
                        <profile value="https://fhir.kbv.de/StructureDefinition/KBV_PR_ERP_Composition|1.1.0"/>
                     </meta>
                     <extension url="https://fhir.kbv.de/StructureDefinition/KBV_EX_FOR_Legal_basis">
                        <valueCoding>
                           <system value="https://fhir.kbv.de/CodeSystem/KBV_CS_SFHIR_KBV_STATUSKENNZEICHEN"/>
                           <code value="00"/>
                        </valueCoding>
                     </extension>
                     <status value="final"/>
                     <type>
                        <coding>
                           <system value="https://fhir.kbv.de/CodeSystem/KBV_CS_SFHIR_KBV_FORMULAR_ART"/>
                           <code value="e16A"/>
                        </coding>
                     </type>
                     <subject>
                        <reference value="Patient/1818d3fc-f616-404b-b149-84de85b44432"/>
                     </subject>
                     <date value="2023-04-21T09:16:01+02:00"/>
                     <author>
                        <reference value="Practitioner/88b759e1-4c18-4568-a10e-ef84a4a8561a"/>
                        <type value="Practitioner"/>
                     </author>
                     <author>
                        <type value="Device"/>
                        <identifier>
                           <system value="https://fhir.kbv.de/NamingSystem/KBV_NS_FOR_Pruefnummer"/>
                           <value value="GEMATIK/410/2109/36/123"/>
                        </identifier>
                     </author>
                     <title value="elektronische Arzneimittelverordnung"/>
                     <custodian>
                        <reference value="Organization/88f4f20e-fac5-49a5-9044-feff246dc7f3"/>
                     </custodian>
                     <section>
                        <code>
                           <coding>
                              <system value="https://fhir.kbv.de/CodeSystem/KBV_CS_ERP_Section_Type"/>
                              <code value="Coverage"/>
                           </coding>
                        </code>
                        <entry>
                           <reference value="Coverage/5c97aa93-e7b9-4d17-96b0-7a0e50ee8535"/>
                        </entry>
                     </section>
                     <section>
                        <code>
                           <coding>
                              <system value="https://fhir.kbv.de/CodeSystem/KBV_CS_ERP_Section_Type"/>
                              <code value="Prescription"/>
                           </coding>
                        </code>
                        <entry>
                           <reference value="MedicationRequest/a62bcb98-591f-4df9-9bb6-44ac1eadc9b3"/>
                        </entry>
                     </section>
                  </Composition>
               </resource>
            </entry>
            <entry>
               <fullUrl value="https://pvs.gematik.de/fhir/MedicationRequest/a62bcb98-591f-4df9-9bb6-44ac1eadc9b3"/>
               <resource>
                  <MedicationRequest xmlns="http://hl7.org/fhir">
                     <id value="a62bcb98-591f-4df9-9bb6-44ac1eadc9b3"/>
                     <meta>
                        <profile value="https://fhir.kbv.de/StructureDefinition/KBV_PR_ERP_Prescription|1.1.0"/>
                     </meta>
                     <extension url="https://fhir.kbv.de/StructureDefinition/KBV_EX_ERP_BVG">
                        <valueBoolean value="false"/>
                     </extension>
                     <extension url="https://fhir.kbv.de/StructureDefinition/KBV_EX_ERP_EmergencyServicesFee">
                        <valueBoolean value="false"/>
                     </extension>
                     <extension url="https://fhir.kbv.de/StructureDefinition/KBV_EX_ERP_Multiple_Prescription">
                        <extension url="Kennzeichen">
                           <valueBoolean value="false"/>
                        </extension>
                     </extension>
                     <extension url="https://fhir.kbv.de/StructureDefinition/KBV_EX_FOR_StatusCoPayment">
                        <valueCoding>
                           <system value="https://fhir.kbv.de/CodeSystem/KBV_CS_FOR_StatusCoPayment"/>
                           <code value="0"/>
                        </valueCoding>
                     </extension>
                     <status value="active"/>
                     <intent value="order"/>
                     <medicationReference>
                        <reference value="Medication/34f21c09-e3a4-4909-9b1a-50517b52f86c"/>
                     </medicationReference>
                     <subject>
                        <reference value="Patient/1818d3fc-f616-404b-b149-84de85b44432"/>
                     </subject>
                     <authoredOn value="2023-04-21"/>
                     <requester>
                        <reference value="Practitioner/88b759e1-4c18-4568-a10e-ef84a4a8561a"/>
                     </requester>
                     <insurance>
                        <reference value="Coverage/5c97aa93-e7b9-4d17-96b0-7a0e50ee8535"/>
                     </insurance>
                     <dosageInstruction>
                        <extension url="https://fhir.kbv.de/StructureDefinition/KBV_EX_ERP_DosageFlag">
                           <valueBoolean value="true"/>
                        </extension>
                        <text value="1-0-0-0"/>
                     </dosageInstruction>
                     <dispenseRequest>
                        <quantity>
                           <value value="1"/>
                           <system value="http://unitsofmeasure.org"/>
                           <code value="{Package}"/>
                        </quantity>
                     </dispenseRequest>
                     <substitution>
                        <allowedBoolean value="true"/>
                     </substitution>
                  </MedicationRequest>
               </resource>
            </entry>
            <entry>
               <fullUrl value="https://pvs.gematik.de/fhir/Medication/34f21c09-e3a4-4909-9b1a-50517b52f86c"/>
               <resource>
                  <Medication xmlns="http://hl7.org/fhir">
                     <id value="34f21c09-e3a4-4909-9b1a-50517b52f86c"/>
                     <meta>
                        <profile value="https://fhir.kbv.de/StructureDefinition/KBV_PR_ERP_Medication_PZN|1.1.0"/>
                     </meta>
                     <extension url="https://fhir.kbv.de/StructureDefinition/KBV_EX_Base_Medication_Type">
                        <valueCodeableConcept>
                           <coding>
                              <system value="http://snomed.info/sct"/>
                              <version value="http://snomed.info/sct/900000000000207008/version/20220331"/>
                              <code value="763158003"/>
                              <display value="Medicinal product (product)"/>
                           </coding>
                        </valueCodeableConcept>
                     </extension>
                     <extension url="https://fhir.kbv.de/StructureDefinition/KBV_EX_ERP_Medication_Category">
                        <valueCoding>
                           <system value="https://fhir.kbv.de/CodeSystem/KBV_CS_ERP_Medication_Category"/>
                           <code value="00"/>
                        </valueCoding>
                     </extension>
                     <extension url="https://fhir.kbv.de/StructureDefinition/KBV_EX_ERP_Medication_Vaccine">
                        <valueBoolean value="false"/>
                     </extension>
                     <extension url="http://fhir.de/StructureDefinition/normgroesse">
                        <valueCode value="NB"/>
                     </extension>
                     <code>
                        <coding>
                           <system value="http://fhir.de/CodeSystem/ifa/pzn"/>
                           <code value="53358915"/>
                        </coding>
                        <text value="Schmerzmittel"/>
                     </code>
                     <form>
                        <coding>
                           <system value="https://fhir.kbv.de/CodeSystem/KBV_CS_SFHIR_KBV_DARREICHUNGSFORM"/>
                           <code value="TAB"/>
                        </coding>
                     </form>
                     <amount>
                        <numerator>
                           <extension url="https://fhir.kbv.de/StructureDefinition/KBV_EX_ERP_Medication_PackagingSize">
                              <valueString value="1"/>
                           </extension>
                           <unit value="Stk"/>
                        </numerator>
                        <denominator>
                           <value value="1"/>
                        </denominator>
                     </amount>
                  </Medication>
               </resource>
            </entry>
            <entry>
               <fullUrl value="https://pvs.gematik.de/fhir/Patient/1818d3fc-f616-404b-b149-84de85b44432"/>
               <resource>
                  <Patient xmlns="http://hl7.org/fhir">
                     <id value="1818d3fc-f616-404b-b149-84de85b44432"/>
                     <meta>
                        <profile value="https://fhir.kbv.de/StructureDefinition/KBV_PR_FOR_Patient|1.1.0"/>
                     </meta>
                     <identifier>
                        <type>
                           <coding>
                              <system value="http://fhir.de/CodeSystem/identifier-type-de-basis"/>
                              <code value="PKV"/>
                           </coding>
                        </type>
                        <system value="http://fhir.de/sid/pkv/kvid-10"/>
                        <value value="X110465770"/>
                     </identifier>
                     <name>
                        <use value="official"/>
                        <family value="Angermänn">
                           <extension url="http://hl7.org/fhir/StructureDefinition/humanname-own-name">
                              <valueString value="Angermänn"/>
                           </extension>
                        </family>
                        <given value="Günther"/>
                     </name>
                     <birthDate value="1995-02-22"/>
                     <address>
                        <type value="both"/>
                        <line value="Königsberger Platz 96">
                           <extension url="http://hl7.org/fhir/StructureDefinition/iso21090-ADXP-houseNumber">
                              <valueString value="96"/>
                           </extension>
                           <extension url="http://hl7.org/fhir/StructureDefinition/iso21090-ADXP-streetName">
                              <valueString value="Königsberger Platz"/>
                           </extension>
                        </line>
                        <city value="Alt Raphael"/>
                        <postalCode value="46501"/>
                        <country value="D"/>
                     </address>
                  </Patient>
               </resource>
            </entry>
            <entry>
               <fullUrl value="https://pvs.gematik.de/fhir/Organization/88f4f20e-fac5-49a5-9044-feff246dc7f3"/>
               <resource>
                  <Organization xmlns="http://hl7.org/fhir">
                     <id value="88f4f20e-fac5-49a5-9044-feff246dc7f3"/>
                     <meta>
                        <profile value="https://fhir.kbv.de/StructureDefinition/KBV_PR_FOR_Organization|1.1.0"/>
                     </meta>
                     <identifier>
                        <type>
                           <coding>
                              <system value="http://terminology.hl7.org/CodeSystem/v2-0203"/>
                              <code value="BSNR"/>
                           </coding>
                        </type>
                        <system value="https://fhir.kbv.de/NamingSystem/KBV_NS_Base_BSNR"/>
                        <value value="208010928"/>
                     </identifier>
                     <name value="Arztpraxis Schraßer"/>
                     <telecom>
                        <system value="phone"/>
                        <value value="+49-006-2659772"/>
                     </telecom>
                     <telecom>
                        <system value="email"/>
                        <value value="friederike.hansen@schaffarzik.org"/>
                     </telecom>
                     <address>
                        <type value="both"/>
                        <line value="Prießnitzstr. 0">
                           <extension url="http://hl7.org/fhir/StructureDefinition/iso21090-ADXP-houseNumber">
                              <valueString value="0"/>
                           </extension>
                           <extension url="http://hl7.org/fhir/StructureDefinition/iso21090-ADXP-streetName">
                              <valueString value="Prießnitzstr."/>
                           </extension>
                        </line>
                        <city value="Groß Ismaelgrün"/>
                        <postalCode value="69782"/>
                        <country value="D"/>
                     </address>
                  </Organization>
               </resource>
            </entry>
            <entry>
               <fullUrl value="https://pvs.gematik.de/fhir/Coverage/5c97aa93-e7b9-4d17-96b0-7a0e50ee8535"/>
               <resource>
                  <Coverage xmlns="http://hl7.org/fhir">
                     <id value="5c97aa93-e7b9-4d17-96b0-7a0e50ee8535"/>
                     <meta>
                        <profile value="https://fhir.kbv.de/StructureDefinition/KBV_PR_FOR_Coverage|1.1.0"/>
                     </meta>
                     <extension url="http://fhir.de/StructureDefinition/gkv/besondere-personengruppe">
                        <valueCoding>
                           <system value="https://fhir.kbv.de/CodeSystem/KBV_CS_SFHIR_KBV_PERSONENGRUPPE"/>
                           <code value="00"/>
                        </valueCoding>
                     </extension>
                     <extension url="http://fhir.de/StructureDefinition/gkv/dmp-kennzeichen">
                        <valueCoding>
                           <system value="https://fhir.kbv.de/CodeSystem/KBV_CS_SFHIR_KBV_DMP"/>
                           <code value="00"/>
                        </valueCoding>
                     </extension>
                     <extension url="http://fhir.de/StructureDefinition/gkv/wop">
                        <valueCoding>
                           <system value="https://fhir.kbv.de/CodeSystem/KBV_CS_SFHIR_ITA_WOP"/>
                           <code value="50"/>
                        </valueCoding>
                     </extension>
                     <extension url="http://fhir.de/StructureDefinition/gkv/versichertenart">
                        <valueCoding>
                           <system value="https://fhir.kbv.de/CodeSystem/KBV_CS_SFHIR_KBV_VERSICHERTENSTATUS"/>
                           <code value="1"/>
                        </valueCoding>
                     </extension>
                     <status value="active"/>
                     <type>
                        <coding>
                           <system value="http://fhir.de/CodeSystem/versicherungsart-de-basis"/>
                           <code value="PKV"/>
                        </coding>
                     </type>
                     <beneficiary>
                        <reference value="Patient/a4cae324-fed9-43cc-b884-1bedb0b6280f"/>
                     </beneficiary>
                     <payor>
                        <identifier>
                           <system value="http://fhir.de/sid/arge-ik/iknr"/>
                           <value value="040723408"/>
                        </identifier>
                        <display value="Farmer Baden-Württemberg"/>
                     </payor>
                  </Coverage>
               </resource>
            </entry>
            <entry>
               <fullUrl value="https://pvs.gematik.de/fhir/Practitioner/88b759e1-4c18-4568-a10e-ef84a4a8561a"/>
               <resource>
                  <Practitioner xmlns="http://hl7.org/fhir">
                     <id value="88b759e1-4c18-4568-a10e-ef84a4a8561a"/>
                     <meta>
                        <profile value="https://fhir.kbv.de/StructureDefinition/KBV_PR_FOR_Practitioner|1.1.0"/>
                     </meta>
                     <identifier>
                        <type>
                           <coding>
                              <system value="http://terminology.hl7.org/CodeSystem/v2-0203"/>
                              <code value="LANR"/>
                           </coding>
                        </type>
                        <system value="https://fhir.kbv.de/NamingSystem/KBV_NS_Base_ANR"/>
                        <value value="874647612"/>
                     </identifier>
                     <name>
                        <use value="official"/>
                        <family value="Schraßer">
                           <extension url="http://hl7.org/fhir/StructureDefinition/humanname-own-name">
                              <valueString value="Schraßer"/>
                           </extension>
                        </family>
                        <given value="Dr."/>
                        <prefix value="Dr.">
                           <extension url="http://hl7.org/fhir/StructureDefinition/iso21090-EN-qualifier">
                              <valueCode value="AC"/>
                           </extension>
                        </prefix>
                     </name>
                     <qualification>
                        <code>
                           <coding>
                              <system value="https://fhir.kbv.de/CodeSystem/KBV_CS_FOR_Qualification_Type"/>
                              <code value="00"/>
                           </coding>
                        </code>
                     </qualification>
                     <qualification>
                        <code>
                           <coding>
                              <system value="https://fhir.kbv.de/CodeSystem/KBV_CS_FOR_Berufsbezeichnung"/>
                              <code value="Berufsbezeichnung"/>
                           </coding>
                           <text value="Super-Facharzt für alles Mögliche"/>
                        </code>
                     </qualification>
                  </Practitioner>
               </resource>
            </entry>
            <signature>
               <type>
                  <system value="urn:iso-astm:E1762-95:2013"/>
                  <code value="1.2.840.10065.1.12.1.1"/>
               </type>
               <when value="2023-04-21T07:16:01.000+00:00"/>
               <who>
                  <display value="Arzt"/>
               </who>
               <sigFormat value="application/pkcs7-mime"/>
               <data value=""/>
            </signature>
         </Bundle>
      </resource>
   </entry>
   <entry>
      <fullUrl value="urn:uuid:c833aa1d-0000-0000-0004-000000000000"/>
      <resource>
         <Bundle xmlns="http://hl7.org/fhir">
            <id value="42a530c1-6da6-480a-8191-c3c852a3caf5"/>
            <meta>
               <lastUpdated value="2023-04-21T09:16:03.711+02:00"/>
               <profile value="http://fhir.abda.de/eRezeptAbgabedaten/StructureDefinition/DAV-PKV-PR-ERP-AbgabedatenBundle|1.1"/>
            </meta>
            <identifier>
               <system value="https://gematik.de/fhir/erp/NamingSystem/GEM_ERP_NS_PrescriptionId"/>
               <value value="200.000.001.944.115.45"/>
            </identifier>
            <type value="document"/>
            <timestamp value="2023-04-21T09:16:03.711+02:00"/>
            <entry>
               <fullUrl value="urn:uuid:bf0f4f09-56c2-4437-b91d-0054c1bb1bee"/>
               <resource>
                  <Composition xmlns="http://hl7.org/fhir">
                     <meta>
                        <profile value="http://fhir.abda.de/eRezeptAbgabedaten/StructureDefinition/DAV-PKV-PR-ERP-AbgabedatenComposition|1.1"/>
                     </meta>
                     <status value="final"/>
                     <type>
                        <coding>
                           <system value="http://fhir.abda.de/eRezeptAbgabedaten/CodeSystem/DAV-CS-ERP-CompositionTypes"/>
                           <code value="ERezeptAbgabedaten"/>
                        </coding>
                     </type>
                     <date value="2023-04-21T09:16:03+02:00"/>
                     <author>
                        <reference value="urn:uuid:1419f7d1-ae8b-4f09-891e-7728ce5896fd"/>
                     </author>
                     <title value="ERezeptAbgabedaten"/>
                     <section>
                        <title value="Apotheke"/>
                        <entry>
                           <reference value="urn:uuid:1419f7d1-ae8b-4f09-891e-7728ce5896fd"/>
                        </entry>
                     </section>
                     <section>
                        <title value="Abgabeinformationen"/>
                        <entry>
                           <reference value="urn:uuid:30b4472b-780f-4604-afaa-e8b4fd0e3d15"/>
                        </entry>
                     </section>
                  </Composition>
               </resource>
            </entry>
            <entry>
               <fullUrl value="urn:uuid:1419f7d1-ae8b-4f09-891e-7728ce5896fd"/>
               <resource>
                  <Organization xmlns="http://hl7.org/fhir">
                     <meta>
                        <profile value="http://fhir.abda.de/eRezeptAbgabedaten/StructureDefinition/DAV-PKV-PR-ERP-Apotheke|1.1"/>
                     </meta>
                     <identifier>
                        <system value="http://fhir.de/sid/arge-ik/iknr"/>
                        <value value="132161172"/>
                     </identifier>
                     <name value="Apotheke Morgan U. Canhandle"/>
                     <address>
                        <type value="physical"/>
                        <line value="Höfer Mühle 98b">
                           <extension url="http://hl7.org/fhir/StructureDefinition/iso21090-ADXP-houseNumber">
                              <valueString value="98b"/>
                           </extension>
                           <extension url="http://hl7.org/fhir/StructureDefinition/iso21090-ADXP-streetName">
                              <valueString value="Höfer Mühle"/>
                           </extension>
                        </line>
                        <city value="Neu Matildabrunn"/>
                        <postalCode value="61954"/>
                        <country value="D"/>
                     </address>
                  </Organization>
               </resource>
            </entry>
            <entry>
               <fullUrl value="urn:uuid:b42310fa-c848-4377-a4ea-575c6b0771c6"/>
               <resource>
                  <Invoice xmlns="http://hl7.org/fhir">
                     <meta>
                        <profile value="http://fhir.abda.de/eRezeptAbgabedaten/StructureDefinition/DAV-PKV-PR-ERP-Abrechnungszeilen|1.1"/>
                     </meta>
                     <status value="issued"/>
                     <type>
                        <coding>
                           <system value="http://fhir.abda.de/eRezeptAbgabedaten/CodeSystem/DAV-CS-ERP-InvoiceTyp"/>
                           <code value="Abrechnungszeilen"/>
                        </coding>
                     </type>
                     <lineItem>
                        <sequence value="1"/>
                        <chargeItemCodeableConcept>
                           <coding>
                              <system value="http://fhir.de/CodeSystem/ifa/pzn"/>
                              <code value="77748053"/>
                           </coding>
                        </chargeItemCodeableConcept>
                        <priceComponent>
                           <extension url="http://fhir.abda.de/eRezeptAbgabedaten/StructureDefinition/DAV-EX-ERP-KostenVersicherter">
                              <extension url="Kategorie">
                                 <valueCodeableConcept>
                                    <coding>
                                       <system value="http://fhir.abda.de/eRezeptAbgabedaten/CodeSystem/DAV-PKV-CS-ERP-KostenVersicherterKategorie"/>
                                       <code value="0"/>
                                    </coding>
                                 </valueCodeableConcept>
                              </extension>
                              <extension url="Kostenbetrag">
                                 <valueMoney>
                                    <value value="114.36"/>
                                    <currency value="EUR"/>
                                 </valueMoney>
                              </extension>
                           </extension>
                           <extension url="http://fhir.abda.de/eRezeptAbgabedaten/StructureDefinition/DAV-EX-ERP-MwStSatz">
                              <valueDecimal value="21.09"/>
                           </extension>
                           <type value="informational"/>
                           <factor value="1"/>
                           <amount>
                              <value value="200.84"/>
                              <currency value="EUR"/>
                           </amount>
                        </priceComponent>
                     </lineItem>
                     <totalGross>
                        <extension url="http://fhir.abda.de/eRezeptAbgabedaten/StructureDefinition/DAV-EX-ERP-Gesamtzuzahlung">
                           <valueMoney>
                              <value value="114.36"/>
                              <currency value="EUR"/>
                           </valueMoney>
                        </extension>
                        <value value="200.84"/>
                        <currency value="EUR"/>
                     </totalGross>
                  </Invoice>
               </resource>
            </entry>
            <entry>
               <fullUrl value="urn:uuid:30b4472b-780f-4604-afaa-e8b4fd0e3d15"/>
               <resource>
                  <MedicationDispense xmlns="http://hl7.org/fhir">
                     <meta>
                        <profile value="http://fhir.abda.de/eRezeptAbgabedaten/StructureDefinition/DAV-PKV-PR-ERP-Abgabeinformationen|1.1"/>
                     </meta>
                     <extension url="http://fhir.abda.de/eRezeptAbgabedaten/StructureDefinition/DAV-PKV-EX-ERP-AbrechnungsTyp">
                        <valueCodeableConcept>
                           <coding>
                              <system value="http://fhir.abda.de/eRezeptAbgabedaten/CodeSystem/DAV-PKV-CS-ERP-AbrechnungsTyp"/>
                              <code value="1"/>
                           </coding>
                        </valueCodeableConcept>
                     </extension>
                     <extension url="http://fhir.abda.de/eRezeptAbgabedaten/StructureDefinition/DAV-EX-ERP-Abrechnungszeilen">
                        <valueReference>
                           <reference value="urn:uuid:b42310fa-c848-4377-a4ea-575c6b0771c6"/>
                        </valueReference>
                     </extension>
                     <status value="completed"/>
                     <medicationCodeableConcept>
                        <coding>
                           <system value="http://terminology.hl7.org/CodeSystem/data-absent-reason"/>
                           <code value="not-applicable"/>
                        </coding>
                     </medicationCodeableConcept>
                     <performer>
                        <actor>
                           <reference value="urn:uuid:1419f7d1-ae8b-4f09-891e-7728ce5896fd"/>
                        </actor>
                     </performer>
                     <authorizingPrescription>
                        <identifier>
                           <system value="https://gematik.de/fhir/erp/NamingSystem/GEM_ERP_NS_PrescriptionId"/>
                           <value value="200.000.001.944.115.45"/>
                        </identifier>
                     </authorizingPrescription>
                     <type>
                        <coding>
                           <system value="http://fhir.abda.de/eRezeptAbgabedaten/CodeSystem/DAV-CS-ERP-MedicationDispenseTyp"/>
                           <code value="Abgabeinformationen"/>
                        </coding>
                     </type>
                     <whenHandedOver value="2023-04-21"/>
                  </MedicationDispense>
               </resource>
            </entry>
            <signature>
               <type>
                  <system value="urn:iso-astm:E1762-95:2013"/>
                  <code value="1.2.840.10065.1.12.1.1"/>
               </type>
               <when value="2023-04-21T07:16:04.000+00:00"/>
               <who>
                  <display value="Apotheke"/>
               </who>
               <sigFormat value="application/pkcs7-mime"/>
               <data value=""/>
            </signature>
         </Bundle>
      </resource>
   </entry>
</Bundle>