<Bundle xmlns="http://hl7.org/fhir">
   <id value="d1e48000-0000-0000-0003-000000000000"/>
   <meta>
      <profile value="https://gematik.de/fhir/erp/StructureDefinition/GEM_ERP_PR_Bundle|1.4"/>
   </meta>
   <identifier>
      <system value="https://gematik.de/fhir/erp/NamingSystem/GEM_ERP_NS_PrescriptionId"/>
      <value value="209.000.000.032.996.31"/>
   </identifier>
   <type value="document"/>
   <timestamp value="2024-02-08T18:21:29.138+00:00"/>
   <link>
      <relation value="self"/>
      <url value="https://erp-ref.zentral.erp.splitdns.ti-dienste.de/Task/209.000.000.032.996.31/$close/"/>
   </link>
   <entry>
      <fullUrl value="urn:uuid:6243ff4e-374e-4795-97f7-725be8b09b1b"/>
      <resource>
         <Composition xmlns="http://hl7.org/fhir">
            <meta>
               <profile value="https://gematik.de/fhir/erp/StructureDefinition/GEM_ERP_PR_Composition|1.4"/>
            </meta>
            <extension url="https://gematik.de/fhir/erp/StructureDefinition/GEM_ERP_EX_Beneficiary">
               <valueIdentifier>
                  <system value="https://gematik.de/fhir/sid/telematik-id"/>
                  <value value="3-SMC-B-Testkarte-883110000116873"/>
               </valueIdentifier>
            </extension>
            <status value="final"/>
            <type>
               <coding>
                  <system value="https://gematik.de/fhir/erp/CodeSystem/GEM_ERP_CS_DocumentType"/>
                  <code value="3"/>
                  <display value="Receipt"/>
               </coding>
            </type>
            <date value="2024-02-08T18:21:29.137+00:00"/>
            <author>
               <reference value="urn:uuid:8638fc2a-55e0-4d06-8385-ad4ccddb0bcc"/>
            </author>
            <title value="Quittung"/>
            <event>
               <period>
                  <start value="2024-02-08T18:21:27.610+00:00"/>
                  <end value="2024-02-08T18:21:29.137+00:00"/>
               </period>
            </event>
            <section>
               <entry>
                  <reference value="urn:uuid:5bdfd12e-1ed2-4104-994c-26b8f33a00e7"/>
               </entry>
            </section>
         </Composition>
      </resource>
   </entry>
   <entry>
      <fullUrl value="urn:uuid:8638fc2a-55e0-4d06-8385-ad4ccddb0bcc"/>
      <resource>
         <Device xmlns="http://hl7.org/fhir">
            <id value="1"/>
            <meta>
               <profile value="https://gematik.de/fhir/erp/StructureDefinition/GEM_ERP_PR_Device|1.4"/>
            </meta>
            <status value="active"/>
            <serialNumber value="1.13.0"/>
            <deviceName>
               <name value="E-Rezept Fachdienst"/>
               <type value="user-friendly-name"/>
            </deviceName>
            <version>
               <value value="1.13.0"/>
            </version>
            <contact>
               <system value="email"/>
               <value value="betrieb@gematik.de"/>
            </contact>
         </Device>
      </resource>
   </entry>
   <entry>
      <fullUrl value="urn:uuid:5bdfd12e-1ed2-4104-994c-26b8f33a00e7"/>
      <resource>
         <Binary xmlns="http://hl7.org/fhir">
            <meta>
               <profile value="https://gematik.de/fhir/erp/StructureDefinition/GEM_ERP_PR_Digest|1.4"/>
            </meta>
            <contentType value="application/octet-stream"/>
            <data value="iV4Sa0H0LFc5adsGPrdof97GoFJ4S8X6b8nIL771J6s="/>
         </Binary>
      </resource>
   </entry>
   <signature>
      <type>
         <system value="urn:iso-astm:E1762-95:2013"/>
         <code value="1.2.840.10065.1.12.1.1"/>
      </type>
      <when value="2024-02-08T18:21:29.140+00:00"/>
      <who>
         <reference value="urn:uuid:8638fc2a-55e0-4d06-8385-ad4ccddb0bcc"/>
      </who>
      <sigFormat value="application/pkcs7-mime"/>
      <data value=""/>
   </signature>
</Bundle>