<ChargeItem xmlns="http://hl7.org/fhir">
   <id value="209.000.000.032.996.31"/>
   <meta>
      <profile value="https://gematik.de/fhir/erpchrg/StructureDefinition/GEM_ERPCHRG_PR_ChargeItem|1.0"/>
   </meta>
   <contained>
      <Binary xmlns="http://hl7.org/fhir">
         <id value="09cf018f-fffd-4ee1-9f9b-056a565efaa7"/>
         <meta>
            <profile value="https://gematik.de/fhir/erp/StructureDefinition/GEM_ERP_PR_Binary|1.4"/>
         </meta>
         <contentType value="application/pkcs7-mime"/>
         <data value=""/>
      </Binary>
   </contained>
   <identifier>
      <system value="https://gematik.de/fhir/erp/NamingSystem/GEM_ERP_NS_PrescriptionId"/>
      <value value="209.000.000.032.996.31"/>
   </identifier>
   <status value="billable"/>
   <code>
      <coding>
         <system value="http://terminology.hl7.org/CodeSystem/data-absent-reason"/>
         <code value="not-applicable"/>
      </coding>
   </code>
   <subject>
      <identifier>
         <system value="http://fhir.de/sid/pkv/kvid-10"/>
         <value value="X110465770"/>
         <assigner>
            <display value="KOA Bayern"/>
         </assigner>
      </identifier>
   </subject>
   <enterer>
      <identifier>
         <system value="https://gematik.de/fhir/sid/telematik-id"/>
         <value value="3-SMC-B-Testkarte-883110000116873"/>
      </identifier>
   </enterer>
   <enteredDate value="2024-02-08T19:21:30+01:00"/>
   <supportingInformation>
      <reference value="Bundle/209.000.000.032.996.31"/>
      <display value="https://fhir.kbv.de/StructureDefinition/KBV_PR_ERP_Bundle"/>
   </supportingInformation>
   <supportingInformation>
      <reference value="#09cf018f-fffd-4ee1-9f9b-056a565efaa7"/>
      <display value="Binary"/>
   </supportingInformation>
</ChargeItem>