{
  "resourceType": "Parameters",
  "id": "01dee893-07b0-4e39-9083-80c4aa91596f",
  "meta": {
    "profile": [ "https://gematik.de/fhir/epa-medication/StructureDefinition/epa-op-provide-dispensation-input-parameters" ]
  },
  "parameter": [ {
    "name": "dispensation",
    "part": [ {
      "name": "medicationDispense",
      "resource": {
        "resourceType": "MedicationDispense",
        "id": "5175ab86-2c3c-4c3e-b9af-d8ed57bca482",
        "meta": {
          "profile": [ "https://gematik.de/fhir/epa-medication/StructureDefinition/epa-medication-dispense" ]
        },
        "identifier": [ {
          "system": "https://gematik.de/fhir/erp/NamingSystem/GEM_ERP_NS_PrescriptionId",
          "value": "160.100.000.000.021.76"
        } ],
        "status": "completed",
        "category": {
          "coding": [ {
            "system": "https://gematik.de/fhir/epa-medication/CodeSystem/EPAMedicationDispenseCategoryCS",
            "code": "prescription",
            "display": "prescription dispense"
          } ]
        },
        "medicationReference": {
          "reference": "Medication/3804f5b2-2c7c-4b1f-93c7-ad8fdefe4eaf"
        },
        "subject": {
          "identifier": {
            "system": "http://fhir.de/sid/gkv/kvid-10",
            "value": "K030182229"
          }
        },
        "performer": [ {
          "actor": {
            "reference": "Organization/9675d049-b16d-40ef-b673-71b13166ed30"
          }
        } ],
        "whenHandedOver": "2024-11-27",
        "dosageInstruction": [ {
          "text": "1-0-1-0"
        } ]
      }
    }, {
      "name": "medication",
      "resource": {
        "resourceType": "Medication",
        "id": "3804f5b2-2c7c-4b1f-93c7-ad8fdefe4eaf",
        "meta": {
          "profile": [ "https://gematik.de/fhir/epa-medication/StructureDefinition/epa-medication" ]
        },
        "extension": [ {
          "url": "https://gematik.de/fhir/epa-medication/StructureDefinition/drug-category-extension",
          "valueCoding": {
            "system": "https://gematik.de/fhir/epa-medication/CodeSystem/epa-drug-category-cs",
            "code": "00"
          }
        }, {
          "url": "https://gematik.de/fhir/epa-medication/StructureDefinition/medication-id-vaccine-extension",
          "valueBoolean": false
        }, {
          "url": "http://fhir.de/StructureDefinition/normgroesse",
          "valueCode": "N1"
        } ],
        "code": {
          "coding": [ {
            "system": "http://fhir.de/CodeSystem/ifa/pzn",
            "code": "12481766"
          } ],
          "text": "Diclofenac Natrium Micro Labs 75 mg Reta, 20 St"
        },
        "form": {
          "coding": [ {
            "system": "https://fhir.kbv.de/CodeSystem/KBV_CS_SFHIR_KBV_DARREICHUNGSFORM",
            "code": "RET"
          } ]
        },
        "amount": {
          "numerator": {
            "extension": [ {
              "url": "https://gematik.de/fhir/epa-medication/StructureDefinition/medication-packaging-size-extension",
              "valueString": "20"
            } ],
            "unit": "Tabletten"
          },
          "denominator": {
            "value": 1
          }
        },
        "batch": {
          "lotNumber": "A123456789-1",
          "expirationDate": "2025-12-31"
        }
      }
    } ]
  }, {
    "name": "performerInstitution",
    "resource": {
      "resourceType": "Organization",
      "id": "9675d049-b16d-40ef-b673-71b13166ed30",
      "meta": {
        "profile": [ "https://gematik.de/fhir/directory/StructureDefinition/OrganizationDirectory" ],
        "tag": [ {
          "system": "https://gematik.de/fhir/directory/CodeSystem/Origin",
          "code": "ldap"
        } ]
      },
      "identifier": [ {
        "system": "https://gematik.de/fhir/sid/telematik-id",
        "value": "3-07.2.1234560000.10.789"
      } ],
      "type": [ {
        "coding": [ {
          "system": "https://gematik.de/fhir/directory/CodeSystem/OrganizationProfessionOID",
          "code": "1.2.276.0.76.4.58"
        } ]
      } ],
      "name": "Pearl E. Whites"
    }
  } ]
}