<Parameters xmlns="http://hl7.org/fhir">
   <id value="01dee893-07b0-4e39-9083-80c4aa91596f"/>
   <meta>
      <profile value="https://gematik.de/fhir/epa-medication/StructureDefinition/epa-op-provide-dispensation-input-parameters"/>
   </meta>
   <parameter>
      <name value="dispensation"/>
      <part>
         <name value="medicationDispense"/>
         <resource>
            <MedicationDispense xmlns="http://hl7.org/fhir">
               <id value="5175ab86-2c3c-4c3e-b9af-d8ed57bca482"/>
               <meta>
                  <profile value="https://gematik.de/fhir/epa-medication/StructureDefinition/epa-medication-dispense"/>
               </meta>
               <identifier>
                  <system value="https://gematik.de/fhir/erp/NamingSystem/GEM_ERP_NS_PrescriptionId"/>
                  <value value="160.100.000.000.021.76"/>
               </identifier>
               <status value="completed"/>
               <category>
                  <coding>
                     <system value="https://gematik.de/fhir/epa-medication/CodeSystem/EPAMedicationDispenseCategoryCS"/>
                     <code value="prescription"/>
                     <display value="prescription dispense"/>
                  </coding>
               </category>
               <medicationReference>
                  <reference value="Medication/3804f5b2-2c7c-4b1f-93c7-ad8fdefe4eaf"/>
               </medicationReference>
               <subject>
                  <identifier>
                     <system value="http://fhir.de/sid/gkv/kvid-10"/>
                     <value value="K030182229"/>
                  </identifier>
               </subject>
               <performer>
                  <actor>
                     <reference value="Organization/9675d049-b16d-40ef-b673-71b13166ed30"/>
                  </actor>
               </performer>
               <whenHandedOver value="2024-11-27"/>
               <dosageInstruction>
                  <text value="1-0-1-0"/>
               </dosageInstruction>
            </MedicationDispense>
         </resource>
      </part>
      <part>
         <name value="medication"/>
         <resource>
            <Medication xmlns="http://hl7.org/fhir">
               <id value="3804f5b2-2c7c-4b1f-93c7-ad8fdefe4eaf"/>
               <meta>
                  <profile value="https://gematik.de/fhir/epa-medication/StructureDefinition/epa-medication"/>
               </meta>
               <extension url="https://gematik.de/fhir/epa-medication/StructureDefinition/drug-category-extension">
                  <valueCoding>
                     <system value="https://gematik.de/fhir/epa-medication/CodeSystem/epa-drug-category-cs"/>
                     <code value="00"/>
                  </valueCoding>
               </extension>
               <extension url="https://gematik.de/fhir/epa-medication/StructureDefinition/medication-id-vaccine-extension">
                  <valueBoolean value="false"/>
               </extension>
               <extension url="http://fhir.de/StructureDefinition/normgroesse">
                  <valueCode value="N1"/>
               </extension>
               <code>
                  <coding>
                     <system value="http://fhir.de/CodeSystem/ifa/pzn"/>
                     <code value="12481766"/>
                  </coding>
                  <text value="Diclofenac Natrium Micro Labs 75 mg Reta, 20 St"/>
               </code>
               <form>
                  <coding>
                     <system value="https://fhir.kbv.de/CodeSystem/KBV_CS_SFHIR_KBV_DARREICHUNGSFORM"/>
                     <code value="RET"/>
                  </coding>
               </form>
               <amount>
                  <numerator>
                     <extension url="https://gematik.de/fhir/epa-medication/StructureDefinition/medication-packaging-size-extension">
                        <valueString value="20"/>
                     </extension>
                     <unit value="Tabletten"/>
                  </numerator>
                  <denominator>
                     <value value="1"/>
                  </denominator>
               </amount>
               <batch>
                  <lotNumber value="A123456789-1"/>
                  <expirationDate value="2025-12-31"/>
               </batch>
            </Medication>
         </resource>
      </part>
   </parameter>
   <parameter>
      <name value="performerInstitution"/>
      <resource>
         <Organization xmlns="http://hl7.org/fhir">
            <id value="9675d049-b16d-40ef-b673-71b13166ed30"/>
            <meta>
               <profile value="https://gematik.de/fhir/directory/StructureDefinition/OrganizationDirectory"/>
               <tag>
                  <system value="https://gematik.de/fhir/directory/CodeSystem/Origin"/>
                  <code value="ldap"/>
               </tag>
            </meta>
            <identifier>
               <system value="https://gematik.de/fhir/sid/telematik-id"/>
               <value value="3-07.2.1234560000.10.789"/>
            </identifier>
            <type>
               <coding>
                  <system value="https://gematik.de/fhir/directory/CodeSystem/OrganizationProfessionOID"/>
                  <code value="1.2.276.0.76.4.58"/>
               </coding>
            </type>
            <name value="Pearl E. Whites"/>
         </Organization>
      </resource>
   </parameter>
</Parameters>