<Bundle xmlns="http://hl7.org/fhir"><id value="9ce9e8cd-4f0f-476d-b77e-0b8d31fd42cf"/><meta><lastUpdated value="2024-02-08T19:19:55.551+01:00"/><profile value="http://fhir.abda.de/eRezeptAbgabedaten/StructureDefinition/DAV-PKV-PR-ERP-AbgabedatenBundle|1.2"/></meta><identifier><system value="https://gematik.de/fhir/erp/NamingSystem/GEM_ERP_NS_PrescriptionId"/><value value="200.000.002.096.551.92"/></identifier><type value="document"/><timestamp value="2024-02-08T19:19:55.551+01:00"/><entry><fullUrl value="urn:uuid:1f2803a3-48ac-42da-b2eb-e04a667f571f"/><resource><Composition xmlns="http://hl7.org/fhir"><id value="1f2803a3-48ac-42da-b2eb-e04a667f571f"/><meta><profile value="http://fhir.abda.de/eRezeptAbgabedaten/StructureDefinition/DAV-PKV-PR-ERP-AbgabedatenComposition|1.2"/></meta><status value="final"/><type><coding><system value="http://fhir.abda.de/eRezeptAbgabedaten/CodeSystem/DAV-CS-ERP-CompositionTypes"/><code value="ERezeptAbgabedaten"/></coding></type><date value="2024-02-08T19:19:55+01:00"/><author><reference value="urn:uuid:4a8d1219-9312-4afe-b62c-02e23a07bd71"/></author><title value="ERezeptAbgabedaten"/><section><title value="Apotheke"/><entry><reference value="urn:uuid:4a8d1219-9312-4afe-b62c-02e23a07bd71"/></entry></section><section><title value="Abgabeinformationen"/><entry><reference value="urn:uuid:1080b799-b9f2-4a32-a1d1-315e44581c52"/></entry></section></Composition></resource></entry><entry><fullUrl value="urn:uuid:4a8d1219-9312-4afe-b62c-02e23a07bd71"/><resource><Organization xmlns="http://hl7.org/fhir"><id value="4a8d1219-9312-4afe-b62c-02e23a07bd71"/><meta><profile value="http://fhir.abda.de/eRezeptAbgabedaten/StructureDefinition/DAV-PKV-PR-ERP-Apotheke|1.2"/></meta><identifier><system value="http://fhir.de/sid/arge-ik/iknr"/><value value="735520750"/></identifier><name value="Apotheke Olive Branch"/><address><type value="physical"/><line value="Weichselstr. 81c"><extension url="http://hl7.org/fhir/StructureDefinition/iso21090-ADXP-houseNumber"><valueString value="81c"/></extension><extension url="http://hl7.org/fhir/StructureDefinition/iso21090-ADXP-streetName"><valueString value="Weichselstr."/></extension></line><city value="Klein Malina"/><postalCode value="02018"/><country value="D"/></address></Organization></resource></entry><entry><fullUrl value="urn:uuid:d7701c41-eab5-4328-badb-34d5b32e158b"/><resource><Invoice xmlns="http://hl7.org/fhir"><id value="d7701c41-eab5-4328-badb-34d5b32e158b"/><meta><profile value="http://fhir.abda.de/eRezeptAbgabedaten/StructureDefinition/DAV-PKV-PR-ERP-Abrechnungszeilen|1.2"/></meta><status value="issued"/><type><coding><system value="http://fhir.abda.de/eRezeptAbgabedaten/CodeSystem/DAV-CS-ERP-InvoiceTyp"/><code value="Abrechnungszeilen"/></coding></type><lineItem><sequence value="1"/><chargeItemCodeableConcept><coding><system value="http://fhir.de/CodeSystem/ifa/pzn"/><code value="16471078"/></coding><text value="Capabraab"/></chargeItemCodeableConcept><priceComponent><extension url="http://fhir.abda.de/eRezeptAbgabedaten/StructureDefinition/DAV-EX-ERP-KostenVersicherter"><extension url="Kategorie"><valueCodeableConcept><coding><system value="http://fhir.abda.de/eRezeptAbgabedaten/CodeSystem/DAV-PKV-CS-ERP-KostenVersicherterKategorie"/><code value="0"/></coding></valueCodeableConcept></extension><extension url="Kostenbetrag"><valueMoney><value value="15.01"/><currency value="EUR"/></valueMoney></extension></extension><extension url="http://fhir.abda.de/eRezeptAbgabedaten/StructureDefinition/DAV-EX-ERP-MwStSatz"><valueDecimal value="25.05"/></extension><type value="informational"/><factor value="1"/><amount><value value="56.24"/><currency value="EUR"/></amount></priceComponent></lineItem><totalGross><extension url="http://fhir.abda.de/eRezeptAbgabedaten/StructureDefinition/DAV-EX-ERP-Gesamtzuzahlung"><valueMoney><value value="15.01"/><currency value="EUR"/></valueMoney></extension><value value="56.24"/><currency value="EUR"/></totalGross></Invoice></resource></entry><entry><fullUrl value="urn:uuid:1080b799-b9f2-4a32-a1d1-315e44581c52"/><resource><MedicationDispense xmlns="http://hl7.org/fhir"><id value="1080b799-b9f2-4a32-a1d1-315e44581c52"/><meta><profile value="http://fhir.abda.de/eRezeptAbgabedaten/StructureDefinition/DAV-PKV-PR-ERP-Abgabeinformationen|1.2"/></meta><extension url="http://fhir.abda.de/eRezeptAbgabedaten/StructureDefinition/DAV-PKV-EX-ERP-AbrechnungsTyp"><valueCodeableConcept><coding><system value="http://fhir.abda.de/eRezeptAbgabedaten/CodeSystem/DAV-PKV-CS-ERP-AbrechnungsTyp"/><code value="1"/></coding></valueCodeableConcept></extension><extension url="http://fhir.abda.de/eRezeptAbgabedaten/StructureDefinition/DAV-EX-ERP-Abrechnungszeilen"><valueReference><reference value="urn:uuid:d7701c41-eab5-4328-badb-34d5b32e158b"/></valueReference></extension><status value="completed"/><medicationCodeableConcept><coding><system value="http://terminology.hl7.org/CodeSystem/data-absent-reason"/><code value="not-applicable"/></coding></medicationCodeableConcept><performer><actor><reference value="urn:uuid:4a8d1219-9312-4afe-b62c-02e23a07bd71"/></actor></performer><authorizingPrescription><identifier><system value="https://gematik.de/fhir/erp/NamingSystem/GEM_ERP_NS_PrescriptionId"/><value value="200.000.002.096.551.92"/></identifier></authorizingPrescription><type><coding><system value="http://fhir.abda.de/eRezeptAbgabedaten/CodeSystem/DAV-CS-ERP-MedicationDispenseTyp"/><code value="Abgabeinformationen"/></coding></type><whenHandedOver value="2024-02-08"/></MedicationDispense></resource></entry></Bundle>