{
  "resourceType": "Bundle",
  "id": "01ce5139-197f-4520-8805-12a2a4a1c546",
  "meta": {
    "profile": [
      "https://gematik.de/fhir/erp/StructureDefinition/GEM_ERP_PR_CloseOperationInputBundle|1.3"
    ],
    "tag": [
      {
        "display": "Beispiel MedicationDispense PKV Wirkstoff (multiple medications)"
      }
    ]
  },
  "type": "collection",
  "entry": [
    {
      "fullUrl": "urn:uuid:9c071f12-db40-4f7e-9b87-18cea3458c0d",
      "resource": {
        "resourceType": "MedicationDispense",
        "id": "9c071f12-db40-4f7e-9b87-18cea3458c0d",
        "meta": {
          "profile": [
            "https://gematik.de/fhir/erp/StructureDefinition/GEM_ERP_PR_MedicationDispense|1.3"
          ],
          "tag": [
            {
              "display": "Beispiel MedicationDispense PKV Wirkstoff 1/2"
            }
          ]
        },
        "contained": [
          {
            "resourceType": "Medication",
            "id": "ebdb8f91-b514-4374-bd18-825f9437e2aa",
            "meta": {
              "profile": [
                "https://fhir.kbv.de/StructureDefinition/KBV_PR_ERP_Medication_PZN|1.1.0"
              ]
            },
            "extension": [
              {
                "url": "https://fhir.kbv.de/StructureDefinition/KBV_EX_Base_Medication_Type",
                "valueCodeableConcept": {
                  "coding": [
                    {
                      "system": "http://snomed.info/sct",
                      "version": "http://snomed.info/sct/900000000000207008/version/20220331",
                      "code": "763158003",
                      "display": "Medicinal product (product)"
                    }
                  ]
                }
              },
              {
                "url": "https://fhir.kbv.de/StructureDefinition/KBV_EX_ERP_Medication_Category",
                "valueCoding": {
                  "system": "https://fhir.kbv.de/CodeSystem/KBV_CS_ERP_Medication_Category",
                  "code": "00"
                }
              },
              {
                "url": "https://fhir.kbv.de/StructureDefinition/KBV_EX_ERP_Medication_Vaccine",
                "valueBoolean": false
              },
              {
                "url": "http://fhir.de/StructureDefinition/normgroesse",
                "valueCode": "N2"
              }
            ],
            "code": {
              "coding": [
                {
                  "system": "http://fhir.de/CodeSystem/ifa/pzn",
                  "code": "06437063"
                }
              ],
              "text": "Doxycyclin 200-1a Pharma Tabletten - 20 St"
            },
            "form": {
              "coding": [
                {
                  "system": "https://fhir.kbv.de/CodeSystem/KBV_CS_SFHIR_KBV_DARREICHUNGSFORM",
                  "code": "TAB"
                }
              ]
            },
            "amount": {
              "numerator": {
                "extension": [
                  {
                    "url": "https://fhir.kbv.de/StructureDefinition/KBV_EX_ERP_Medication_PackagingSize",
                    "valueString": "20"
                  }
                ],
                "unit": "Stück"
              },
              "denominator": {
                "value": 1
              }
            },
            "batch": {
              "lotNumber": "A123456789-1"
            }
          }
        ],
        "identifier": [
          {
            "system": "https://gematik.de/fhir/erp/NamingSystem/GEM_ERP_NS_PrescriptionId",
            "value": "200.643.100.572.979.08"
          }
        ],
        "status": "completed",
        "medicationReference": {
          "reference": "#ebdb8f91-b514-4374-bd18-825f9437e2aa"
        },
        "subject": {
          "identifier": {
            "system": "http://fhir.de/sid/pkv/kvid-10",
            "value": "P123464315"
          }
        },
        "performer": [
          {
            "actor": {
              "identifier": {
                "system": "https://gematik.de/fhir/sid/telematik-id",
                "value": "3-abc-1234567890"
              }
            }
          }
        ],
        "whenHandedOver": "2024-11-03"
      }
    },
    {
      "fullUrl": "urn:uuid:40afa27e-9c66-48d0-8f09-4d2eb43fb44d",
      "resource": {
        "resourceType": "MedicationDispense",
        "id": "40afa27e-9c66-48d0-8f09-4d2eb43fb44d",
        "meta": {
          "profile": [
            "https://gematik.de/fhir/erp/StructureDefinition/GEM_ERP_PR_MedicationDispense|1.3"
          ],
          "tag": [
            {
              "display": "Beispiel MedicationDispense PKV Wirkstoff 2/2"
            }
          ]
        },
        "contained": [
          {
            "resourceType": "Medication",
            "id": "a4048f3c-4803-46ad-b809-63cf53fed771",
            "meta": {
              "profile": [
                "https://fhir.kbv.de/StructureDefinition/KBV_PR_ERP_Medication_PZN|1.1.0"
              ]
            },
            "extension": [
              {
                "url": "https://fhir.kbv.de/StructureDefinition/KBV_EX_Base_Medication_Type",
                "valueCodeableConcept": {
                  "coding": [
                    {
                      "system": "http://snomed.info/sct",
                      "version": "http://snomed.info/sct/900000000000207008/version/20220331",
                      "code": "763158003",
                      "display": "Medicinal product (product)"
                    }
                  ]
                }
              },
              {
                "url": "https://fhir.kbv.de/StructureDefinition/KBV_EX_ERP_Medication_Category",
                "valueCoding": {
                  "system": "https://fhir.kbv.de/CodeSystem/KBV_CS_ERP_Medication_Category",
                  "code": "00"
                }
              },
              {
                "url": "https://fhir.kbv.de/StructureDefinition/KBV_EX_ERP_Medication_Vaccine",
                "valueBoolean": false
              },
              {
                "url": "http://fhir.de/StructureDefinition/normgroesse",
                "valueCode": "N2"
              }
            ],
            "code": {
              "coding": [
                {
                  "system": "http://fhir.de/CodeSystem/ifa/pzn",
                  "code": "06437057"
                }
              ],
              "text": "Doxycyclin 200-1a Pharma Tabletten - 10 St"
            },
            "form": {
              "coding": [
                {
                  "system": "https://fhir.kbv.de/CodeSystem/KBV_CS_SFHIR_KBV_DARREICHUNGSFORM",
                  "code": "TAB"
                }
              ]
            },
            "amount": {
              "numerator": {
                "extension": [
                  {
                    "url": "https://fhir.kbv.de/StructureDefinition/KBV_EX_ERP_Medication_PackagingSize",
                    "valueString": "10"
                  }
                ],
                "unit": "Stück"
              },
              "denominator": {
                "value": 1
              }
            },
            "batch": {
              "lotNumber": "A123456789-1"
            }
          }
        ],
        "identifier": [
          {
            "system": "https://gematik.de/fhir/erp/NamingSystem/GEM_ERP_NS_PrescriptionId",
            "value": "200.643.100.572.979.08"
          }
        ],
        "status": "completed",
        "medicationReference": {
          "reference": "#a4048f3c-4803-46ad-b809-63cf53fed771"
        },
        "subject": {
          "identifier": {
            "system": "http://fhir.de/sid/pkv/kvid-10",
            "value": "P123464319"
          }
        },
        "performer": [
          {
            "actor": {
              "identifier": {
                "system": "https://gematik.de/fhir/sid/telematik-id",
                "value": "3-abc-1234567890"
              }
            }
          }
        ],
        "whenHandedOver": "2024-11-03"
      }
    }
  ]
}