{
  "resourceType": "Bundle",
  "id": "9dc113fa-4b48-41ee-b12f-cf7b2acf47fc",
  "type": "searchset",
  "timestamp": "2023-04-21T07:04:36.971+00:00",
  "total": 2902,
  "link": [
    {
      "relation": "next",
      "url": "https://erp-dev.zentral.erp.splitdns.ti-dienste.de/Communication?_sort=-sent&_count=50&__offset=50"
    },
    {
      "relation": "self",
      "url": "https://erp-dev.zentral.erp.splitdns.ti-dienste.de/Communication?_sort=-sent"
    }
  ],
  "entry": [
    {
      "fullUrl": "https://erp-dev.zentral.erp.splitdns.ti-dienste.de/Communication/01eba3b1-1c66-a540-68c0-072e4977b7d1",
      "resource": {
        "resourceType": "Communication",
        "id": "01eba3b1-1c66-a540-68c0-072e4977b7d1",
        "meta": {
          "profile": [
            "https://gematik.de/fhir/erp/StructureDefinition/GEM_ERP_PR_Communication_InfoReq|1.2"
          ]
        },
        "contained": [
          {
            "resourceType": "Medication",
            "id": "06dbd250-90d1-4941-b4d4-0b99a12ae1f6",
            "meta": {
              "profile": [
                "https://fhir.kbv.de/StructureDefinition/KBV_PR_ERP_Medication_PZN|1.1.0"
              ]
            },
            "extension": [
              {
                "url": "https://fhir.kbv.de/StructureDefinition/KBV_EX_Base_Medication_Type",
                "valueCodeableConcept": {
                  "coding": [
                    {
                      "system": "http://snomed.info/sct",
                      "version": "http://snomed.info/sct/900000000000207008/version/20220331",
                      "code": "763158003",
                      "display": "Medicinal product (product)"
                    }
                  ]
                }
              },
              {
                "url": "https://fhir.kbv.de/StructureDefinition/KBV_EX_ERP_Medication_Category",
                "valueCoding": {
                  "system": "https://fhir.kbv.de/CodeSystem/KBV_CS_ERP_Medication_Category",
                  "code": "00"
                }
              },
              {
                "url": "https://fhir.kbv.de/StructureDefinition/KBV_EX_ERP_Medication_Vaccine",
                "valueBoolean": false
              },
              {
                "url": "http://fhir.de/StructureDefinition/normgroesse",
                "valueCode": "NB"
              }
            ],
            "code": {
              "coding": [
                {
                  "system": "http://fhir.de/CodeSystem/ifa/pzn",
                  "code": "12345678"
                }
              ],
              "text": "Schmerzmittel"
            },
            "form": {
              "coding": [
                {
                  "system": "https://fhir.kbv.de/CodeSystem/KBV_CS_SFHIR_KBV_DARREICHUNGSFORM",
                  "code": "TAB"
                }
              ]
            },
            "amount": {
              "numerator": {
                "extension": [
                  {
                    "url": "https://fhir.kbv.de/StructureDefinition/KBV_EX_ERP_Medication_PackagingSize",
                    "valueString": "1"
                  }
                ],
                "unit": "Stk"
              },
              "denominator": {
                "value": 1
              }
            }
          }
        ],
        "basedOn": [
          {
            "reference": "Task/160.000.040.327.739.90"
          }
        ],
        "status": "unknown",
        "about": [
          {
            "reference": "#06dbd250-90d1-4941-b4d4-0b99a12ae1f6"
          }
        ],
        "sent": "2023-04-21T07:04:05.960+00:00",
        "received": "2023-04-21T07:04:06.000+00:00",
        "recipient": [
          {
            "identifier": {
              "system": "https://gematik.de/fhir/sid/telematik-id",
              "value": "3-SMC-B-Testkarte-883110000116873"
            }
          }
        ],
        "sender": {
          "identifier": {
            "system": "http://fhir.de/sid/gkv/kvid-10",
            "value": "X110498565"
          }
        },
        "payload": [
          {
            "extension": [
              {
                "url": "https://gematik.de/fhir/erp/StructureDefinition/GEM_ERP_EX_InsuranceProvider",
                "valueIdentifier": {
                  "system": "http://fhir.de/sid/arge-ik/iknr",
                  "value": "368911333"
                }
              },
              {
                "url": "https://gematik.de/fhir/erp/StructureDefinition/GEM_ERP_EX_SubstitutionAllowedType",
                "valueBoolean": true
              },
              {
                "url": "https://gematik.de/fhir/erp/StructureDefinition/GEM_ERP_EX_PrescriptionType",
                "valueCoding": {
                  "system": "https://gematik.de/fhir/erp/CodeSystem/GEM_ERP_CS_FlowType",
                  "code": "160",
                  "display": "Muster 16 (Apothekenpflichtige Arzneimittel)"
                }
              }
            ],
            "contentString": "I think you ought to know I'm feeling very depressed."
          }
        ]
      },
      "search": {
        "mode": "match"
      }
    },
    {
      "fullUrl": "https://erp-dev.zentral.erp.splitdns.ti-dienste.de/Communication/01eba3b1-1ba5-ca28-606b-707b232aa766",
      "resource": {
        "resourceType": "Communication",
        "id": "01eba3b1-1ba5-ca28-606b-707b232aa766",
        "meta": {
          "profile": [
            "https://gematik.de/fhir/erp/StructureDefinition/GEM_ERP_PR_Communication_DispReq|1.2"
          ]
        },
        "basedOn": [
          {
            "reference": "/Task/160.000.040.327.738.93/$accept?ac=d911f1a307e7903ab860a7a7bc0c53cbf8b0bbe81955d92ef33890aaab2ca468"
          }
        ],
        "status": "unknown",
        "sent": "2023-04-21T07:03:53.321+00:00",
        "received": "2023-04-21T07:03:54.000+00:00",
        "recipient": [
          {
            "identifier": {
              "system": "https://gematik.de/fhir/sid/telematik-id",
              "value": "3-SMC-B-Testkarte-883110000116873"
            }
          }
        ],
        "sender": {
          "identifier": {
            "system": "http://fhir.de/sid/gkv/kvid-10",
            "value": "X110498565"
          }
        },
        "payload": [
          {
            "contentString": "Since when can weathermen predict the weather, let alone the future?"
          }
        ]
      },
      "search": {
        "mode": "match"
      }
    },
    {
      "fullUrl": "https://erp-dev.zentral.erp.splitdns.ti-dienste.de/Communication/01eba3a9-de0a-7198-d308-d61b1016ca8f",
      "resource": {
        "resourceType": "Communication",
        "id": "01eba3a9-de0a-7198-d308-d61b1016ca8f",
        "meta": {
          "profile": [
            "https://gematik.de/fhir/erp/StructureDefinition/GEM_ERP_PR_Communication_InfoReq|1.2"
          ]
        },
        "contained": [
          {
            "resourceType": "Medication",
            "id": "916625cf-c2f5-4aa0-9062-c570262a4a23",
            "meta": {
              "profile": [
                "https://fhir.kbv.de/StructureDefinition/KBV_PR_ERP_Medication_PZN|1.1.0"
              ]
            },
            "extension": [
              {
                "url": "https://fhir.kbv.de/StructureDefinition/KBV_EX_Base_Medication_Type",
                "valueCodeableConcept": {
                  "coding": [
                    {
                      "system": "http://snomed.info/sct",
                      "version": "http://snomed.info/sct/900000000000207008/version/20220331",
                      "code": "763158003",
                      "display": "Medicinal product (product)"
                    }
                  ]
                }
              },
              {
                "url": "https://fhir.kbv.de/StructureDefinition/KBV_EX_ERP_Medication_Category",
                "valueCoding": {
                  "system": "https://fhir.kbv.de/CodeSystem/KBV_CS_ERP_Medication_Category",
                  "code": "00"
                }
              },
              {
                "url": "https://fhir.kbv.de/StructureDefinition/KBV_EX_ERP_Medication_Vaccine",
                "valueBoolean": false
              },
              {
                "url": "http://fhir.de/StructureDefinition/normgroesse",
                "valueCode": "N1"
              }
            ],
            "code": {
              "coding": [
                {
                  "system": "http://fhir.de/CodeSystem/ifa/pzn",
                  "code": "12345678"
                }
              ],
              "text": "Schmerzmittel"
            },
            "form": {
              "coding": [
                {
                  "system": "https://fhir.kbv.de/CodeSystem/KBV_CS_SFHIR_KBV_DARREICHUNGSFORM",
                  "code": "TAB"
                }
              ]
            },
            "amount": {
              "numerator": {
                "extension": [
                  {
                    "url": "https://fhir.kbv.de/StructureDefinition/KBV_EX_ERP_Medication_PackagingSize",
                    "valueString": "1"
                  }
                ],
                "unit": "Stk"
              },
              "denominator": {
                "value": 1
              }
            }
          }
        ],
        "basedOn": [
          {
            "reference": "Task/160.000.040.327.518.74"
          }
        ],
        "status": "unknown",
        "about": [
          {
            "reference": "#916625cf-c2f5-4aa0-9062-c570262a4a23"
          }
        ],
        "sent": "2023-04-20T22:25:34.959+00:00",
        "received": "2023-04-21T07:03:54.000+00:00",
        "recipient": [
          {
            "identifier": {
              "system": "https://gematik.de/fhir/sid/telematik-id",
              "value": "3-SMC-B-Testkarte-883110000116873"
            }
          }
        ],
        "sender": {
          "identifier": {
            "system": "http://fhir.de/sid/gkv/kvid-10",
            "value": "X110498565"
          }
        },
        "payload": [
          {
            "extension": [
              {
                "url": "https://gematik.de/fhir/erp/StructureDefinition/GEM_ERP_EX_InsuranceProvider",
                "valueIdentifier": {
                  "system": "http://fhir.de/sid/arge-ik/iknr",
                  "value": "555605482"
                }
              },
              {
                "url": "https://gematik.de/fhir/erp/StructureDefinition/GEM_ERP_EX_SubstitutionAllowedType",
                "valueBoolean": true
              },
              {
                "url": "https://gematik.de/fhir/erp/StructureDefinition/GEM_ERP_EX_PrescriptionType",
                "valueCoding": {
                  "system": "https://gematik.de/fhir/erp/CodeSystem/GEM_ERP_CS_FlowType",
                  "code": "160",
                  "display": "Muster 16 (Apothekenpflichtige Arzneimittel)"
                }
              }
            ],
            "contentString": "And then of course I've got this terrible pain in all the diodes down my left side."
          }
        ]
      },
      "search": {
        "mode": "match"
      }
    },
    {
      "fullUrl": "https://erp-dev.zentral.erp.splitdns.ti-dienste.de/Communication/01eba3a9-bdd5-1900-ac3b-cacae312e6df",
      "resource": {
        "resourceType": "Communication",
        "id": "01eba3a9-bdd5-1900-ac3b-cacae312e6df",
        "meta": {
          "profile": [
            "https://gematik.de/fhir/erp/StructureDefinition/GEM_ERP_PR_Communication_Representative|1.2"
          ]
        },
        "basedOn": [
          {
            "reference": "/Task/160.000.040.327.484.79/$accept?ac=e0e074150a3da3b79d30c526b86ee96f84c1145247477320ab55913fbc94371c"
          }
        ],
        "status": "unknown",
        "sent": "2023-04-20T22:16:34.592+00:00",
        "received": "2023-04-20T22:16:35.000+00:00",
        "recipient": [
          {
            "identifier": {
              "system": "http://fhir.de/sid/gkv/kvid-10",
              "value": "X110465770"
            }
          }
        ],
        "sender": {
          "identifier": {
            "system": "http://fhir.de/sid/gkv/kvid-10",
            "value": "X110498565"
          }
        },
        "payload": [
          {
            "extension": [
              {
                "url": "https://gematik.de/fhir/erp/StructureDefinition/GEM_ERP_EX_SubstitutionAllowedType",
                "valueBoolean": true
              },
              {
                "url": "https://gematik.de/fhir/erp/StructureDefinition/GEM_ERP_EX_PrescriptionType",
                "valueCoding": {
                  "system": "https://gematik.de/fhir/erp/CodeSystem/GEM_ERP_CS_FlowType",
                  "code": "160",
                  "display": "Muster 16 (Apothekenpflichtige Arzneimittel)"
                }
              }
            ],
            "contentString": "Chuck Norris zündet ein Feuer an, indem er zwei Eiswürfel aneinander reibt."
          }
        ]
      },
      "search": {
        "mode": "match"
      }
    },
    {
      "fullUrl": "https://erp-dev.zentral.erp.splitdns.ti-dienste.de/Communication/01eba3a9-b412-8c18-dc6c-d284d12656a5",
      "resource": {
        "resourceType": "Communication",
        "id": "01eba3a9-b412-8c18-dc6c-d284d12656a5",
        "meta": {
          "profile": [
            "https://gematik.de/fhir/erp/StructureDefinition/GEM_ERP_PR_Communication_InfoReq|1.2"
          ]
        },
        "contained": [
          {
            "resourceType": "Medication",
            "id": "f5a479ed-ae3e-45c9-9037-3ae2798157c2",
            "meta": {
              "profile": [
                "https://fhir.kbv.de/StructureDefinition/KBV_PR_ERP_Medication_PZN|1.1.0"
              ]
            },
            "extension": [
              {
                "url": "https://fhir.kbv.de/StructureDefinition/KBV_EX_Base_Medication_Type",
                "valueCodeableConcept": {
                  "coding": [
                    {
                      "system": "http://snomed.info/sct",
                      "version": "http://snomed.info/sct/900000000000207008/version/20220331",
                      "code": "763158003",
                      "display": "Medicinal product (product)"
                    }
                  ]
                }
              },
              {
                "url": "https://fhir.kbv.de/StructureDefinition/KBV_EX_ERP_Medication_Category",
                "valueCoding": {
                  "system": "https://fhir.kbv.de/CodeSystem/KBV_CS_ERP_Medication_Category",
                  "code": "00"
                }
              },
              {
                "url": "https://fhir.kbv.de/StructureDefinition/KBV_EX_ERP_Medication_Vaccine",
                "valueBoolean": false
              },
              {
                "url": "http://fhir.de/StructureDefinition/normgroesse",
                "valueCode": "NB"
              }
            ],
            "code": {
              "coding": [
                {
                  "system": "http://fhir.de/CodeSystem/ifa/pzn",
                  "code": "12345678"
                }
              ],
              "text": "Schmerzmittel"
            },
            "form": {
              "coding": [
                {
                  "system": "https://fhir.kbv.de/CodeSystem/KBV_CS_SFHIR_KBV_DARREICHUNGSFORM",
                  "code": "TAB"
                }
              ]
            },
            "amount": {
              "numerator": {
                "extension": [
                  {
                    "url": "https://fhir.kbv.de/StructureDefinition/KBV_EX_ERP_Medication_PackagingSize",
                    "valueString": "1"
                  }
                ],
                "unit": "Stk"
              },
              "denominator": {
                "value": 1
              }
            }
          }
        ],
        "basedOn": [
          {
            "reference": "Task/160.000.040.327.461.51"
          }
        ],
        "status": "unknown",
        "about": [
          {
            "reference": "#f5a479ed-ae3e-45c9-9037-3ae2798157c2"
          }
        ],
        "sent": "2023-04-20T22:13:50.847+00:00",
        "recipient": [
          {
            "identifier": {
              "system": "https://gematik.de/fhir/sid/telematik-id",
              "value": "1-2-ARZT-BerndClaudius01"
            }
          }
        ],
        "sender": {
          "identifier": {
            "system": "http://fhir.de/sid/gkv/kvid-10",
            "value": "X110498565"
          }
        },
        "payload": [
          {
            "extension": [
              {
                "url": "https://gematik.de/fhir/erp/StructureDefinition/GEM_ERP_EX_InsuranceProvider",
                "valueIdentifier": {
                  "system": "http://fhir.de/sid/arge-ik/iknr",
                  "value": "361083245"
                }
              },
              {
                "url": "https://gematik.de/fhir/erp/StructureDefinition/GEM_ERP_EX_SubstitutionAllowedType",
                "valueBoolean": true
              },
              {
                "url": "https://gematik.de/fhir/erp/StructureDefinition/GEM_ERP_EX_PrescriptionType",
                "valueCoding": {
                  "system": "https://gematik.de/fhir/erp/CodeSystem/GEM_ERP_CS_FlowType",
                  "code": "160",
                  "display": "Muster 16 (Apothekenpflichtige Arzneimittel)"
                }
              }
            ],
            "contentString": "I won't enjoy it."
          }
        ]
      },
      "search": {
        "mode": "match"
      }
    },
    {
      "fullUrl": "https://erp-dev.zentral.erp.splitdns.ti-dienste.de/Communication/01eba3a9-b382-65c0-1989-6b9a04a2d879",
      "resource": {
        "resourceType": "Communication",
        "id": "01eba3a9-b382-65c0-1989-6b9a04a2d879",
        "meta": {
          "profile": [
            "https://gematik.de/fhir/erp/StructureDefinition/GEM_ERP_PR_Communication_InfoReq|1.2"
          ]
        },
        "contained": [
          {
            "resourceType": "Medication",
            "id": "de940e1f-a16f-4af8-865a-990173e5f677",
            "meta": {
              "profile": [
                "https://fhir.kbv.de/StructureDefinition/KBV_PR_ERP_Medication_PZN|1.1.0"
              ]
            },
            "extension": [
              {
                "url": "https://fhir.kbv.de/StructureDefinition/KBV_EX_Base_Medication_Type",
                "valueCodeableConcept": {
                  "coding": [
                    {
                      "system": "http://snomed.info/sct",
                      "version": "http://snomed.info/sct/900000000000207008/version/20220331",
                      "code": "763158003",
                      "display": "Medicinal product (product)"
                    }
                  ]
                }
              },
              {
                "url": "https://fhir.kbv.de/StructureDefinition/KBV_EX_ERP_Medication_Category",
                "valueCoding": {
                  "system": "https://fhir.kbv.de/CodeSystem/KBV_CS_ERP_Medication_Category",
                  "code": "00"
                }
              },
              {
                "url": "https://fhir.kbv.de/StructureDefinition/KBV_EX_ERP_Medication_Vaccine",
                "valueBoolean": false
              },
              {
                "url": "http://fhir.de/StructureDefinition/normgroesse",
                "valueCode": "NB"
              }
            ],
            "code": {
              "coding": [
                {
                  "system": "http://fhir.de/CodeSystem/ifa/pzn",
                  "code": "12345678"
                }
              ],
              "text": "Schmerzmittel"
            },
            "form": {
              "coding": [
                {
                  "system": "https://fhir.kbv.de/CodeSystem/KBV_CS_SFHIR_KBV_DARREICHUNGSFORM",
                  "code": "TAB"
                }
              ]
            },
            "amount": {
              "numerator": {
                "extension": [
                  {
                    "url": "https://fhir.kbv.de/StructureDefinition/KBV_EX_ERP_Medication_PackagingSize",
                    "valueString": "1"
                  }
                ],
                "unit": "Stk"
              },
              "denominator": {
                "value": 1
              }
            }
          }
        ],
        "basedOn": [
          {
            "reference": "Task/160.000.040.327.460.54"
          }
        ],
        "status": "unknown",
        "about": [
          {
            "reference": "#de940e1f-a16f-4af8-865a-990173e5f677"
          }
        ],
        "sent": "2023-04-20T22:13:41.400+00:00",
        "received": "2023-04-20T22:13:41.000+00:00",
        "recipient": [
          {
            "identifier": {
              "system": "https://gematik.de/fhir/sid/telematik-id",
              "value": "3-SMC-B-Testkarte-883110000116873"
            }
          }
        ],
        "sender": {
          "identifier": {
            "system": "http://fhir.de/sid/gkv/kvid-10",
            "value": "X110498565"
          }
        },
        "payload": [
          {
            "extension": [
              {
                "url": "https://gematik.de/fhir/erp/StructureDefinition/GEM_ERP_EX_InsuranceProvider",
                "valueIdentifier": {
                  "system": "http://fhir.de/sid/arge-ik/iknr",
                  "value": "116843749"
                }
              },
              {
                "url": "https://gematik.de/fhir/erp/StructureDefinition/GEM_ERP_EX_SubstitutionAllowedType",
                "valueBoolean": true
              },
              {
                "url": "https://gematik.de/fhir/erp/StructureDefinition/GEM_ERP_EX_PrescriptionType",
                "valueCoding": {
                  "system": "https://gematik.de/fhir/erp/CodeSystem/GEM_ERP_CS_FlowType",
                  "code": "160",
                  "display": "Muster 16 (Apothekenpflichtige Arzneimittel)"
                }
              }
            ],
            "contentString": "Here I am, brain the size of a planet, and they tell me to take you up to the bridge. Call that job satisfaction? 'Cos I don't."
          }
        ]
      },
      "search": {
        "mode": "match"
      }
    },
    {
      "fullUrl": "https://erp-dev.zentral.erp.splitdns.ti-dienste.de/Communication/01eba3a9-b316-1348-4718-158414d49046",
      "resource": {
        "resourceType": "Communication",
        "id": "01eba3a9-b316-1348-4718-158414d49046",
        "meta": {
          "profile": [
            "https://gematik.de/fhir/erp/StructureDefinition/GEM_ERP_PR_Communication_InfoReq|1.2"
          ]
        },
        "contained": [
          {
            "resourceType": "Medication",
            "id": "6007b34b-9bbc-4178-b702-cc520dc838df",
            "meta": {
              "profile": [
                "https://fhir.kbv.de/StructureDefinition/KBV_PR_ERP_Medication_PZN|1.1.0"
              ]
            },
            "extension": [
              {
                "url": "https://fhir.kbv.de/StructureDefinition/KBV_EX_Base_Medication_Type",
                "valueCodeableConcept": {
                  "coding": [
                    {
                      "system": "http://snomed.info/sct",
                      "version": "http://snomed.info/sct/900000000000207008/version/20220331",
                      "code": "763158003",
                      "display": "Medicinal product (product)"
                    }
                  ]
                }
              },
              {
                "url": "https://fhir.kbv.de/StructureDefinition/KBV_EX_ERP_Medication_Category",
                "valueCoding": {
                  "system": "https://fhir.kbv.de/CodeSystem/KBV_CS_ERP_Medication_Category",
                  "code": "00"
                }
              },
              {
                "url": "https://fhir.kbv.de/StructureDefinition/KBV_EX_ERP_Medication_Vaccine",
                "valueBoolean": false
              },
              {
                "url": "http://fhir.de/StructureDefinition/normgroesse",
                "valueCode": "NB"
              }
            ],
            "code": {
              "coding": [
                {
                  "system": "http://fhir.de/CodeSystem/ifa/pzn",
                  "code": "12345678"
                }
              ],
              "text": "Schmerzmittel"
            },
            "form": {
              "coding": [
                {
                  "system": "https://fhir.kbv.de/CodeSystem/KBV_CS_SFHIR_KBV_DARREICHUNGSFORM",
                  "code": "TAB"
                }
              ]
            },
            "amount": {
              "numerator": {
                "extension": [
                  {
                    "url": "https://fhir.kbv.de/StructureDefinition/KBV_EX_ERP_Medication_PackagingSize",
                    "valueString": "1"
                  }
                ],
                "unit": "Stk"
              },
              "denominator": {
                "value": 1
              }
            }
          }
        ],
        "basedOn": [
          {
            "reference": "Task/160.000.040.327.459.57"
          }
        ],
        "status": "unknown",
        "about": [
          {
            "reference": "#6007b34b-9bbc-4178-b702-cc520dc838df"
          }
        ],
        "sent": "2023-04-20T22:13:34.301+00:00",
        "received": "2023-04-20T22:13:34.000+00:00",
        "recipient": [
          {
            "identifier": {
              "system": "https://gematik.de/fhir/sid/telematik-id",
              "value": "3-SMC-B-Testkarte-883110000116873"
            }
          }
        ],
        "sender": {
          "identifier": {
            "system": "http://fhir.de/sid/gkv/kvid-10",
            "value": "X110498565"
          }
        },
        "payload": [
          {
            "extension": [
              {
                "url": "https://gematik.de/fhir/erp/StructureDefinition/GEM_ERP_EX_InsuranceProvider",
                "valueIdentifier": {
                  "system": "http://fhir.de/sid/arge-ik/iknr",
                  "value": "841385967"
                }
              },
              {
                "url": "https://gematik.de/fhir/erp/StructureDefinition/GEM_ERP_EX_SubstitutionAllowedType",
                "valueBoolean": true
              },
              {
                "url": "https://gematik.de/fhir/erp/StructureDefinition/GEM_ERP_EX_PrescriptionType",
                "valueCoding": {
                  "system": "https://gematik.de/fhir/erp/CodeSystem/GEM_ERP_CS_FlowType",
                  "code": "160",
                  "display": "Muster 16 (Apothekenpflichtige Arzneimittel)"
                }
              }
            ],
            "contentString": "I think you ought to know I'm feeling very depressed."
          }
        ]
      },
      "search": {
        "mode": "match"
      }
    },
    {
      "fullUrl": "https://erp-dev.zentral.erp.splitdns.ti-dienste.de/Communication/01eba3a9-b0ea-e648-7ae0-96c1929a41fe",
      "resource": {
        "resourceType": "Communication",
        "id": "01eba3a9-b0ea-e648-7ae0-96c1929a41fe",
        "meta": {
          "profile": [
            "https://gematik.de/fhir/erp/StructureDefinition/GEM_ERP_PR_Communication_InfoReq|1.2"
          ]
        },
        "contained": [
          {
            "resourceType": "Medication",
            "id": "930819bd-22ba-4718-9dd4-5d08200d8117",
            "meta": {
              "profile": [
                "https://fhir.kbv.de/StructureDefinition/KBV_PR_ERP_Medication_PZN|1.1.0"
              ]
            },
            "extension": [
              {
                "url": "https://fhir.kbv.de/StructureDefinition/KBV_EX_Base_Medication_Type",
                "valueCodeableConcept": {
                  "coding": [
                    {
                      "system": "http://snomed.info/sct",
                      "version": "http://snomed.info/sct/900000000000207008/version/20220331",
                      "code": "763158003",
                      "display": "Medicinal product (product)"
                    }
                  ]
                }
              },
              {
                "url": "https://fhir.kbv.de/StructureDefinition/KBV_EX_ERP_Medication_Category",
                "valueCoding": {
                  "system": "https://fhir.kbv.de/CodeSystem/KBV_CS_ERP_Medication_Category",
                  "code": "00"
                }
              },
              {
                "url": "https://fhir.kbv.de/StructureDefinition/KBV_EX_ERP_Medication_Vaccine",
                "valueBoolean": false
              },
              {
                "url": "http://fhir.de/StructureDefinition/normgroesse",
                "valueCode": "NB"
              }
            ],
            "code": {
              "coding": [
                {
                  "system": "http://fhir.de/CodeSystem/ifa/pzn",
                  "code": "12345678"
                }
              ],
              "text": "Schmerzmittel"
            },
            "form": {
              "coding": [
                {
                  "system": "https://fhir.kbv.de/CodeSystem/KBV_CS_SFHIR_KBV_DARREICHUNGSFORM",
                  "code": "TAB"
                }
              ]
            },
            "amount": {
              "numerator": {
                "extension": [
                  {
                    "url": "https://fhir.kbv.de/StructureDefinition/KBV_EX_ERP_Medication_PackagingSize",
                    "valueString": "1"
                  }
                ],
                "unit": "Stk"
              },
              "denominator": {
                "value": 1
              }
            }
          }
        ],
        "basedOn": [
          {
            "reference": "Task/160.000.040.327.454.72"
          }
        ],
        "status": "unknown",
        "about": [
          {
            "reference": "#930819bd-22ba-4718-9dd4-5d08200d8117"
          }
        ],
        "sent": "2023-04-20T22:12:57.917+00:00",
        "received": "2023-04-20T22:12:58.000+00:00",
        "recipient": [
          {
            "identifier": {
              "system": "https://gematik.de/fhir/sid/telematik-id",
              "value": "3-SMC-B-Testkarte-883110000116873"
            }
          }
        ],
        "sender": {
          "identifier": {
            "system": "http://fhir.de/sid/gkv/kvid-10",
            "value": "X110498565"
          }
        },
        "payload": [
          {
            "extension": [
              {
                "url": "https://gematik.de/fhir/erp/StructureDefinition/GEM_ERP_EX_InsuranceProvider",
                "valueIdentifier": {
                  "system": "http://fhir.de/sid/arge-ik/iknr",
                  "value": "301657178"
                }
              },
              {
                "url": "https://gematik.de/fhir/erp/StructureDefinition/GEM_ERP_EX_SubstitutionAllowedType",
                "valueBoolean": true
              },
              {
                "url": "https://gematik.de/fhir/erp/StructureDefinition/GEM_ERP_EX_PrescriptionType",
                "valueCoding": {
                  "system": "https://gematik.de/fhir/erp/CodeSystem/GEM_ERP_CS_FlowType",
                  "code": "160",
                  "display": "Muster 16 (Apothekenpflichtige Arzneimittel)"
                }
              }
            ],
            "contentString": "Pardon me for breathing, which I never do anyway so I don't know why I bother to say it, Oh God, I'm so depressed."
          }
        ]
      },
      "search": {
        "mode": "match"
      }
    },
    {
      "fullUrl": "https://erp-dev.zentral.erp.splitdns.ti-dienste.de/Communication/01eba395-beae-1b60-8cb5-79a039c9edfc",
      "resource": {
        "resourceType": "Communication",
        "id": "01eba395-beae-1b60-8cb5-79a039c9edfc",
        "meta": {
          "profile": [
            "https://gematik.de/fhir/erp/StructureDefinition/GEM_ERP_PR_Communication_InfoReq|1.2"
          ]
        },
        "contained": [
          {
            "resourceType": "Medication",
            "id": "824d3e42-6de3-4be6-9fd8-1aa50d8963b7",
            "meta": {
              "profile": [
                "https://fhir.kbv.de/StructureDefinition/KBV_PR_ERP_Medication_PZN|1.1.0"
              ]
            },
            "extension": [
              {
                "url": "https://fhir.kbv.de/StructureDefinition/KBV_EX_Base_Medication_Type",
                "valueCodeableConcept": {
                  "coding": [
                    {
                      "system": "http://snomed.info/sct",
                      "version": "http://snomed.info/sct/900000000000207008/version/20220331",
                      "code": "763158003",
                      "display": "Medicinal product (product)"
                    }
                  ]
                }
              },
              {
                "url": "https://fhir.kbv.de/StructureDefinition/KBV_EX_ERP_Medication_Category",
                "valueCoding": {
                  "system": "https://fhir.kbv.de/CodeSystem/KBV_CS_ERP_Medication_Category",
                  "code": "00"
                }
              },
              {
                "url": "https://fhir.kbv.de/StructureDefinition/KBV_EX_ERP_Medication_Vaccine",
                "valueBoolean": false
              },
              {
                "url": "http://fhir.de/StructureDefinition/normgroesse",
                "valueCode": "N1"
              }
            ],
            "code": {
              "coding": [
                {
                  "system": "http://fhir.de/CodeSystem/ifa/pzn",
                  "code": "12345678"
                }
              ],
              "text": "Schmerzmittel"
            },
            "form": {
              "coding": [
                {
                  "system": "https://fhir.kbv.de/CodeSystem/KBV_CS_SFHIR_KBV_DARREICHUNGSFORM",
                  "code": "TAB"
                }
              ]
            },
            "amount": {
              "numerator": {
                "extension": [
                  {
                    "url": "https://fhir.kbv.de/StructureDefinition/KBV_EX_ERP_Medication_PackagingSize",
                    "valueString": "1"
                  }
                ],
                "unit": "Stk"
              },
              "denominator": {
                "value": 1
              }
            }
          }
        ],
        "basedOn": [
          {
            "reference": "Task/160.000.040.327.218.04"
          }
        ],
        "status": "unknown",
        "about": [
          {
            "reference": "#824d3e42-6de3-4be6-9fd8-1aa50d8963b7"
          }
        ],
        "sent": "2023-04-19T22:25:09.468+00:00",
        "received": "2023-04-20T22:12:46.000+00:00",
        "recipient": [
          {
            "identifier": {
              "system": "https://gematik.de/fhir/sid/telematik-id",
              "value": "3-SMC-B-Testkarte-883110000116873"
            }
          }
        ],
        "sender": {
          "identifier": {
            "system": "http://fhir.de/sid/gkv/kvid-10",
            "value": "X110498565"
          }
        },
        "payload": [
          {
            "extension": [
              {
                "url": "https://gematik.de/fhir/erp/StructureDefinition/GEM_ERP_EX_InsuranceProvider",
                "valueIdentifier": {
                  "system": "http://fhir.de/sid/arge-ik/iknr",
                  "value": "061881240"
                }
              },
              {
                "url": "https://gematik.de/fhir/erp/StructureDefinition/GEM_ERP_EX_SubstitutionAllowedType",
                "valueBoolean": true
              },
              {
                "url": "https://gematik.de/fhir/erp/StructureDefinition/GEM_ERP_EX_PrescriptionType",
                "valueCoding": {
                  "system": "https://gematik.de/fhir/erp/CodeSystem/GEM_ERP_CS_FlowType",
                  "code": "160",
                  "display": "Muster 16 (Apothekenpflichtige Arzneimittel)"
                }
              }
            ],
            "contentString": "I wish you'd just tell me rather trying to engage my enthusiasm, because I haven't got one."
          }
        ]
      },
      "search": {
        "mode": "match"
      }
    },
    {
      "fullUrl": "https://erp-dev.zentral.erp.splitdns.ti-dienste.de/Communication/01eba395-be2e-3918-bc05-6617c4bb4ead",
      "resource": {
        "resourceType": "Communication",
        "id": "01eba395-be2e-3918-bc05-6617c4bb4ead",
        "meta": {
          "profile": [
            "https://gematik.de/fhir/erp/StructureDefinition/GEM_ERP_PR_Communication_DispReq|1.2"
          ]
        },
        "basedOn": [
          {
            "reference": "/Task/160.000.040.327.217.07/$accept?ac=937efbeaaf60523dab85e0a3650983fdfb7bbe8ac2f8f2f82fb8f52ec788cfbe"
          }
        ],
        "status": "unknown",
        "sent": "2023-04-19T22:25:01.087+00:00",
        "received": "2023-04-20T22:12:46.000+00:00",
        "recipient": [
          {
            "identifier": {
              "system": "https://gematik.de/fhir/sid/telematik-id",
              "value": "3-SMC-B-Testkarte-883110000116873"
            }
          }
        ],
        "sender": {
          "identifier": {
            "system": "http://fhir.de/sid/gkv/kvid-10",
            "value": "X110498565"
          }
        },
        "payload": [
          {
            "contentString": "All right. This is an oldie, but, uh... well, it's an oldie where I come from."
          }
        ]
      },
      "search": {
        "mode": "match"
      }
    },
    {
      "fullUrl": "https://erp-dev.zentral.erp.splitdns.ti-dienste.de/Communication/01eba395-9e17-f588-30d2-0f35596493b4",
      "resource": {
        "resourceType": "Communication",
        "id": "01eba395-9e17-f588-30d2-0f35596493b4",
        "meta": {
          "profile": [
            "https://gematik.de/fhir/erp/StructureDefinition/GEM_ERP_PR_Communication_Representative|1.2"
          ]
        },
        "basedOn": [
          {
            "reference": "/Task/160.000.040.327.184.09/$accept?ac=f7ebc137d703b28dce2273251e106c10d6ff7db201ef19c733056445c33c9164"
          }
        ],
        "status": "unknown",
        "sent": "2023-04-19T22:16:02.757+00:00",
        "received": "2023-04-19T22:16:03.000+00:00",
        "recipient": [
          {
            "identifier": {
              "system": "http://fhir.de/sid/gkv/kvid-10",
              "value": "X110465770"
            }
          }
        ],
        "sender": {
          "identifier": {
            "system": "http://fhir.de/sid/gkv/kvid-10",
            "value": "X110498565"
          }
        },
        "payload": [
          {
            "extension": [
              {
                "url": "https://gematik.de/fhir/erp/StructureDefinition/GEM_ERP_EX_SubstitutionAllowedType",
                "valueBoolean": true
              },
              {
                "url": "https://gematik.de/fhir/erp/StructureDefinition/GEM_ERP_EX_PrescriptionType",
                "valueCoding": {
                  "system": "https://gematik.de/fhir/erp/CodeSystem/GEM_ERP_CS_FlowType",
                  "code": "160",
                  "display": "Muster 16 (Apothekenpflichtige Arzneimittel)"
                }
              }
            ],
            "contentString": "Chuck Norris ließ sich an einen Lügendetektor anschließen. Die Maschine gestand."
          }
        ]
      },
      "search": {
        "mode": "match"
      }
    },
    {
      "fullUrl": "https://erp-dev.zentral.erp.splitdns.ti-dienste.de/Communication/01eba395-9445-2878-6edd-0ed0472ee230",
      "resource": {
        "resourceType": "Communication",
        "id": "01eba395-9445-2878-6edd-0ed0472ee230",
        "meta": {
          "profile": [
            "https://gematik.de/fhir/erp/StructureDefinition/GEM_ERP_PR_Communication_InfoReq|1.2"
          ]
        },
        "contained": [
          {
            "resourceType": "Medication",
            "id": "4445f333-4444-453d-a536-52d5a7b909ab",
            "meta": {
              "profile": [
                "https://fhir.kbv.de/StructureDefinition/KBV_PR_ERP_Medication_PZN|1.1.0"
              ]
            },
            "extension": [
              {
                "url": "https://fhir.kbv.de/StructureDefinition/KBV_EX_Base_Medication_Type",
                "valueCodeableConcept": {
                  "coding": [
                    {
                      "system": "http://snomed.info/sct",
                      "version": "http://snomed.info/sct/900000000000207008/version/20220331",
                      "code": "763158003",
                      "display": "Medicinal product (product)"
                    }
                  ]
                }
              },
              {
                "url": "https://fhir.kbv.de/StructureDefinition/KBV_EX_ERP_Medication_Category",
                "valueCoding": {
                  "system": "https://fhir.kbv.de/CodeSystem/KBV_CS_ERP_Medication_Category",
                  "code": "00"
                }
              },
              {
                "url": "https://fhir.kbv.de/StructureDefinition/KBV_EX_ERP_Medication_Vaccine",
                "valueBoolean": false
              },
              {
                "url": "http://fhir.de/StructureDefinition/normgroesse",
                "valueCode": "NB"
              }
            ],
            "code": {
              "coding": [
                {
                  "system": "http://fhir.de/CodeSystem/ifa/pzn",
                  "code": "12345678"
                }
              ],
              "text": "Schmerzmittel"
            },
            "form": {
              "coding": [
                {
                  "system": "https://fhir.kbv.de/CodeSystem/KBV_CS_SFHIR_KBV_DARREICHUNGSFORM",
                  "code": "TAB"
                }
              ]
            },
            "amount": {
              "numerator": {
                "extension": [
                  {
                    "url": "https://fhir.kbv.de/StructureDefinition/KBV_EX_ERP_Medication_PackagingSize",
                    "valueString": "1"
                  }
                ],
                "unit": "Stk"
              },
              "denominator": {
                "value": 1
              }
            }
          }
        ],
        "basedOn": [
          {
            "reference": "Task/160.000.040.327.161.78"
          }
        ],
        "status": "unknown",
        "about": [
          {
            "reference": "#4445f333-4444-453d-a536-52d5a7b909ab"
          }
        ],
        "sent": "2023-04-19T22:13:17.947+00:00",
        "recipient": [
          {
            "identifier": {
              "system": "https://gematik.de/fhir/sid/telematik-id",
              "value": "1-2-ARZT-BerndClaudius01"
            }
          }
        ],
        "sender": {
          "identifier": {
            "system": "http://fhir.de/sid/gkv/kvid-10",
            "value": "X110498565"
          }
        },
        "payload": [
          {
            "extension": [
              {
                "url": "https://gematik.de/fhir/erp/StructureDefinition/GEM_ERP_EX_InsuranceProvider",
                "valueIdentifier": {
                  "system": "http://fhir.de/sid/arge-ik/iknr",
                  "value": "966052356"
                }
              },
              {
                "url": "https://gematik.de/fhir/erp/StructureDefinition/GEM_ERP_EX_SubstitutionAllowedType",
                "valueBoolean": true
              },
              {
                "url": "https://gematik.de/fhir/erp/StructureDefinition/GEM_ERP_EX_PrescriptionType",
                "valueCoding": {
                  "system": "https://gematik.de/fhir/erp/CodeSystem/GEM_ERP_CS_FlowType",
                  "code": "160",
                  "display": "Muster 16 (Apothekenpflichtige Arzneimittel)"
                }
              }
            ],
            "contentString": "I wish you'd just tell me rather trying to engage my enthusiasm, because I haven't got one."
          }
        ]
      },
      "search": {
        "mode": "match"
      }
    },
    {
      "fullUrl": "https://erp-dev.zentral.erp.splitdns.ti-dienste.de/Communication/01eba395-93a6-7f48-d63c-8b141a7fffcd",
      "resource": {
        "resourceType": "Communication",
        "id": "01eba395-93a6-7f48-d63c-8b141a7fffcd",
        "meta": {
          "profile": [
            "https://gematik.de/fhir/erp/StructureDefinition/GEM_ERP_PR_Communication_InfoReq|1.2"
          ]
        },
        "contained": [
          {
            "resourceType": "Medication",
            "id": "4644cdf2-bc35-4482-b2a5-6a4a4ed5020f",
            "meta": {
              "profile": [
                "https://fhir.kbv.de/StructureDefinition/KBV_PR_ERP_Medication_PZN|1.1.0"
              ]
            },
            "extension": [
              {
                "url": "https://fhir.kbv.de/StructureDefinition/KBV_EX_Base_Medication_Type",
                "valueCodeableConcept": {
                  "coding": [
                    {
                      "system": "http://snomed.info/sct",
                      "version": "http://snomed.info/sct/900000000000207008/version/20220331",
                      "code": "763158003",
                      "display": "Medicinal product (product)"
                    }
                  ]
                }
              },
              {
                "url": "https://fhir.kbv.de/StructureDefinition/KBV_EX_ERP_Medication_Category",
                "valueCoding": {
                  "system": "https://fhir.kbv.de/CodeSystem/KBV_CS_ERP_Medication_Category",
                  "code": "00"
                }
              },
              {
                "url": "https://fhir.kbv.de/StructureDefinition/KBV_EX_ERP_Medication_Vaccine",
                "valueBoolean": false
              },
              {
                "url": "http://fhir.de/StructureDefinition/normgroesse",
                "valueCode": "NB"
              }
            ],
            "code": {
              "coding": [
                {
                  "system": "http://fhir.de/CodeSystem/ifa/pzn",
                  "code": "12345678"
                }
              ],
              "text": "Schmerzmittel"
            },
            "form": {
              "coding": [
                {
                  "system": "https://fhir.kbv.de/CodeSystem/KBV_CS_SFHIR_KBV_DARREICHUNGSFORM",
                  "code": "TAB"
                }
              ]
            },
            "amount": {
              "numerator": {
                "extension": [
                  {
                    "url": "https://fhir.kbv.de/StructureDefinition/KBV_EX_ERP_Medication_PackagingSize",
                    "valueString": "1"
                  }
                ],
                "unit": "Stk"
              },
              "denominator": {
                "value": 1
              }
            }
          }
        ],
        "basedOn": [
          {
            "reference": "Task/160.000.040.327.160.81"
          }
        ],
        "status": "unknown",
        "about": [
          {
            "reference": "#4644cdf2-bc35-4482-b2a5-6a4a4ed5020f"
          }
        ],
        "sent": "2023-04-19T22:13:07.549+00:00",
        "received": "2023-04-19T22:13:08.000+00:00",
        "recipient": [
          {
            "identifier": {
              "system": "https://gematik.de/fhir/sid/telematik-id",
              "value": "3-SMC-B-Testkarte-883110000116873"
            }
          }
        ],
        "sender": {
          "identifier": {
            "system": "http://fhir.de/sid/gkv/kvid-10",
            "value": "X110498565"
          }
        },
        "payload": [
          {
            "extension": [
              {
                "url": "https://gematik.de/fhir/erp/StructureDefinition/GEM_ERP_EX_InsuranceProvider",
                "valueIdentifier": {
                  "system": "http://fhir.de/sid/arge-ik/iknr",
                  "value": "631217875"
                }
              },
              {
                "url": "https://gematik.de/fhir/erp/StructureDefinition/GEM_ERP_EX_SubstitutionAllowedType",
                "valueBoolean": true
              },
              {
                "url": "https://gematik.de/fhir/erp/StructureDefinition/GEM_ERP_EX_PrescriptionType",
                "valueCoding": {
                  "system": "https://gematik.de/fhir/erp/CodeSystem/GEM_ERP_CS_FlowType",
                  "code": "160",
                  "display": "Muster 16 (Apothekenpflichtige Arzneimittel)"
                }
              }
            ],
            "contentString": "I wish you'd just tell me rather trying to engage my enthusiasm, because I haven't got one."
          }
        ]
      },
      "search": {
        "mode": "match"
      }
    },
    {
      "fullUrl": "https://erp-dev.zentral.erp.splitdns.ti-dienste.de/Communication/01eba395-9349-5b88-216a-14fa940fc0c0",
      "resource": {
        "resourceType": "Communication",
        "id": "01eba395-9349-5b88-216a-14fa940fc0c0",
        "meta": {
          "profile": [
            "https://gematik.de/fhir/erp/StructureDefinition/GEM_ERP_PR_Communication_Reply|1.2"
          ]
        },
        "basedOn": [
          {
            "reference": "Task/160.000.040.327.159.84"
          }
        ],
        "status": "unknown",
        "sent": "2023-04-19T22:13:01.445+00:00",
        "received": "2023-04-20T22:13:27.000+00:00",
        "recipient": [
          {
            "identifier": {
              "system": "http://fhir.de/sid/gkv/kvid-10",
              "value": "X110498565"
            }
          }
        ],
        "sender": {
          "identifier": {
            "system": "https://gematik.de/fhir/sid/telematik-id",
            "value": "3-SMC-B-Testkarte-883110000116873"
          }
        },
        "payload": [
          {
            "extension": [
              {
                "url": "https://gematik.de/fhir/erp/StructureDefinition/GEM_ERP_EX_AvailabilityState",
                "valueCoding": {
                  "system": "https://gematik.de/fhir/erp/CodeSystem/GEM_ERP_CS_AvailabilityStatus",
                  "code": "30"
                }
              },
              {
                "url": "https://gematik.de/fhir/erp/StructureDefinition/GEM_ERP_EX_SupplyOptionsType",
                "extension": [
                  {
                    "url": "onPremise",
                    "valueBoolean": true
                  },
                  {
                    "url": "delivery",
                    "valueBoolean": false
                  },
                  {
                    "url": "shipment",
                    "valueBoolean": false
                  }
                ]
              }
            ],
            "contentString": "The things I do for love."
          }
        ]
      },
      "search": {
        "mode": "match"
      }
    },
    {
      "fullUrl": "https://erp-dev.zentral.erp.splitdns.ti-dienste.de/Communication/01eba395-9096-16b0-c7d0-9f8e7910597b",
      "resource": {
        "resourceType": "Communication",
        "id": "01eba395-9096-16b0-c7d0-9f8e7910597b",
        "meta": {
          "profile": [
            "https://gematik.de/fhir/erp/StructureDefinition/GEM_ERP_PR_Communication_Reply|1.2"
          ]
        },
        "basedOn": [
          {
            "reference": "Task/160.000.040.327.154.02"
          }
        ],
        "status": "unknown",
        "sent": "2023-04-19T22:12:16.142+00:00",
        "received": "2023-04-19T22:12:52.000+00:00",
        "recipient": [
          {
            "identifier": {
              "system": "http://fhir.de/sid/gkv/kvid-10",
              "value": "X110498565"
            }
          }
        ],
        "sender": {
          "identifier": {
            "system": "https://gematik.de/fhir/sid/telematik-id",
            "value": "3-SMC-B-Testkarte-883110000116873"
          }
        },
        "payload": [
          {
            "extension": [
              {
                "url": "https://gematik.de/fhir/erp/StructureDefinition/GEM_ERP_EX_AvailabilityState",
                "valueCoding": {
                  "system": "https://gematik.de/fhir/erp/CodeSystem/GEM_ERP_CS_AvailabilityStatus",
                  "code": "30"
                }
              },
              {
                "url": "https://gematik.de/fhir/erp/StructureDefinition/GEM_ERP_EX_SupplyOptionsType",
                "extension": [
                  {
                    "url": "onPremise",
                    "valueBoolean": true
                  },
                  {
                    "url": "delivery",
                    "valueBoolean": false
                  },
                  {
                    "url": "shipment",
                    "valueBoolean": false
                  }
                ]
              }
            ],
            "contentString": "There are no heroes...in life, the monsters win."
          }
        ]
      },
      "search": {
        "mode": "match"
      }
    },
    {
      "fullUrl": "https://erp-dev.zentral.erp.splitdns.ti-dienste.de/Communication/01eba395-907d-9158-6448-d87b39840a33",
      "resource": {
        "resourceType": "Communication",
        "id": "01eba395-907d-9158-6448-d87b39840a33",
        "meta": {
          "profile": [
            "https://gematik.de/fhir/erp/StructureDefinition/GEM_ERP_PR_Communication_InfoReq|1.2"
          ]
        },
        "contained": [
          {
            "resourceType": "Medication",
            "id": "ddd15a9d-fea4-4162-acd1-7a6b209c7a0d",
            "meta": {
              "profile": [
                "https://fhir.kbv.de/StructureDefinition/KBV_PR_ERP_Medication_PZN|1.1.0"
              ]
            },
            "extension": [
              {
                "url": "https://fhir.kbv.de/StructureDefinition/KBV_EX_Base_Medication_Type",
                "valueCodeableConcept": {
                  "coding": [
                    {
                      "system": "http://snomed.info/sct",
                      "version": "http://snomed.info/sct/900000000000207008/version/20220331",
                      "code": "763158003",
                      "display": "Medicinal product (product)"
                    }
                  ]
                }
              },
              {
                "url": "https://fhir.kbv.de/StructureDefinition/KBV_EX_ERP_Medication_Category",
                "valueCoding": {
                  "system": "https://fhir.kbv.de/CodeSystem/KBV_CS_ERP_Medication_Category",
                  "code": "00"
                }
              },
              {
                "url": "https://fhir.kbv.de/StructureDefinition/KBV_EX_ERP_Medication_Vaccine",
                "valueBoolean": false
              },
              {
                "url": "http://fhir.de/StructureDefinition/normgroesse",
                "valueCode": "NB"
              }
            ],
            "code": {
              "coding": [
                {
                  "system": "http://fhir.de/CodeSystem/ifa/pzn",
                  "code": "12345678"
                }
              ],
              "text": "Schmerzmittel"
            },
            "form": {
              "coding": [
                {
                  "system": "https://fhir.kbv.de/CodeSystem/KBV_CS_SFHIR_KBV_DARREICHUNGSFORM",
                  "code": "TAB"
                }
              ]
            },
            "amount": {
              "numerator": {
                "extension": [
                  {
                    "url": "https://fhir.kbv.de/StructureDefinition/KBV_EX_ERP_Medication_PackagingSize",
                    "valueString": "1"
                  }
                ],
                "unit": "Stk"
              },
              "denominator": {
                "value": 1
              }
            }
          }
        ],
        "basedOn": [
          {
            "reference": "Task/160.000.040.327.154.02"
          }
        ],
        "status": "unknown",
        "about": [
          {
            "reference": "#ddd15a9d-fea4-4162-acd1-7a6b209c7a0d"
          }
        ],
        "sent": "2023-04-19T22:12:14.535+00:00",
        "received": "2023-04-19T22:12:15.000+00:00",
        "recipient": [
          {
            "identifier": {
              "system": "https://gematik.de/fhir/sid/telematik-id",
              "value": "3-SMC-B-Testkarte-883110000116873"
            }
          }
        ],
        "sender": {
          "identifier": {
            "system": "http://fhir.de/sid/gkv/kvid-10",
            "value": "X110498565"
          }
        },
        "payload": [
          {
            "extension": [
              {
                "url": "https://gematik.de/fhir/erp/StructureDefinition/GEM_ERP_EX_InsuranceProvider",
                "valueIdentifier": {
                  "system": "http://fhir.de/sid/arge-ik/iknr",
                  "value": "353897011"
                }
              },
              {
                "url": "https://gematik.de/fhir/erp/StructureDefinition/GEM_ERP_EX_SubstitutionAllowedType",
                "valueBoolean": true
              },
              {
                "url": "https://gematik.de/fhir/erp/StructureDefinition/GEM_ERP_EX_PrescriptionType",
                "valueCoding": {
                  "system": "https://gematik.de/fhir/erp/CodeSystem/GEM_ERP_CS_FlowType",
                  "code": "160",
                  "display": "Muster 16 (Apothekenpflichtige Arzneimittel)"
                }
              }
            ],
            "contentString": "You think you've got problems? What are you supposed to do if you are a manically depressed robot? No, don't try to answer that. I'm fifty thousand times more intelligent than you and even I don't know the answer. It gives me a headache just trying to think down to your level."
          }
        ]
      },
      "search": {
        "mode": "match"
      }
    },
    {
      "fullUrl": "https://erp-dev.zentral.erp.splitdns.ti-dienste.de/Communication/01eba381-a06a-3a08-22ef-4b263532403f",
      "resource": {
        "resourceType": "Communication",
        "id": "01eba381-a06a-3a08-22ef-4b263532403f",
        "meta": {
          "profile": [
            "https://gematik.de/fhir/erp/StructureDefinition/GEM_ERP_PR_Communication_InfoReq|1.2"
          ]
        },
        "contained": [
          {
            "resourceType": "Medication",
            "id": "adc0c77b-683e-4912-aeab-9954e3f3222b",
            "meta": {
              "profile": [
                "https://fhir.kbv.de/StructureDefinition/KBV_PR_ERP_Medication_PZN|1.1.0"
              ]
            },
            "extension": [
              {
                "url": "https://fhir.kbv.de/StructureDefinition/KBV_EX_Base_Medication_Type",
                "valueCodeableConcept": {
                  "coding": [
                    {
                      "system": "http://snomed.info/sct",
                      "version": "http://snomed.info/sct/900000000000207008/version/20220331",
                      "code": "763158003",
                      "display": "Medicinal product (product)"
                    }
                  ]
                }
              },
              {
                "url": "https://fhir.kbv.de/StructureDefinition/KBV_EX_ERP_Medication_Category",
                "valueCoding": {
                  "system": "https://fhir.kbv.de/CodeSystem/KBV_CS_ERP_Medication_Category",
                  "code": "00"
                }
              },
              {
                "url": "https://fhir.kbv.de/StructureDefinition/KBV_EX_ERP_Medication_Vaccine",
                "valueBoolean": false
              },
              {
                "url": "http://fhir.de/StructureDefinition/normgroesse",
                "valueCode": "N1"
              }
            ],
            "code": {
              "coding": [
                {
                  "system": "http://fhir.de/CodeSystem/ifa/pzn",
                  "code": "12345678"
                }
              ],
              "text": "Schmerzmittel"
            },
            "form": {
              "coding": [
                {
                  "system": "https://fhir.kbv.de/CodeSystem/KBV_CS_SFHIR_KBV_DARREICHUNGSFORM",
                  "code": "TAB"
                }
              ]
            },
            "amount": {
              "numerator": {
                "extension": [
                  {
                    "url": "https://fhir.kbv.de/StructureDefinition/KBV_EX_ERP_Medication_PackagingSize",
                    "valueString": "1"
                  }
                ],
                "unit": "Stk"
              },
              "denominator": {
                "value": 1
              }
            }
          }
        ],
        "basedOn": [
          {
            "reference": "Task/160.000.040.326.927.04"
          }
        ],
        "status": "unknown",
        "about": [
          {
            "reference": "#adc0c77b-683e-4912-aeab-9954e3f3222b"
          }
        ],
        "sent": "2023-04-18T22:25:02.357+00:00",
        "received": "2023-04-19T22:12:02.000+00:00",
        "recipient": [
          {
            "identifier": {
              "system": "https://gematik.de/fhir/sid/telematik-id",
              "value": "3-SMC-B-Testkarte-883110000116873"
            }
          }
        ],
        "sender": {
          "identifier": {
            "system": "http://fhir.de/sid/gkv/kvid-10",
            "value": "X110498565"
          }
        },
        "payload": [
          {
            "extension": [
              {
                "url": "https://gematik.de/fhir/erp/StructureDefinition/GEM_ERP_EX_InsuranceProvider",
                "valueIdentifier": {
                  "system": "http://fhir.de/sid/arge-ik/iknr",
                  "value": "578450861"
                }
              },
              {
                "url": "https://gematik.de/fhir/erp/StructureDefinition/GEM_ERP_EX_SubstitutionAllowedType",
                "valueBoolean": true
              },
              {
                "url": "https://gematik.de/fhir/erp/StructureDefinition/GEM_ERP_EX_PrescriptionType",
                "valueCoding": {
                  "system": "https://gematik.de/fhir/erp/CodeSystem/GEM_ERP_CS_FlowType",
                  "code": "160",
                  "display": "Muster 16 (Apothekenpflichtige Arzneimittel)"
                }
              }
            ],
            "contentString": "I think you ought to know I'm feeling very depressed."
          }
        ]
      },
      "search": {
        "mode": "match"
      }
    },
    {
      "fullUrl": "https://erp-dev.zentral.erp.splitdns.ti-dienste.de/Communication/01eba381-9fe5-eaf0-f1b9-adb6535e1cac",
      "resource": {
        "resourceType": "Communication",
        "id": "01eba381-9fe5-eaf0-f1b9-adb6535e1cac",
        "meta": {
          "profile": [
            "https://gematik.de/fhir/erp/StructureDefinition/GEM_ERP_PR_Communication_DispReq|1.2"
          ]
        },
        "basedOn": [
          {
            "reference": "/Task/160.000.040.326.926.07/$accept?ac=c301cc2ab88f34bed2edd81c938de249e03cbff7d555c8af3a88738b0351a014"
          }
        ],
        "status": "unknown",
        "sent": "2023-04-18T22:24:53.686+00:00",
        "received": "2023-04-19T22:12:02.000+00:00",
        "recipient": [
          {
            "identifier": {
              "system": "https://gematik.de/fhir/sid/telematik-id",
              "value": "3-SMC-B-Testkarte-883110000116873"
            }
          }
        ],
        "sender": {
          "identifier": {
            "system": "http://fhir.de/sid/gkv/kvid-10",
            "value": "X110498565"
          }
        },
        "payload": [
          {
            "contentString": "Stand tall, boy. Have some respect for yourself. Don't you know, if you let people walk over you now, they'll be walking over you for the rest of your life. Look at me. You think I'm gonna spend the rest of my life in this slop house?"
          }
        ]
      },
      "search": {
        "mode": "match"
      }
    },
    {
      "fullUrl": "https://erp-dev.zentral.erp.splitdns.ti-dienste.de/Communication/01eba381-7f9d-3d20-cc4c-22074c4eed23",
      "resource": {
        "resourceType": "Communication",
        "id": "01eba381-7f9d-3d20-cc4c-22074c4eed23",
        "meta": {
          "profile": [
            "https://gematik.de/fhir/erp/StructureDefinition/GEM_ERP_PR_Communication_Representative|1.2"
          ]
        },
        "basedOn": [
          {
            "reference": "/Task/160.000.040.326.893.09/$accept?ac=4d318370b5d04b6d08139a053361599be73e3f636bff789f6117f87698c23af3"
          }
        ],
        "status": "unknown",
        "sent": "2023-04-18T22:15:52.052+00:00",
        "received": "2023-04-18T22:15:52.000+00:00",
        "recipient": [
          {
            "identifier": {
              "system": "http://fhir.de/sid/gkv/kvid-10",
              "value": "X110465770"
            }
          }
        ],
        "sender": {
          "identifier": {
            "system": "http://fhir.de/sid/gkv/kvid-10",
            "value": "X110498565"
          }
        },
        "payload": [
          {
            "extension": [
              {
                "url": "https://gematik.de/fhir/erp/StructureDefinition/GEM_ERP_EX_SubstitutionAllowedType",
                "valueBoolean": true
              },
              {
                "url": "https://gematik.de/fhir/erp/StructureDefinition/GEM_ERP_EX_PrescriptionType",
                "valueCoding": {
                  "system": "https://gematik.de/fhir/erp/CodeSystem/GEM_ERP_CS_FlowType",
                  "code": "160",
                  "display": "Muster 16 (Apothekenpflichtige Arzneimittel)"
                }
              }
            ],
            "contentString": "Chuck Norris kann eine Bombe zerlegen – und zwar in ein Kaugummi, einen Faden, ein Streichholz und MacGyver."
          }
        ]
      },
      "search": {
        "mode": "match"
      }
    },
    {
      "fullUrl": "https://erp-dev.zentral.erp.splitdns.ti-dienste.de/Communication/01eba381-75ac-a328-9769-7aadfda8fa0f",
      "resource": {
        "resourceType": "Communication",
        "id": "01eba381-75ac-a328-9769-7aadfda8fa0f",
        "meta": {
          "profile": [
            "https://gematik.de/fhir/erp/StructureDefinition/GEM_ERP_PR_Communication_InfoReq|1.2"
          ]
        },
        "contained": [
          {
            "resourceType": "Medication",
            "id": "0a29161e-f52a-4495-a62f-3a170e472056",
            "meta": {
              "profile": [
                "https://fhir.kbv.de/StructureDefinition/KBV_PR_ERP_Medication_PZN|1.1.0"
              ]
            },
            "extension": [
              {
                "url": "https://fhir.kbv.de/StructureDefinition/KBV_EX_Base_Medication_Type",
                "valueCodeableConcept": {
                  "coding": [
                    {
                      "system": "http://snomed.info/sct",
                      "version": "http://snomed.info/sct/900000000000207008/version/20220331",
                      "code": "763158003",
                      "display": "Medicinal product (product)"
                    }
                  ]
                }
              },
              {
                "url": "https://fhir.kbv.de/StructureDefinition/KBV_EX_ERP_Medication_Category",
                "valueCoding": {
                  "system": "https://fhir.kbv.de/CodeSystem/KBV_CS_ERP_Medication_Category",
                  "code": "00"
                }
              },
              {
                "url": "https://fhir.kbv.de/StructureDefinition/KBV_EX_ERP_Medication_Vaccine",
                "valueBoolean": false
              },
              {
                "url": "http://fhir.de/StructureDefinition/normgroesse",
                "valueCode": "NB"
              }
            ],
            "code": {
              "coding": [
                {
                  "system": "http://fhir.de/CodeSystem/ifa/pzn",
                  "code": "12345678"
                }
              ],
              "text": "Schmerzmittel"
            },
            "form": {
              "coding": [
                {
                  "system": "https://fhir.kbv.de/CodeSystem/KBV_CS_SFHIR_KBV_DARREICHUNGSFORM",
                  "code": "TAB"
                }
              ]
            },
            "amount": {
              "numerator": {
                "extension": [
                  {
                    "url": "https://fhir.kbv.de/StructureDefinition/KBV_EX_ERP_Medication_PackagingSize",
                    "valueString": "1"
                  }
                ],
                "unit": "Stk"
              },
              "denominator": {
                "value": 1
              }
            }
          }
        ],
        "basedOn": [
          {
            "reference": "Task/160.000.040.326.870.78"
          }
        ],
        "status": "unknown",
        "about": [
          {
            "reference": "#0a29161e-f52a-4495-a62f-3a170e472056"
          }
        ],
        "sent": "2023-04-18T22:13:05.289+00:00",
        "recipient": [
          {
            "identifier": {
              "system": "https://gematik.de/fhir/sid/telematik-id",
              "value": "1-2-ARZT-BerndClaudius01"
            }
          }
        ],
        "sender": {
          "identifier": {
            "system": "http://fhir.de/sid/gkv/kvid-10",
            "value": "X110498565"
          }
        },
        "payload": [
          {
            "extension": [
              {
                "url": "https://gematik.de/fhir/erp/StructureDefinition/GEM_ERP_EX_InsuranceProvider",
                "valueIdentifier": {
                  "system": "http://fhir.de/sid/arge-ik/iknr",
                  "value": "731700790"
                }
              },
              {
                "url": "https://gematik.de/fhir/erp/StructureDefinition/GEM_ERP_EX_SubstitutionAllowedType",
                "valueBoolean": true
              },
              {
                "url": "https://gematik.de/fhir/erp/StructureDefinition/GEM_ERP_EX_PrescriptionType",
                "valueCoding": {
                  "system": "https://gematik.de/fhir/erp/CodeSystem/GEM_ERP_CS_FlowType",
                  "code": "160",
                  "display": "Muster 16 (Apothekenpflichtige Arzneimittel)"
                }
              }
            ],
            "contentString": "I think you ought to know I'm feeling very depressed."
          }
        ]
      },
      "search": {
        "mode": "match"
      }
    },
    {
      "fullUrl": "https://erp-dev.zentral.erp.splitdns.ti-dienste.de/Communication/01eba381-7511-7880-8d0f-3e780e3ef37e",
      "resource": {
        "resourceType": "Communication",
        "id": "01eba381-7511-7880-8d0f-3e780e3ef37e",
        "meta": {
          "profile": [
            "https://gematik.de/fhir/erp/StructureDefinition/GEM_ERP_PR_Communication_InfoReq|1.2"
          ]
        },
        "contained": [
          {
            "resourceType": "Medication",
            "id": "98fbbcd2-0fde-4099-9e30-73c175aa01ab",
            "meta": {
              "profile": [
                "https://fhir.kbv.de/StructureDefinition/KBV_PR_ERP_Medication_PZN|1.1.0"
              ]
            },
            "extension": [
              {
                "url": "https://fhir.kbv.de/StructureDefinition/KBV_EX_Base_Medication_Type",
                "valueCodeableConcept": {
                  "coding": [
                    {
                      "system": "http://snomed.info/sct",
                      "version": "http://snomed.info/sct/900000000000207008/version/20220331",
                      "code": "763158003",
                      "display": "Medicinal product (product)"
                    }
                  ]
                }
              },
              {
                "url": "https://fhir.kbv.de/StructureDefinition/KBV_EX_ERP_Medication_Category",
                "valueCoding": {
                  "system": "https://fhir.kbv.de/CodeSystem/KBV_CS_ERP_Medication_Category",
                  "code": "00"
                }
              },
              {
                "url": "https://fhir.kbv.de/StructureDefinition/KBV_EX_ERP_Medication_Vaccine",
                "valueBoolean": false
              },
              {
                "url": "http://fhir.de/StructureDefinition/normgroesse",
                "valueCode": "NB"
              }
            ],
            "code": {
              "coding": [
                {
                  "system": "http://fhir.de/CodeSystem/ifa/pzn",
                  "code": "12345678"
                }
              ],
              "text": "Schmerzmittel"
            },
            "form": {
              "coding": [
                {
                  "system": "https://fhir.kbv.de/CodeSystem/KBV_CS_SFHIR_KBV_DARREICHUNGSFORM",
                  "code": "TAB"
                }
              ]
            },
            "amount": {
              "numerator": {
                "extension": [
                  {
                    "url": "https://fhir.kbv.de/StructureDefinition/KBV_EX_ERP_Medication_PackagingSize",
                    "valueString": "1"
                  }
                ],
                "unit": "Stk"
              },
              "denominator": {
                "value": 1
              }
            }
          }
        ],
        "basedOn": [
          {
            "reference": "Task/160.000.040.326.869.81"
          }
        ],
        "status": "unknown",
        "about": [
          {
            "reference": "#98fbbcd2-0fde-4099-9e30-73c175aa01ab"
          }
        ],
        "sent": "2023-04-18T22:12:55.120+00:00",
        "received": "2023-04-18T22:12:55.000+00:00",
        "recipient": [
          {
            "identifier": {
              "system": "https://gematik.de/fhir/sid/telematik-id",
              "value": "3-SMC-B-Testkarte-883110000116873"
            }
          }
        ],
        "sender": {
          "identifier": {
            "system": "http://fhir.de/sid/gkv/kvid-10",
            "value": "X110498565"
          }
        },
        "payload": [
          {
            "extension": [
              {
                "url": "https://gematik.de/fhir/erp/StructureDefinition/GEM_ERP_EX_InsuranceProvider",
                "valueIdentifier": {
                  "system": "http://fhir.de/sid/arge-ik/iknr",
                  "value": "316753153"
                }
              },
              {
                "url": "https://gematik.de/fhir/erp/StructureDefinition/GEM_ERP_EX_SubstitutionAllowedType",
                "valueBoolean": true
              },
              {
                "url": "https://gematik.de/fhir/erp/StructureDefinition/GEM_ERP_EX_PrescriptionType",
                "valueCoding": {
                  "system": "https://gematik.de/fhir/erp/CodeSystem/GEM_ERP_CS_FlowType",
                  "code": "160",
                  "display": "Muster 16 (Apothekenpflichtige Arzneimittel)"
                }
              }
            ],
            "contentString": "You think you've got problems? What are you supposed to do if you are a manically depressed robot? No, don't try to answer that. I'm fifty thousand times more intelligent than you and even I don't know the answer. It gives me a headache just trying to think down to your level."
          }
        ]
      },
      "search": {
        "mode": "match"
      }
    },
    {
      "fullUrl": "https://erp-dev.zentral.erp.splitdns.ti-dienste.de/Communication/01eba381-74b3-f700-00f8-1a83ca10586d",
      "resource": {
        "resourceType": "Communication",
        "id": "01eba381-74b3-f700-00f8-1a83ca10586d",
        "meta": {
          "profile": [
            "https://gematik.de/fhir/erp/StructureDefinition/GEM_ERP_PR_Communication_Reply|1.2"
          ]
        },
        "basedOn": [
          {
            "reference": "Task/160.000.040.326.868.84"
          }
        ],
        "status": "unknown",
        "sent": "2023-04-18T22:12:48.992+00:00",
        "received": "2023-04-19T22:12:52.000+00:00",
        "recipient": [
          {
            "identifier": {
              "system": "http://fhir.de/sid/gkv/kvid-10",
              "value": "X110498565"
            }
          }
        ],
        "sender": {
          "identifier": {
            "system": "https://gematik.de/fhir/sid/telematik-id",
            "value": "3-SMC-B-Testkarte-883110000116873"
          }
        },
        "payload": [
          {
            "extension": [
              {
                "url": "https://gematik.de/fhir/erp/StructureDefinition/GEM_ERP_EX_AvailabilityState",
                "valueCoding": {
                  "system": "https://gematik.de/fhir/erp/CodeSystem/GEM_ERP_CS_AvailabilityStatus",
                  "code": "30"
                }
              },
              {
                "url": "https://gematik.de/fhir/erp/StructureDefinition/GEM_ERP_EX_SupplyOptionsType",
                "extension": [
                  {
                    "url": "onPremise",
                    "valueBoolean": true
                  },
                  {
                    "url": "delivery",
                    "valueBoolean": false
                  },
                  {
                    "url": "shipment",
                    "valueBoolean": false
                  }
                ]
              }
            ],
            "contentString": "When the snows fall and the white winds blow, the lone wolf dies but the pack survives."
          }
        ]
      },
      "search": {
        "mode": "match"
      }
    },
    {
      "fullUrl": "https://erp-dev.zentral.erp.splitdns.ti-dienste.de/Communication/01eba381-7205-03a0-bfef-d084e1d70eb6",
      "resource": {
        "resourceType": "Communication",
        "id": "01eba381-7205-03a0-bfef-d084e1d70eb6",
        "meta": {
          "profile": [
            "https://gematik.de/fhir/erp/StructureDefinition/GEM_ERP_PR_Communication_Reply|1.2"
          ]
        },
        "basedOn": [
          {
            "reference": "Task/160.000.040.326.863.02"
          }
        ],
        "status": "unknown",
        "sent": "2023-04-18T22:12:03.972+00:00",
        "received": "2023-04-18T22:12:40.000+00:00",
        "recipient": [
          {
            "identifier": {
              "system": "http://fhir.de/sid/gkv/kvid-10",
              "value": "X110498565"
            }
          }
        ],
        "sender": {
          "identifier": {
            "system": "https://gematik.de/fhir/sid/telematik-id",
            "value": "3-SMC-B-Testkarte-883110000116873"
          }
        },
        "payload": [
          {
            "extension": [
              {
                "url": "https://gematik.de/fhir/erp/StructureDefinition/GEM_ERP_EX_AvailabilityState",
                "valueCoding": {
                  "system": "https://gematik.de/fhir/erp/CodeSystem/GEM_ERP_CS_AvailabilityStatus",
                  "code": "30"
                }
              },
              {
                "url": "https://gematik.de/fhir/erp/StructureDefinition/GEM_ERP_EX_SupplyOptionsType",
                "extension": [
                  {
                    "url": "onPremise",
                    "valueBoolean": true
                  },
                  {
                    "url": "delivery",
                    "valueBoolean": false
                  },
                  {
                    "url": "shipment",
                    "valueBoolean": false
                  }
                ]
              }
            ],
            "contentString": "There are no heroes...in life, the monsters win."
          }
        ]
      },
      "search": {
        "mode": "match"
      }
    },
    {
      "fullUrl": "https://erp-dev.zentral.erp.splitdns.ti-dienste.de/Communication/01eba381-71eb-8448-fcf1-a2a21ac7e31c",
      "resource": {
        "resourceType": "Communication",
        "id": "01eba381-71eb-8448-fcf1-a2a21ac7e31c",
        "meta": {
          "profile": [
            "https://gematik.de/fhir/erp/StructureDefinition/GEM_ERP_PR_Communication_InfoReq|1.2"
          ]
        },
        "contained": [
          {
            "resourceType": "Medication",
            "id": "de255fb1-7911-4b97-bb16-6db2d12fe6af",
            "meta": {
              "profile": [
                "https://fhir.kbv.de/StructureDefinition/KBV_PR_ERP_Medication_PZN|1.1.0"
              ]
            },
            "extension": [
              {
                "url": "https://fhir.kbv.de/StructureDefinition/KBV_EX_Base_Medication_Type",
                "valueCodeableConcept": {
                  "coding": [
                    {
                      "system": "http://snomed.info/sct",
                      "version": "http://snomed.info/sct/900000000000207008/version/20220331",
                      "code": "763158003",
                      "display": "Medicinal product (product)"
                    }
                  ]
                }
              },
              {
                "url": "https://fhir.kbv.de/StructureDefinition/KBV_EX_ERP_Medication_Category",
                "valueCoding": {
                  "system": "https://fhir.kbv.de/CodeSystem/KBV_CS_ERP_Medication_Category",
                  "code": "00"
                }
              },
              {
                "url": "https://fhir.kbv.de/StructureDefinition/KBV_EX_ERP_Medication_Vaccine",
                "valueBoolean": false
              },
              {
                "url": "http://fhir.de/StructureDefinition/normgroesse",
                "valueCode": "NB"
              }
            ],
            "code": {
              "coding": [
                {
                  "system": "http://fhir.de/CodeSystem/ifa/pzn",
                  "code": "12345678"
                }
              ],
              "text": "Schmerzmittel"
            },
            "form": {
              "coding": [
                {
                  "system": "https://fhir.kbv.de/CodeSystem/KBV_CS_SFHIR_KBV_DARREICHUNGSFORM",
                  "code": "TAB"
                }
              ]
            },
            "amount": {
              "numerator": {
                "extension": [
                  {
                    "url": "https://fhir.kbv.de/StructureDefinition/KBV_EX_ERP_Medication_PackagingSize",
                    "valueString": "1"
                  }
                ],
                "unit": "Stk"
              },
              "denominator": {
                "value": 1
              }
            }
          }
        ],
        "basedOn": [
          {
            "reference": "Task/160.000.040.326.863.02"
          }
        ],
        "status": "unknown",
        "about": [
          {
            "reference": "#de255fb1-7911-4b97-bb16-6db2d12fe6af"
          }
        ],
        "sent": "2023-04-18T22:12:02.301+00:00",
        "received": "2023-04-18T22:12:02.000+00:00",
        "recipient": [
          {
            "identifier": {
              "system": "https://gematik.de/fhir/sid/telematik-id",
              "value": "3-SMC-B-Testkarte-883110000116873"
            }
          }
        ],
        "sender": {
          "identifier": {
            "system": "http://fhir.de/sid/gkv/kvid-10",
            "value": "X110498565"
          }
        },
        "payload": [
          {
            "extension": [
              {
                "url": "https://gematik.de/fhir/erp/StructureDefinition/GEM_ERP_EX_InsuranceProvider",
                "valueIdentifier": {
                  "system": "http://fhir.de/sid/arge-ik/iknr",
                  "value": "665248656"
                }
              },
              {
                "url": "https://gematik.de/fhir/erp/StructureDefinition/GEM_ERP_EX_SubstitutionAllowedType",
                "valueBoolean": true
              },
              {
                "url": "https://gematik.de/fhir/erp/StructureDefinition/GEM_ERP_EX_PrescriptionType",
                "valueCoding": {
                  "system": "https://gematik.de/fhir/erp/CodeSystem/GEM_ERP_CS_FlowType",
                  "code": "160",
                  "display": "Muster 16 (Apothekenpflichtige Arzneimittel)"
                }
              }
            ],
            "contentString": "I wish you'd just tell me rather trying to engage my enthusiasm, because I haven't got one."
          }
        ]
      },
      "search": {
        "mode": "match"
      }
    },
    {
      "fullUrl": "https://erp-dev.zentral.erp.splitdns.ti-dienste.de/Communication/01eba381-7126-cce8-8e0d-2ba85066b5b5",
      "resource": {
        "resourceType": "Communication",
        "id": "01eba381-7126-cce8-8e0d-2ba85066b5b5",
        "meta": {
          "profile": [
            "https://gematik.de/fhir/erp/StructureDefinition/GEM_ERP_PR_Communication_DispReq|1.2"
          ]
        },
        "basedOn": [
          {
            "reference": "/Task/160.000.040.326.862.05/$accept?ac=1dd872ad0d6a1e8dc93a71609549b1ce8c8908f31b79d45b80184f33220a4cba"
          }
        ],
        "status": "unknown",
        "sent": "2023-04-18T22:11:49.409+00:00",
        "received": "2023-04-18T22:11:50.000+00:00",
        "recipient": [
          {
            "identifier": {
              "system": "https://gematik.de/fhir/sid/telematik-id",
              "value": "3-SMC-B-Testkarte-883110000116873"
            }
          }
        ],
        "sender": {
          "identifier": {
            "system": "http://fhir.de/sid/gkv/kvid-10",
            "value": "X110498565"
          }
        },
        "payload": [
          {
            "contentString": "Okay, thank you. That's enough. Hold it now. Hold it. Hold it, fellas. I'm afraid you're just too darn loud. Next, please. Bring in the next group, please."
          }
        ]
      },
      "search": {
        "mode": "match"
      }
    },
    {
      "fullUrl": "https://erp-dev.zentral.erp.splitdns.ti-dienste.de/Communication/01eba374-87af-cf80-3ac1-d786980599ec",
      "resource": {
        "resourceType": "Communication",
        "id": "01eba374-87af-cf80-3ac1-d786980599ec",
        "meta": {
          "profile": [
            "https://gematik.de/fhir/erp/StructureDefinition/GEM_ERP_PR_Communication_InfoReq|1.2"
          ]
        },
        "contained": [
          {
            "resourceType": "Medication",
            "id": "6526100c-2760-47ba-9f76-54a766ca3cc7",
            "meta": {
              "profile": [
                "https://fhir.kbv.de/StructureDefinition/KBV_PR_ERP_Medication_PZN|1.1.0"
              ]
            },
            "extension": [
              {
                "url": "https://fhir.kbv.de/StructureDefinition/KBV_EX_Base_Medication_Type",
                "valueCodeableConcept": {
                  "coding": [
                    {
                      "system": "http://snomed.info/sct",
                      "version": "http://snomed.info/sct/900000000000207008/version/20220331",
                      "code": "763158003",
                      "display": "Medicinal product (product)"
                    }
                  ]
                }
              },
              {
                "url": "https://fhir.kbv.de/StructureDefinition/KBV_EX_ERP_Medication_Category",
                "valueCoding": {
                  "system": "https://fhir.kbv.de/CodeSystem/KBV_CS_ERP_Medication_Category",
                  "code": "00"
                }
              },
              {
                "url": "https://fhir.kbv.de/StructureDefinition/KBV_EX_ERP_Medication_Vaccine",
                "valueBoolean": false
              },
              {
                "url": "http://fhir.de/StructureDefinition/normgroesse",
                "valueCode": "N1"
              }
            ],
            "code": {
              "coding": [
                {
                  "system": "http://fhir.de/CodeSystem/ifa/pzn",
                  "code": "12345678"
                }
              ],
              "text": "Schmerzmittel"
            },
            "form": {
              "coding": [
                {
                  "system": "https://fhir.kbv.de/CodeSystem/KBV_CS_SFHIR_KBV_DARREICHUNGSFORM",
                  "code": "TAB"
                }
              ]
            },
            "amount": {
              "numerator": {
                "extension": [
                  {
                    "url": "https://fhir.kbv.de/StructureDefinition/KBV_EX_ERP_Medication_PackagingSize",
                    "valueString": "1"
                  }
                ],
                "unit": "Stk"
              },
              "denominator": {
                "value": 1
              }
            }
          }
        ],
        "basedOn": [
          {
            "reference": "Task/160.000.040.326.828.10"
          }
        ],
        "status": "unknown",
        "about": [
          {
            "reference": "#6526100c-2760-47ba-9f76-54a766ca3cc7"
          }
        ],
        "sent": "2023-04-18T06:47:32.912+00:00",
        "received": "2023-04-18T22:11:50.000+00:00",
        "recipient": [
          {
            "identifier": {
              "system": "https://gematik.de/fhir/sid/telematik-id",
              "value": "3-SMC-B-Testkarte-883110000116873"
            }
          }
        ],
        "sender": {
          "identifier": {
            "system": "http://fhir.de/sid/gkv/kvid-10",
            "value": "X110498565"
          }
        },
        "payload": [
          {
            "extension": [
              {
                "url": "https://gematik.de/fhir/erp/StructureDefinition/GEM_ERP_EX_InsuranceProvider",
                "valueIdentifier": {
                  "system": "http://fhir.de/sid/arge-ik/iknr",
                  "value": "081222316"
                }
              },
              {
                "url": "https://gematik.de/fhir/erp/StructureDefinition/GEM_ERP_EX_SubstitutionAllowedType",
                "valueBoolean": true
              },
              {
                "url": "https://gematik.de/fhir/erp/StructureDefinition/GEM_ERP_EX_PrescriptionType",
                "valueCoding": {
                  "system": "https://gematik.de/fhir/erp/CodeSystem/GEM_ERP_CS_FlowType",
                  "code": "160",
                  "display": "Muster 16 (Apothekenpflichtige Arzneimittel)"
                }
              }
            ],
            "contentString": "You think you've got problems? What are you supposed to do if you are a manically depressed robot? No, don't try to answer that. I'm fifty thousand times more intelligent than you and even I don't know the answer. It gives me a headache just trying to think down to your level."
          }
        ]
      },
      "search": {
        "mode": "match"
      }
    },
    {
      "fullUrl": "https://erp-dev.zentral.erp.splitdns.ti-dienste.de/Communication/01eba374-665e-29a8-26da-f9d5b081922f",
      "resource": {
        "resourceType": "Communication",
        "id": "01eba374-665e-29a8-26da-f9d5b081922f",
        "meta": {
          "profile": [
            "https://gematik.de/fhir/erp/StructureDefinition/GEM_ERP_PR_Communication_Representative|1.2"
          ]
        },
        "basedOn": [
          {
            "reference": "/Task/160.000.040.326.792.21/$accept?ac=34f110aeea5cd6dbfa9445daaf6adb34df4c43f14d30e5c69055c62b255fbe5a"
          }
        ],
        "status": "unknown",
        "sent": "2023-04-18T06:38:13.913+00:00",
        "received": "2023-04-18T06:38:14.000+00:00",
        "recipient": [
          {
            "identifier": {
              "system": "http://fhir.de/sid/gkv/kvid-10",
              "value": "X110465770"
            }
          }
        ],
        "sender": {
          "identifier": {
            "system": "http://fhir.de/sid/gkv/kvid-10",
            "value": "X110498565"
          }
        },
        "payload": [
          {
            "extension": [
              {
                "url": "https://gematik.de/fhir/erp/StructureDefinition/GEM_ERP_EX_SubstitutionAllowedType",
                "valueBoolean": true
              },
              {
                "url": "https://gematik.de/fhir/erp/StructureDefinition/GEM_ERP_EX_PrescriptionType",
                "valueCoding": {
                  "system": "https://gematik.de/fhir/erp/CodeSystem/GEM_ERP_CS_FlowType",
                  "code": "160",
                  "display": "Muster 16 (Apothekenpflichtige Arzneimittel)"
                }
              }
            ],
            "contentString": "Chuck Norris kann eine Bombe zerlegen – und zwar in ein Kaugummi, einen Faden, ein Streichholz und MacGyver."
          }
        ]
      },
      "search": {
        "mode": "match"
      }
    },
    {
      "fullUrl": "https://erp-dev.zentral.erp.splitdns.ti-dienste.de/Communication/01eba374-5c7f-db48-40cb-3379d287ebba",
      "resource": {
        "resourceType": "Communication",
        "id": "01eba374-5c7f-db48-40cb-3379d287ebba",
        "meta": {
          "profile": [
            "https://gematik.de/fhir/erp/StructureDefinition/GEM_ERP_PR_Communication_InfoReq|1.2"
          ]
        },
        "contained": [
          {
            "resourceType": "Medication",
            "id": "3d7df7dd-29a8-4474-b59e-70eff7351a0f",
            "meta": {
              "profile": [
                "https://fhir.kbv.de/StructureDefinition/KBV_PR_ERP_Medication_PZN|1.1.0"
              ]
            },
            "extension": [
              {
                "url": "https://fhir.kbv.de/StructureDefinition/KBV_EX_Base_Medication_Type",
                "valueCodeableConcept": {
                  "coding": [
                    {
                      "system": "http://snomed.info/sct",
                      "version": "http://snomed.info/sct/900000000000207008/version/20220331",
                      "code": "763158003",
                      "display": "Medicinal product (product)"
                    }
                  ]
                }
              },
              {
                "url": "https://fhir.kbv.de/StructureDefinition/KBV_EX_ERP_Medication_Category",
                "valueCoding": {
                  "system": "https://fhir.kbv.de/CodeSystem/KBV_CS_ERP_Medication_Category",
                  "code": "00"
                }
              },
              {
                "url": "https://fhir.kbv.de/StructureDefinition/KBV_EX_ERP_Medication_Vaccine",
                "valueBoolean": false
              },
              {
                "url": "http://fhir.de/StructureDefinition/normgroesse",
                "valueCode": "NB"
              }
            ],
            "code": {
              "coding": [
                {
                  "system": "http://fhir.de/CodeSystem/ifa/pzn",
                  "code": "12345678"
                }
              ],
              "text": "Schmerzmittel"
            },
            "form": {
              "coding": [
                {
                  "system": "https://fhir.kbv.de/CodeSystem/KBV_CS_SFHIR_KBV_DARREICHUNGSFORM",
                  "code": "TAB"
                }
              ]
            },
            "amount": {
              "numerator": {
                "extension": [
                  {
                    "url": "https://fhir.kbv.de/StructureDefinition/KBV_EX_ERP_Medication_PackagingSize",
                    "valueString": "1"
                  }
                ],
                "unit": "Stk"
              },
              "denominator": {
                "value": 1
              }
            }
          }
        ],
        "basedOn": [
          {
            "reference": "Task/160.000.040.326.769.90"
          }
        ],
        "status": "unknown",
        "about": [
          {
            "reference": "#3d7df7dd-29a8-4474-b59e-70eff7351a0f"
          }
        ],
        "sent": "2023-04-18T06:35:28.349+00:00",
        "recipient": [
          {
            "identifier": {
              "system": "https://gematik.de/fhir/sid/telematik-id",
              "value": "1-2-ARZT-BerndClaudius01"
            }
          }
        ],
        "sender": {
          "identifier": {
            "system": "http://fhir.de/sid/gkv/kvid-10",
            "value": "X110498565"
          }
        },
        "payload": [
          {
            "extension": [
              {
                "url": "https://gematik.de/fhir/erp/StructureDefinition/GEM_ERP_EX_InsuranceProvider",
                "valueIdentifier": {
                  "system": "http://fhir.de/sid/arge-ik/iknr",
                  "value": "014359963"
                }
              },
              {
                "url": "https://gematik.de/fhir/erp/StructureDefinition/GEM_ERP_EX_SubstitutionAllowedType",
                "valueBoolean": true
              },
              {
                "url": "https://gematik.de/fhir/erp/StructureDefinition/GEM_ERP_EX_PrescriptionType",
                "valueCoding": {
                  "system": "https://gematik.de/fhir/erp/CodeSystem/GEM_ERP_CS_FlowType",
                  "code": "160",
                  "display": "Muster 16 (Apothekenpflichtige Arzneimittel)"
                }
              }
            ],
            "contentString": "Pardon me for breathing, which I never do anyway so I don't know why I bother to say it, Oh God, I'm so depressed."
          }
        ]
      },
      "search": {
        "mode": "match"
      }
    },
    {
      "fullUrl": "https://erp-dev.zentral.erp.splitdns.ti-dienste.de/Communication/01eba374-5bde-bd30-6fd7-3575f590ebf6",
      "resource": {
        "resourceType": "Communication",
        "id": "01eba374-5bde-bd30-6fd7-3575f590ebf6",
        "meta": {
          "profile": [
            "https://gematik.de/fhir/erp/StructureDefinition/GEM_ERP_PR_Communication_InfoReq|1.2"
          ]
        },
        "contained": [
          {
            "resourceType": "Medication",
            "id": "78ca54e1-4e2b-4188-890f-28fc517da924",
            "meta": {
              "profile": [
                "https://fhir.kbv.de/StructureDefinition/KBV_PR_ERP_Medication_PZN|1.1.0"
              ]
            },
            "extension": [
              {
                "url": "https://fhir.kbv.de/StructureDefinition/KBV_EX_Base_Medication_Type",
                "valueCodeableConcept": {
                  "coding": [
                    {
                      "system": "http://snomed.info/sct",
                      "version": "http://snomed.info/sct/900000000000207008/version/20220331",
                      "code": "763158003",
                      "display": "Medicinal product (product)"
                    }
                  ]
                }
              },
              {
                "url": "https://fhir.kbv.de/StructureDefinition/KBV_EX_ERP_Medication_Category",
                "valueCoding": {
                  "system": "https://fhir.kbv.de/CodeSystem/KBV_CS_ERP_Medication_Category",
                  "code": "00"
                }
              },
              {
                "url": "https://fhir.kbv.de/StructureDefinition/KBV_EX_ERP_Medication_Vaccine",
                "valueBoolean": false
              },
              {
                "url": "http://fhir.de/StructureDefinition/normgroesse",
                "valueCode": "NB"
              }
            ],
            "code": {
              "coding": [
                {
                  "system": "http://fhir.de/CodeSystem/ifa/pzn",
                  "code": "12345678"
                }
              ],
              "text": "Schmerzmittel"
            },
            "form": {
              "coding": [
                {
                  "system": "https://fhir.kbv.de/CodeSystem/KBV_CS_SFHIR_KBV_DARREICHUNGSFORM",
                  "code": "TAB"
                }
              ]
            },
            "amount": {
              "numerator": {
                "extension": [
                  {
                    "url": "https://fhir.kbv.de/StructureDefinition/KBV_EX_ERP_Medication_PackagingSize",
                    "valueString": "1"
                  }
                ],
                "unit": "Stk"
              },
              "denominator": {
                "value": 1
              }
            }
          }
        ],
        "basedOn": [
          {
            "reference": "Task/160.000.040.326.768.93"
          }
        ],
        "status": "unknown",
        "about": [
          {
            "reference": "#78ca54e1-4e2b-4188-890f-28fc517da924"
          }
        ],
        "sent": "2023-04-18T06:35:17.790+00:00",
        "received": "2023-04-18T06:35:18.000+00:00",
        "recipient": [
          {
            "identifier": {
              "system": "https://gematik.de/fhir/sid/telematik-id",
              "value": "3-SMC-B-Testkarte-883110000116873"
            }
          }
        ],
        "sender": {
          "identifier": {
            "system": "http://fhir.de/sid/gkv/kvid-10",
            "value": "X110498565"
          }
        },
        "payload": [
          {
            "extension": [
              {
                "url": "https://gematik.de/fhir/erp/StructureDefinition/GEM_ERP_EX_InsuranceProvider",
                "valueIdentifier": {
                  "system": "http://fhir.de/sid/arge-ik/iknr",
                  "value": "012700728"
                }
              },
              {
                "url": "https://gematik.de/fhir/erp/StructureDefinition/GEM_ERP_EX_SubstitutionAllowedType",
                "valueBoolean": true
              },
              {
                "url": "https://gematik.de/fhir/erp/StructureDefinition/GEM_ERP_EX_PrescriptionType",
                "valueCoding": {
                  "system": "https://gematik.de/fhir/erp/CodeSystem/GEM_ERP_CS_FlowType",
                  "code": "160",
                  "display": "Muster 16 (Apothekenpflichtige Arzneimittel)"
                }
              }
            ],
            "contentString": "Here I am, brain the size of a planet, and they tell me to take you up to the bridge. Call that job satisfaction? 'Cos I don't."
          }
        ]
      },
      "search": {
        "mode": "match"
      }
    },
    {
      "fullUrl": "https://erp-dev.zentral.erp.splitdns.ti-dienste.de/Communication/01eba374-5b7f-20a0-95e3-488771bbe0b6",
      "resource": {
        "resourceType": "Communication",
        "id": "01eba374-5b7f-20a0-95e3-488771bbe0b6",
        "meta": {
          "profile": [
            "https://gematik.de/fhir/erp/StructureDefinition/GEM_ERP_PR_Communication_Reply|1.2"
          ]
        },
        "basedOn": [
          {
            "reference": "Task/160.000.040.326.767.96"
          }
        ],
        "status": "unknown",
        "sent": "2023-04-18T06:35:11.524+00:00",
        "received": "2023-04-18T22:12:40.000+00:00",
        "recipient": [
          {
            "identifier": {
              "system": "http://fhir.de/sid/gkv/kvid-10",
              "value": "X110498565"
            }
          }
        ],
        "sender": {
          "identifier": {
            "system": "https://gematik.de/fhir/sid/telematik-id",
            "value": "3-SMC-B-Testkarte-883110000116873"
          }
        },
        "payload": [
          {
            "extension": [
              {
                "url": "https://gematik.de/fhir/erp/StructureDefinition/GEM_ERP_EX_AvailabilityState",
                "valueCoding": {
                  "system": "https://gematik.de/fhir/erp/CodeSystem/GEM_ERP_CS_AvailabilityStatus",
                  "code": "30"
                }
              },
              {
                "url": "https://gematik.de/fhir/erp/StructureDefinition/GEM_ERP_EX_SupplyOptionsType",
                "extension": [
                  {
                    "url": "onPremise",
                    "valueBoolean": true
                  },
                  {
                    "url": "delivery",
                    "valueBoolean": false
                  },
                  {
                    "url": "shipment",
                    "valueBoolean": false
                  }
                ]
              }
            ],
            "contentString": "Nothing burns like the cold."
          }
        ]
      },
      "search": {
        "mode": "match"
      }
    },
    {
      "fullUrl": "https://erp-dev.zentral.erp.splitdns.ti-dienste.de/Communication/01eba374-5aee-61f0-c7da-401d4e8fce9b",
      "resource": {
        "resourceType": "Communication",
        "id": "01eba374-5aee-61f0-c7da-401d4e8fce9b",
        "meta": {
          "profile": [
            "https://gematik.de/fhir/erp/StructureDefinition/GEM_ERP_PR_Communication_DispReq|1.2"
          ]
        },
        "basedOn": [
          {
            "reference": "/Task/160.000.040.326.766.02/$accept?ac=4202cdc479b7325e23d94fc6377244351b1bbf80cd19fa3a6d52f90e3ebf7a57"
          }
        ],
        "status": "unknown",
        "sent": "2023-04-18T06:35:02.038+00:00",
        "received": "2023-04-18T06:35:10.000+00:00",
        "recipient": [
          {
            "identifier": {
              "system": "https://gematik.de/fhir/sid/telematik-id",
              "value": "3-SMC-B-Testkarte-883110000116873"
            }
          }
        ],
        "sender": {
          "identifier": {
            "system": "http://fhir.de/sid/gkv/kvid-10",
            "value": "X110498565"
          }
        },
        "payload": [
          {
            "contentString": "Crazy drunk driver."
          }
        ]
      },
      "search": {
        "mode": "match"
      }
    },
    {
      "fullUrl": "https://erp-dev.zentral.erp.splitdns.ti-dienste.de/Communication/01eba374-58d6-d078-ff6e-0c0cb0bf9bd9",
      "resource": {
        "resourceType": "Communication",
        "id": "01eba374-58d6-d078-ff6e-0c0cb0bf9bd9",
        "meta": {
          "profile": [
            "https://gematik.de/fhir/erp/StructureDefinition/GEM_ERP_PR_Communication_Reply|1.2"
          ]
        },
        "basedOn": [
          {
            "reference": "Task/160.000.040.326.762.14"
          }
        ],
        "status": "unknown",
        "sent": "2023-04-18T06:34:26.939+00:00",
        "received": "2023-04-18T22:12:40.000+00:00",
        "recipient": [
          {
            "identifier": {
              "system": "http://fhir.de/sid/gkv/kvid-10",
              "value": "X110498565"
            }
          }
        ],
        "sender": {
          "identifier": {
            "system": "https://gematik.de/fhir/sid/telematik-id",
            "value": "3-SMC-B-Testkarte-883110000116873"
          }
        },
        "payload": [
          {
            "extension": [
              {
                "url": "https://gematik.de/fhir/erp/StructureDefinition/GEM_ERP_EX_AvailabilityState",
                "valueCoding": {
                  "system": "https://gematik.de/fhir/erp/CodeSystem/GEM_ERP_CS_AvailabilityStatus",
                  "code": "30"
                }
              },
              {
                "url": "https://gematik.de/fhir/erp/StructureDefinition/GEM_ERP_EX_SupplyOptionsType",
                "extension": [
                  {
                    "url": "onPremise",
                    "valueBoolean": true
                  },
                  {
                    "url": "delivery",
                    "valueBoolean": false
                  },
                  {
                    "url": "shipment",
                    "valueBoolean": false
                  }
                ]
              }
            ],
            "contentString": "Nothing burns like the cold."
          }
        ]
      },
      "search": {
        "mode": "match"
      }
    },
    {
      "fullUrl": "https://erp-dev.zentral.erp.splitdns.ti-dienste.de/Communication/01eba374-58be-9d28-b4f5-310e223f59ea",
      "resource": {
        "resourceType": "Communication",
        "id": "01eba374-58be-9d28-b4f5-310e223f59ea",
        "meta": {
          "profile": [
            "https://gematik.de/fhir/erp/StructureDefinition/GEM_ERP_PR_Communication_InfoReq|1.2"
          ]
        },
        "contained": [
          {
            "resourceType": "Medication",
            "id": "4bcfbe55-800c-4c4c-8dfc-8bbb3acdfb4b",
            "meta": {
              "profile": [
                "https://fhir.kbv.de/StructureDefinition/KBV_PR_ERP_Medication_PZN|1.1.0"
              ]
            },
            "extension": [
              {
                "url": "https://fhir.kbv.de/StructureDefinition/KBV_EX_Base_Medication_Type",
                "valueCodeableConcept": {
                  "coding": [
                    {
                      "system": "http://snomed.info/sct",
                      "version": "http://snomed.info/sct/900000000000207008/version/20220331",
                      "code": "763158003",
                      "display": "Medicinal product (product)"
                    }
                  ]
                }
              },
              {
                "url": "https://fhir.kbv.de/StructureDefinition/KBV_EX_ERP_Medication_Category",
                "valueCoding": {
                  "system": "https://fhir.kbv.de/CodeSystem/KBV_CS_ERP_Medication_Category",
                  "code": "00"
                }
              },
              {
                "url": "https://fhir.kbv.de/StructureDefinition/KBV_EX_ERP_Medication_Vaccine",
                "valueBoolean": false
              },
              {
                "url": "http://fhir.de/StructureDefinition/normgroesse",
                "valueCode": "NB"
              }
            ],
            "code": {
              "coding": [
                {
                  "system": "http://fhir.de/CodeSystem/ifa/pzn",
                  "code": "12345678"
                }
              ],
              "text": "Schmerzmittel"
            },
            "form": {
              "coding": [
                {
                  "system": "https://fhir.kbv.de/CodeSystem/KBV_CS_SFHIR_KBV_DARREICHUNGSFORM",
                  "code": "TAB"
                }
              ]
            },
            "amount": {
              "numerator": {
                "extension": [
                  {
                    "url": "https://fhir.kbv.de/StructureDefinition/KBV_EX_ERP_Medication_PackagingSize",
                    "valueString": "1"
                  }
                ],
                "unit": "Stk"
              },
              "denominator": {
                "value": 1
              }
            }
          }
        ],
        "basedOn": [
          {
            "reference": "Task/160.000.040.326.762.14"
          }
        ],
        "status": "unknown",
        "about": [
          {
            "reference": "#4bcfbe55-800c-4c4c-8dfc-8bbb3acdfb4b"
          }
        ],
        "sent": "2023-04-18T06:34:25.353+00:00",
        "received": "2023-04-18T06:34:25.000+00:00",
        "recipient": [
          {
            "identifier": {
              "system": "https://gematik.de/fhir/sid/telematik-id",
              "value": "3-SMC-B-Testkarte-883110000116873"
            }
          }
        ],
        "sender": {
          "identifier": {
            "system": "http://fhir.de/sid/gkv/kvid-10",
            "value": "X110498565"
          }
        },
        "payload": [
          {
            "extension": [
              {
                "url": "https://gematik.de/fhir/erp/StructureDefinition/GEM_ERP_EX_InsuranceProvider",
                "valueIdentifier": {
                  "system": "http://fhir.de/sid/arge-ik/iknr",
                  "value": "940961402"
                }
              },
              {
                "url": "https://gematik.de/fhir/erp/StructureDefinition/GEM_ERP_EX_SubstitutionAllowedType",
                "valueBoolean": true
              },
              {
                "url": "https://gematik.de/fhir/erp/StructureDefinition/GEM_ERP_EX_PrescriptionType",
                "valueCoding": {
                  "system": "https://gematik.de/fhir/erp/CodeSystem/GEM_ERP_CS_FlowType",
                  "code": "160",
                  "display": "Muster 16 (Apothekenpflichtige Arzneimittel)"
                }
              }
            ],
            "contentString": "I won't enjoy it."
          }
        ]
      },
      "search": {
        "mode": "match"
      }
    },
    {
      "fullUrl": "https://erp-dev.zentral.erp.splitdns.ti-dienste.de/Communication/01eba36d-82f4-62c8-795d-e5873edefbe7",
      "resource": {
        "resourceType": "Communication",
        "id": "01eba36d-82f4-62c8-795d-e5873edefbe7",
        "meta": {
          "profile": [
            "https://gematik.de/fhir/erp/StructureDefinition/GEM_ERP_PR_Communication_InfoReq|1.2"
          ]
        },
        "contained": [
          {
            "resourceType": "Medication",
            "id": "a2c6f964-66de-4d43-9391-b0c9bbc76e2d",
            "meta": {
              "profile": [
                "https://fhir.kbv.de/StructureDefinition/KBV_PR_ERP_Medication_PZN|1.1.0"
              ]
            },
            "extension": [
              {
                "url": "https://fhir.kbv.de/StructureDefinition/KBV_EX_Base_Medication_Type",
                "valueCodeableConcept": {
                  "coding": [
                    {
                      "system": "http://snomed.info/sct",
                      "version": "http://snomed.info/sct/900000000000207008/version/20220331",
                      "code": "763158003",
                      "display": "Medicinal product (product)"
                    }
                  ]
                }
              },
              {
                "url": "https://fhir.kbv.de/StructureDefinition/KBV_EX_ERP_Medication_Category",
                "valueCoding": {
                  "system": "https://fhir.kbv.de/CodeSystem/KBV_CS_ERP_Medication_Category",
                  "code": "00"
                }
              },
              {
                "url": "https://fhir.kbv.de/StructureDefinition/KBV_EX_ERP_Medication_Vaccine",
                "valueBoolean": false
              },
              {
                "url": "http://fhir.de/StructureDefinition/normgroesse",
                "valueCode": "N1"
              }
            ],
            "code": {
              "coding": [
                {
                  "system": "http://fhir.de/CodeSystem/ifa/pzn",
                  "code": "12345678"
                }
              ],
              "text": "Schmerzmittel"
            },
            "form": {
              "coding": [
                {
                  "system": "https://fhir.kbv.de/CodeSystem/KBV_CS_SFHIR_KBV_DARREICHUNGSFORM",
                  "code": "TAB"
                }
              ]
            },
            "amount": {
              "numerator": {
                "extension": [
                  {
                    "url": "https://fhir.kbv.de/StructureDefinition/KBV_EX_ERP_Medication_PackagingSize",
                    "valueString": "1"
                  }
                ],
                "unit": "Stk"
              },
              "denominator": {
                "value": 1
              }
            }
          }
        ],
        "basedOn": [
          {
            "reference": "Task/160.000.040.326.541.95"
          }
        ],
        "status": "unknown",
        "about": [
          {
            "reference": "#a2c6f964-66de-4d43-9391-b0c9bbc76e2d"
          }
        ],
        "sent": "2023-04-17T22:25:08.749+00:00",
        "received": "2023-04-18T06:34:13.000+00:00",
        "recipient": [
          {
            "identifier": {
              "system": "https://gematik.de/fhir/sid/telematik-id",
              "value": "3-SMC-B-Testkarte-883110000116873"
            }
          }
        ],
        "sender": {
          "identifier": {
            "system": "http://fhir.de/sid/gkv/kvid-10",
            "value": "X110498565"
          }
        },
        "payload": [
          {
            "extension": [
              {
                "url": "https://gematik.de/fhir/erp/StructureDefinition/GEM_ERP_EX_InsuranceProvider",
                "valueIdentifier": {
                  "system": "http://fhir.de/sid/arge-ik/iknr",
                  "value": "347767985"
                }
              },
              {
                "url": "https://gematik.de/fhir/erp/StructureDefinition/GEM_ERP_EX_SubstitutionAllowedType",
                "valueBoolean": true
              },
              {
                "url": "https://gematik.de/fhir/erp/StructureDefinition/GEM_ERP_EX_PrescriptionType",
                "valueCoding": {
                  "system": "https://gematik.de/fhir/erp/CodeSystem/GEM_ERP_CS_FlowType",
                  "code": "160",
                  "display": "Muster 16 (Apothekenpflichtige Arzneimittel)"
                }
              }
            ],
            "contentString": "I think you ought to know I'm feeling very depressed."
          }
        ]
      },
      "search": {
        "mode": "match"
      }
    },
    {
      "fullUrl": "https://erp-dev.zentral.erp.splitdns.ti-dienste.de/Communication/01eba36d-8274-f998-06fb-c4ce6d85594f",
      "resource": {
        "resourceType": "Communication",
        "id": "01eba36d-8274-f998-06fb-c4ce6d85594f",
        "meta": {
          "profile": [
            "https://gematik.de/fhir/erp/StructureDefinition/GEM_ERP_PR_Communication_DispReq|1.2"
          ]
        },
        "basedOn": [
          {
            "reference": "/Task/160.000.040.326.540.98/$accept?ac=b2040b2a2ba1e30b06c95042f80ad9c3d13b602e63e222e15cde8d10578e90c3"
          }
        ],
        "status": "unknown",
        "sent": "2023-04-17T22:25:00.399+00:00",
        "received": "2023-04-18T06:34:13.000+00:00",
        "recipient": [
          {
            "identifier": {
              "system": "https://gematik.de/fhir/sid/telematik-id",
              "value": "3-SMC-B-Testkarte-883110000116873"
            }
          }
        ],
        "sender": {
          "identifier": {
            "system": "http://fhir.de/sid/gkv/kvid-10",
            "value": "X110498565"
          }
        },
        "payload": [
          {
            "contentString": "Marty, will we ever see you again?"
          }
        ]
      },
      "search": {
        "mode": "match"
      }
    },
    {
      "fullUrl": "https://erp-dev.zentral.erp.splitdns.ti-dienste.de/Communication/01eba36d-625e-19c8-9929-d36a01ba3cc9",
      "resource": {
        "resourceType": "Communication",
        "id": "01eba36d-625e-19c8-9929-d36a01ba3cc9",
        "meta": {
          "profile": [
            "https://gematik.de/fhir/erp/StructureDefinition/GEM_ERP_PR_Communication_Representative|1.2"
          ]
        },
        "basedOn": [
          {
            "reference": "/Task/160.000.040.326.507.03/$accept?ac=1e61dbb2916b29fc63e2c3a9b2fc6932380e613f7919ba9097f1b8841f1d9ba6"
          }
        ],
        "status": "unknown",
        "sent": "2023-04-17T22:16:02.029+00:00",
        "received": "2023-04-17T22:16:02.000+00:00",
        "recipient": [
          {
            "identifier": {
              "system": "http://fhir.de/sid/gkv/kvid-10",
              "value": "X110465770"
            }
          }
        ],
        "sender": {
          "identifier": {
            "system": "http://fhir.de/sid/gkv/kvid-10",
            "value": "X110498565"
          }
        },
        "payload": [
          {
            "extension": [
              {
                "url": "https://gematik.de/fhir/erp/StructureDefinition/GEM_ERP_EX_SubstitutionAllowedType",
                "valueBoolean": true
              },
              {
                "url": "https://gematik.de/fhir/erp/StructureDefinition/GEM_ERP_EX_PrescriptionType",
                "valueCoding": {
                  "system": "https://gematik.de/fhir/erp/CodeSystem/GEM_ERP_CS_FlowType",
                  "code": "160",
                  "display": "Muster 16 (Apothekenpflichtige Arzneimittel)"
                }
              }
            ],
            "contentString": "Chuck Norris‘ Passwort? Die Zahl Pi."
          }
        ]
      },
      "search": {
        "mode": "match"
      }
    },
    {
      "fullUrl": "https://erp-dev.zentral.erp.splitdns.ti-dienste.de/Communication/01eba36d-5876-6cf8-4927-5301c3d9c557",
      "resource": {
        "resourceType": "Communication",
        "id": "01eba36d-5876-6cf8-4927-5301c3d9c557",
        "meta": {
          "profile": [
            "https://gematik.de/fhir/erp/StructureDefinition/GEM_ERP_PR_Communication_InfoReq|1.2"
          ]
        },
        "contained": [
          {
            "resourceType": "Medication",
            "id": "80451941-c949-4ca3-982a-99534e5fdc44",
            "meta": {
              "profile": [
                "https://fhir.kbv.de/StructureDefinition/KBV_PR_ERP_Medication_PZN|1.1.0"
              ]
            },
            "extension": [
              {
                "url": "https://fhir.kbv.de/StructureDefinition/KBV_EX_Base_Medication_Type",
                "valueCodeableConcept": {
                  "coding": [
                    {
                      "system": "http://snomed.info/sct",
                      "version": "http://snomed.info/sct/900000000000207008/version/20220331",
                      "code": "763158003",
                      "display": "Medicinal product (product)"
                    }
                  ]
                }
              },
              {
                "url": "https://fhir.kbv.de/StructureDefinition/KBV_EX_ERP_Medication_Category",
                "valueCoding": {
                  "system": "https://fhir.kbv.de/CodeSystem/KBV_CS_ERP_Medication_Category",
                  "code": "00"
                }
              },
              {
                "url": "https://fhir.kbv.de/StructureDefinition/KBV_EX_ERP_Medication_Vaccine",
                "valueBoolean": false
              },
              {
                "url": "http://fhir.de/StructureDefinition/normgroesse",
                "valueCode": "NB"
              }
            ],
            "code": {
              "coding": [
                {
                  "system": "http://fhir.de/CodeSystem/ifa/pzn",
                  "code": "12345678"
                }
              ],
              "text": "Schmerzmittel"
            },
            "form": {
              "coding": [
                {
                  "system": "https://fhir.kbv.de/CodeSystem/KBV_CS_SFHIR_KBV_DARREICHUNGSFORM",
                  "code": "TAB"
                }
              ]
            },
            "amount": {
              "numerator": {
                "extension": [
                  {
                    "url": "https://fhir.kbv.de/StructureDefinition/KBV_EX_ERP_Medication_PackagingSize",
                    "valueString": "1"
                  }
                ],
                "unit": "Stk"
              },
              "denominator": {
                "value": 1
              }
            }
          }
        ],
        "basedOn": [
          {
            "reference": "Task/160.000.040.326.484.72"
          }
        ],
        "status": "unknown",
        "about": [
          {
            "reference": "#80451941-c949-4ca3-982a-99534e5fdc44"
          }
        ],
        "sent": "2023-04-17T22:13:15.851+00:00",
        "recipient": [
          {
            "identifier": {
              "system": "https://gematik.de/fhir/sid/telematik-id",
              "value": "1-2-ARZT-BerndClaudius01"
            }
          }
        ],
        "sender": {
          "identifier": {
            "system": "http://fhir.de/sid/gkv/kvid-10",
            "value": "X110498565"
          }
        },
        "payload": [
          {
            "extension": [
              {
                "url": "https://gematik.de/fhir/erp/StructureDefinition/GEM_ERP_EX_InsuranceProvider",
                "valueIdentifier": {
                  "system": "http://fhir.de/sid/arge-ik/iknr",
                  "value": "448936798"
                }
              },
              {
                "url": "https://gematik.de/fhir/erp/StructureDefinition/GEM_ERP_EX_SubstitutionAllowedType",
                "valueBoolean": true
              },
              {
                "url": "https://gematik.de/fhir/erp/StructureDefinition/GEM_ERP_EX_PrescriptionType",
                "valueCoding": {
                  "system": "https://gematik.de/fhir/erp/CodeSystem/GEM_ERP_CS_FlowType",
                  "code": "160",
                  "display": "Muster 16 (Apothekenpflichtige Arzneimittel)"
                }
              }
            ],
            "contentString": "Life? Don't talk to me about life."
          }
        ]
      },
      "search": {
        "mode": "match"
      }
    },
    {
      "fullUrl": "https://erp-dev.zentral.erp.splitdns.ti-dienste.de/Communication/01eba36d-57da-2910-039d-a897873cd0ac",
      "resource": {
        "resourceType": "Communication",
        "id": "01eba36d-57da-2910-039d-a897873cd0ac",
        "meta": {
          "profile": [
            "https://gematik.de/fhir/erp/StructureDefinition/GEM_ERP_PR_Communication_InfoReq|1.2"
          ]
        },
        "contained": [
          {
            "resourceType": "Medication",
            "id": "b048b1c4-2db4-47f2-af9c-18aa17cf489c",
            "meta": {
              "profile": [
                "https://fhir.kbv.de/StructureDefinition/KBV_PR_ERP_Medication_PZN|1.1.0"
              ]
            },
            "extension": [
              {
                "url": "https://fhir.kbv.de/StructureDefinition/KBV_EX_Base_Medication_Type",
                "valueCodeableConcept": {
                  "coding": [
                    {
                      "system": "http://snomed.info/sct",
                      "version": "http://snomed.info/sct/900000000000207008/version/20220331",
                      "code": "763158003",
                      "display": "Medicinal product (product)"
                    }
                  ]
                }
              },
              {
                "url": "https://fhir.kbv.de/StructureDefinition/KBV_EX_ERP_Medication_Category",
                "valueCoding": {
                  "system": "https://fhir.kbv.de/CodeSystem/KBV_CS_ERP_Medication_Category",
                  "code": "00"
                }
              },
              {
                "url": "https://fhir.kbv.de/StructureDefinition/KBV_EX_ERP_Medication_Vaccine",
                "valueBoolean": false
              },
              {
                "url": "http://fhir.de/StructureDefinition/normgroesse",
                "valueCode": "NB"
              }
            ],
            "code": {
              "coding": [
                {
                  "system": "http://fhir.de/CodeSystem/ifa/pzn",
                  "code": "12345678"
                }
              ],
              "text": "Schmerzmittel"
            },
            "form": {
              "coding": [
                {
                  "system": "https://fhir.kbv.de/CodeSystem/KBV_CS_SFHIR_KBV_DARREICHUNGSFORM",
                  "code": "TAB"
                }
              ]
            },
            "amount": {
              "numerator": {
                "extension": [
                  {
                    "url": "https://fhir.kbv.de/StructureDefinition/KBV_EX_ERP_Medication_PackagingSize",
                    "valueString": "1"
                  }
                ],
                "unit": "Stk"
              },
              "denominator": {
                "value": 1
              }
            }
          }
        ],
        "basedOn": [
          {
            "reference": "Task/160.000.040.326.483.75"
          }
        ],
        "status": "unknown",
        "about": [
          {
            "reference": "#b048b1c4-2db4-47f2-af9c-18aa17cf489c"
          }
        ],
        "sent": "2023-04-17T22:13:05.610+00:00",
        "received": "2023-04-17T22:13:06.000+00:00",
        "recipient": [
          {
            "identifier": {
              "system": "https://gematik.de/fhir/sid/telematik-id",
              "value": "3-SMC-B-Testkarte-883110000116873"
            }
          }
        ],
        "sender": {
          "identifier": {
            "system": "http://fhir.de/sid/gkv/kvid-10",
            "value": "X110498565"
          }
        },
        "payload": [
          {
            "extension": [
              {
                "url": "https://gematik.de/fhir/erp/StructureDefinition/GEM_ERP_EX_InsuranceProvider",
                "valueIdentifier": {
                  "system": "http://fhir.de/sid/arge-ik/iknr",
                  "value": "016124248"
                }
              },
              {
                "url": "https://gematik.de/fhir/erp/StructureDefinition/GEM_ERP_EX_SubstitutionAllowedType",
                "valueBoolean": true
              },
              {
                "url": "https://gematik.de/fhir/erp/StructureDefinition/GEM_ERP_EX_PrescriptionType",
                "valueCoding": {
                  "system": "https://gematik.de/fhir/erp/CodeSystem/GEM_ERP_CS_FlowType",
                  "code": "160",
                  "display": "Muster 16 (Apothekenpflichtige Arzneimittel)"
                }
              }
            ],
            "contentString": "I wish you'd just tell me rather trying to engage my enthusiasm, because I haven't got one."
          }
        ]
      },
      "search": {
        "mode": "match"
      }
    },
    {
      "fullUrl": "https://erp-dev.zentral.erp.splitdns.ti-dienste.de/Communication/01eba36d-5773-83b8-7bcd-f28f77847828",
      "resource": {
        "resourceType": "Communication",
        "id": "01eba36d-5773-83b8-7bcd-f28f77847828",
        "meta": {
          "profile": [
            "https://gematik.de/fhir/erp/StructureDefinition/GEM_ERP_PR_Communication_Reply|1.2"
          ]
        },
        "basedOn": [
          {
            "reference": "Task/160.000.040.326.482.78"
          }
        ],
        "status": "unknown",
        "sent": "2023-04-17T22:12:58.883+00:00",
        "received": "2023-04-18T22:12:40.000+00:00",
        "recipient": [
          {
            "identifier": {
              "system": "http://fhir.de/sid/gkv/kvid-10",
              "value": "X110498565"
            }
          }
        ],
        "sender": {
          "identifier": {
            "system": "https://gematik.de/fhir/sid/telematik-id",
            "value": "3-SMC-B-Testkarte-883110000116873"
          }
        },
        "payload": [
          {
            "extension": [
              {
                "url": "https://gematik.de/fhir/erp/StructureDefinition/GEM_ERP_EX_AvailabilityState",
                "valueCoding": {
                  "system": "https://gematik.de/fhir/erp/CodeSystem/GEM_ERP_CS_AvailabilityStatus",
                  "code": "30"
                }
              },
              {
                "url": "https://gematik.de/fhir/erp/StructureDefinition/GEM_ERP_EX_SupplyOptionsType",
                "extension": [
                  {
                    "url": "onPremise",
                    "valueBoolean": true
                  },
                  {
                    "url": "delivery",
                    "valueBoolean": false
                  },
                  {
                    "url": "shipment",
                    "valueBoolean": false
                  }
                ]
              }
            ],
            "contentString": "Summer will end soon enough, and childhood as well."
          }
        ]
      },
      "search": {
        "mode": "match"
      }
    },
    {
      "fullUrl": "https://erp-dev.zentral.erp.splitdns.ti-dienste.de/Communication/01eba36d-54b6-b190-8f9e-9426b96b5924",
      "resource": {
        "resourceType": "Communication",
        "id": "01eba36d-54b6-b190-8f9e-9426b96b5924",
        "meta": {
          "profile": [
            "https://gematik.de/fhir/erp/StructureDefinition/GEM_ERP_PR_Communication_Reply|1.2"
          ]
        },
        "basedOn": [
          {
            "reference": "Task/160.000.040.326.477.93"
          }
        ],
        "status": "unknown",
        "sent": "2023-04-17T22:12:12.954+00:00",
        "received": "2023-04-17T22:12:49.000+00:00",
        "recipient": [
          {
            "identifier": {
              "system": "http://fhir.de/sid/gkv/kvid-10",
              "value": "X110498565"
            }
          }
        ],
        "sender": {
          "identifier": {
            "system": "https://gematik.de/fhir/sid/telematik-id",
            "value": "3-SMC-B-Testkarte-883110000116873"
          }
        },
        "payload": [
          {
            "extension": [
              {
                "url": "https://gematik.de/fhir/erp/StructureDefinition/GEM_ERP_EX_AvailabilityState",
                "valueCoding": {
                  "system": "https://gematik.de/fhir/erp/CodeSystem/GEM_ERP_CS_AvailabilityStatus",
                  "code": "30"
                }
              },
              {
                "url": "https://gematik.de/fhir/erp/StructureDefinition/GEM_ERP_EX_SupplyOptionsType",
                "extension": [
                  {
                    "url": "onPremise",
                    "valueBoolean": true
                  },
                  {
                    "url": "delivery",
                    "valueBoolean": false
                  },
                  {
                    "url": "shipment",
                    "valueBoolean": false
                  }
                ]
              }
            ],
            "contentString": "Fear cuts deeper than swords."
          }
        ]
      },
      "search": {
        "mode": "match"
      }
    },
    {
      "fullUrl": "https://erp-dev.zentral.erp.splitdns.ti-dienste.de/Communication/01eba36d-549e-6ea0-91b1-b67024d333d0",
      "resource": {
        "resourceType": "Communication",
        "id": "01eba36d-549e-6ea0-91b1-b67024d333d0",
        "meta": {
          "profile": [
            "https://gematik.de/fhir/erp/StructureDefinition/GEM_ERP_PR_Communication_InfoReq|1.2"
          ]
        },
        "contained": [
          {
            "resourceType": "Medication",
            "id": "67b75420-4a91-463d-af97-e3ed9237bd54",
            "meta": {
              "profile": [
                "https://fhir.kbv.de/StructureDefinition/KBV_PR_ERP_Medication_PZN|1.1.0"
              ]
            },
            "extension": [
              {
                "url": "https://fhir.kbv.de/StructureDefinition/KBV_EX_Base_Medication_Type",
                "valueCodeableConcept": {
                  "coding": [
                    {
                      "system": "http://snomed.info/sct",
                      "version": "http://snomed.info/sct/900000000000207008/version/20220331",
                      "code": "763158003",
                      "display": "Medicinal product (product)"
                    }
                  ]
                }
              },
              {
                "url": "https://fhir.kbv.de/StructureDefinition/KBV_EX_ERP_Medication_Category",
                "valueCoding": {
                  "system": "https://fhir.kbv.de/CodeSystem/KBV_CS_ERP_Medication_Category",
                  "code": "00"
                }
              },
              {
                "url": "https://fhir.kbv.de/StructureDefinition/KBV_EX_ERP_Medication_Vaccine",
                "valueBoolean": false
              },
              {
                "url": "http://fhir.de/StructureDefinition/normgroesse",
                "valueCode": "NB"
              }
            ],
            "code": {
              "coding": [
                {
                  "system": "http://fhir.de/CodeSystem/ifa/pzn",
                  "code": "12345678"
                }
              ],
              "text": "Schmerzmittel"
            },
            "form": {
              "coding": [
                {
                  "system": "https://fhir.kbv.de/CodeSystem/KBV_CS_SFHIR_KBV_DARREICHUNGSFORM",
                  "code": "TAB"
                }
              ]
            },
            "amount": {
              "numerator": {
                "extension": [
                  {
                    "url": "https://fhir.kbv.de/StructureDefinition/KBV_EX_ERP_Medication_PackagingSize",
                    "valueString": "1"
                  }
                ],
                "unit": "Stk"
              },
              "denominator": {
                "value": 1
              }
            }
          }
        ],
        "basedOn": [
          {
            "reference": "Task/160.000.040.326.477.93"
          }
        ],
        "status": "unknown",
        "about": [
          {
            "reference": "#67b75420-4a91-463d-af97-e3ed9237bd54"
          }
        ],
        "sent": "2023-04-17T22:12:11.364+00:00",
        "received": "2023-04-17T22:12:12.000+00:00",
        "recipient": [
          {
            "identifier": {
              "system": "https://gematik.de/fhir/sid/telematik-id",
              "value": "3-SMC-B-Testkarte-883110000116873"
            }
          }
        ],
        "sender": {
          "identifier": {
            "system": "http://fhir.de/sid/gkv/kvid-10",
            "value": "X110498565"
          }
        },
        "payload": [
          {
            "extension": [
              {
                "url": "https://gematik.de/fhir/erp/StructureDefinition/GEM_ERP_EX_InsuranceProvider",
                "valueIdentifier": {
                  "system": "http://fhir.de/sid/arge-ik/iknr",
                  "value": "531040642"
                }
              },
              {
                "url": "https://gematik.de/fhir/erp/StructureDefinition/GEM_ERP_EX_SubstitutionAllowedType",
                "valueBoolean": true
              },
              {
                "url": "https://gematik.de/fhir/erp/StructureDefinition/GEM_ERP_EX_PrescriptionType",
                "valueCoding": {
                  "system": "https://gematik.de/fhir/erp/CodeSystem/GEM_ERP_CS_FlowType",
                  "code": "160",
                  "display": "Muster 16 (Apothekenpflichtige Arzneimittel)"
                }
              }
            ],
            "contentString": "I think you ought to know I'm feeling very depressed."
          }
        ]
      },
      "search": {
        "mode": "match"
      }
    },
    {
      "fullUrl": "https://erp-dev.zentral.erp.splitdns.ti-dienste.de/Communication/01eba36d-53d6-5028-202d-09ddcc67bc33",
      "resource": {
        "resourceType": "Communication",
        "id": "01eba36d-53d6-5028-202d-09ddcc67bc33",
        "meta": {
          "profile": [
            "https://gematik.de/fhir/erp/StructureDefinition/GEM_ERP_PR_Communication_DispReq|1.2"
          ]
        },
        "basedOn": [
          {
            "reference": "/Task/160.000.040.326.476.96/$accept?ac=da0e13c9aa7e4c4ff2abf5706bbdc9bc32ce483b09ee752522d5d587166e5a55"
          }
        ],
        "status": "unknown",
        "sent": "2023-04-17T22:11:58.249+00:00",
        "received": "2023-04-17T22:11:59.000+00:00",
        "recipient": [
          {
            "identifier": {
              "system": "https://gematik.de/fhir/sid/telematik-id",
              "value": "3-SMC-B-Testkarte-883110000116873"
            }
          }
        ],
        "sender": {
          "identifier": {
            "system": "http://fhir.de/sid/gkv/kvid-10",
            "value": "X110498565"
          }
        },
        "payload": [
          {
            "contentString": "You caused 300 bucks damage to my car, you son of a bitch. And I'm gonna take it out of your ass."
          }
        ]
      },
      "search": {
        "mode": "match"
      }
    },
    {
      "fullUrl": "https://erp-dev.zentral.erp.splitdns.ti-dienste.de/Communication/01eba31d-0a98-f2f8-06e7-fbdc68e04b35",
      "resource": {
        "resourceType": "Communication",
        "id": "01eba31d-0a98-f2f8-06e7-fbdc68e04b35",
        "meta": {
          "profile": [
            "https://gematik.de/fhir/erp/StructureDefinition/GEM_ERP_PR_Communication_InfoReq|1.2"
          ]
        },
        "contained": [
          {
            "resourceType": "Medication",
            "id": "15a5340f-7260-41bf-b66b-f253f1b67926",
            "meta": {
              "profile": [
                "https://fhir.kbv.de/StructureDefinition/KBV_PR_ERP_Medication_PZN|1.1.0"
              ]
            },
            "extension": [
              {
                "url": "https://fhir.kbv.de/StructureDefinition/KBV_EX_Base_Medication_Type",
                "valueCodeableConcept": {
                  "coding": [
                    {
                      "system": "http://snomed.info/sct",
                      "version": "http://snomed.info/sct/900000000000207008/version/20220331",
                      "code": "763158003",
                      "display": "Medicinal product (product)"
                    }
                  ]
                }
              },
              {
                "url": "https://fhir.kbv.de/StructureDefinition/KBV_EX_ERP_Medication_Category",
                "valueCoding": {
                  "system": "https://fhir.kbv.de/CodeSystem/KBV_CS_ERP_Medication_Category",
                  "code": "00"
                }
              },
              {
                "url": "https://fhir.kbv.de/StructureDefinition/KBV_EX_ERP_Medication_Vaccine",
                "valueBoolean": false
              },
              {
                "url": "http://fhir.de/StructureDefinition/normgroesse",
                "valueCode": "N1"
              }
            ],
            "code": {
              "coding": [
                {
                  "system": "http://fhir.de/CodeSystem/ifa/pzn",
                  "code": "12345678"
                }
              ],
              "text": "Schmerzmittel"
            },
            "form": {
              "coding": [
                {
                  "system": "https://fhir.kbv.de/CodeSystem/KBV_CS_SFHIR_KBV_DARREICHUNGSFORM",
                  "code": "TAB"
                }
              ]
            },
            "amount": {
              "numerator": {
                "extension": [
                  {
                    "url": "https://fhir.kbv.de/StructureDefinition/KBV_EX_ERP_Medication_PackagingSize",
                    "valueString": "1"
                  }
                ],
                "unit": "Stk"
              },
              "denominator": {
                "value": 1
              }
            }
          }
        ],
        "basedOn": [
          {
            "reference": "Task/160.000.036.968.413.59"
          }
        ],
        "status": "unknown",
        "about": [
          {
            "reference": "#15a5340f-7260-41bf-b66b-f253f1b67926"
          }
        ],
        "sent": "2023-04-13T22:24:52.107+00:00",
        "received": "2023-04-17T22:11:59.000+00:00",
        "recipient": [
          {
            "identifier": {
              "system": "https://gematik.de/fhir/sid/telematik-id",
              "value": "3-SMC-B-Testkarte-883110000116873"
            }
          }
        ],
        "sender": {
          "identifier": {
            "system": "http://fhir.de/sid/gkv/kvid-10",
            "value": "X110498565"
          }
        },
        "payload": [
          {
            "extension": [
              {
                "url": "https://gematik.de/fhir/erp/StructureDefinition/GEM_ERP_EX_InsuranceProvider",
                "valueIdentifier": {
                  "system": "http://fhir.de/sid/arge-ik/iknr",
                  "value": "041598498"
                }
              },
              {
                "url": "https://gematik.de/fhir/erp/StructureDefinition/GEM_ERP_EX_SubstitutionAllowedType",
                "valueBoolean": true
              },
              {
                "url": "https://gematik.de/fhir/erp/StructureDefinition/GEM_ERP_EX_PrescriptionType",
                "valueCoding": {
                  "system": "https://gematik.de/fhir/erp/CodeSystem/GEM_ERP_CS_FlowType",
                  "code": "160",
                  "display": "Muster 16 (Apothekenpflichtige Arzneimittel)"
                }
              }
            ],
            "contentString": "I wish you'd just tell me rather trying to engage my enthusiasm, because I haven't got one."
          }
        ]
      },
      "search": {
        "mode": "match"
      }
    },
    {
      "fullUrl": "https://erp-dev.zentral.erp.splitdns.ti-dienste.de/Communication/01eba31c-e929-1e90-1486-9c097837e6ff",
      "resource": {
        "resourceType": "Communication",
        "id": "01eba31c-e929-1e90-1486-9c097837e6ff",
        "meta": {
          "profile": [
            "https://gematik.de/fhir/erp/StructureDefinition/GEM_ERP_PR_Communication_Representative|1.2"
          ]
        },
        "basedOn": [
          {
            "reference": "/Task/160.000.036.968.379.64/$accept?ac=17e0ac350e72157f4410da39ad266f6063e8ebf4c4630d0870ea2981c81261c6"
          }
        ],
        "status": "unknown",
        "sent": "2023-04-13T22:15:31.130+00:00",
        "received": "2023-04-13T22:15:31.000+00:00",
        "recipient": [
          {
            "identifier": {
              "system": "http://fhir.de/sid/gkv/kvid-10",
              "value": "X110465770"
            }
          }
        ],
        "sender": {
          "identifier": {
            "system": "http://fhir.de/sid/gkv/kvid-10",
            "value": "X110498565"
          }
        },
        "payload": [
          {
            "extension": [
              {
                "url": "https://gematik.de/fhir/erp/StructureDefinition/GEM_ERP_EX_SubstitutionAllowedType",
                "valueBoolean": true
              },
              {
                "url": "https://gematik.de/fhir/erp/StructureDefinition/GEM_ERP_EX_PrescriptionType",
                "valueCoding": {
                  "system": "https://gematik.de/fhir/erp/CodeSystem/GEM_ERP_CS_FlowType",
                  "code": "160",
                  "display": "Muster 16 (Apothekenpflichtige Arzneimittel)"
                }
              }
            ],
            "contentString": "Am Anfang war das Nichts. Dann roundhousekickte Chuck Norris dieses Nichts und sagte: \"Such‘ Dir einen Job!\" Das ist die Geschichte der Entstehung des Universums."
          }
        ]
      },
      "search": {
        "mode": "match"
      }
    },
    {
      "fullUrl": "https://erp-dev.zentral.erp.splitdns.ti-dienste.de/Communication/01eba31c-df3a-22a8-e531-7c501d392e6a",
      "resource": {
        "resourceType": "Communication",
        "id": "01eba31c-df3a-22a8-e531-7c501d392e6a",
        "meta": {
          "profile": [
            "https://gematik.de/fhir/erp/StructureDefinition/GEM_ERP_PR_Communication_InfoReq|1.2"
          ]
        },
        "contained": [
          {
            "resourceType": "Medication",
            "id": "60e70de7-43c3-4236-acc9-9b50bd0e1b93",
            "meta": {
              "profile": [
                "https://fhir.kbv.de/StructureDefinition/KBV_PR_ERP_Medication_PZN|1.1.0"
              ]
            },
            "extension": [
              {
                "url": "https://fhir.kbv.de/StructureDefinition/KBV_EX_Base_Medication_Type",
                "valueCodeableConcept": {
                  "coding": [
                    {
                      "system": "http://snomed.info/sct",
                      "version": "http://snomed.info/sct/900000000000207008/version/20220331",
                      "code": "763158003",
                      "display": "Medicinal product (product)"
                    }
                  ]
                }
              },
              {
                "url": "https://fhir.kbv.de/StructureDefinition/KBV_EX_ERP_Medication_Category",
                "valueCoding": {
                  "system": "https://fhir.kbv.de/CodeSystem/KBV_CS_ERP_Medication_Category",
                  "code": "00"
                }
              },
              {
                "url": "https://fhir.kbv.de/StructureDefinition/KBV_EX_ERP_Medication_Vaccine",
                "valueBoolean": false
              },
              {
                "url": "http://fhir.de/StructureDefinition/normgroesse",
                "valueCode": "NB"
              }
            ],
            "code": {
              "coding": [
                {
                  "system": "http://fhir.de/CodeSystem/ifa/pzn",
                  "code": "12345678"
                }
              ],
              "text": "Schmerzmittel"
            },
            "form": {
              "coding": [
                {
                  "system": "https://fhir.kbv.de/CodeSystem/KBV_CS_SFHIR_KBV_DARREICHUNGSFORM",
                  "code": "TAB"
                }
              ]
            },
            "amount": {
              "numerator": {
                "extension": [
                  {
                    "url": "https://fhir.kbv.de/StructureDefinition/KBV_EX_ERP_Medication_PackagingSize",
                    "valueString": "1"
                  }
                ],
                "unit": "Stk"
              },
              "denominator": {
                "value": 1
              }
            }
          }
        ],
        "basedOn": [
          {
            "reference": "Task/160.000.036.968.356.36"
          }
        ],
        "status": "unknown",
        "about": [
          {
            "reference": "#60e70de7-43c3-4236-acc9-9b50bd0e1b93"
          }
        ],
        "sent": "2023-04-13T22:12:44.473+00:00",
        "recipient": [
          {
            "identifier": {
              "system": "https://gematik.de/fhir/sid/telematik-id",
              "value": "1-2-ARZT-BerndClaudius01"
            }
          }
        ],
        "sender": {
          "identifier": {
            "system": "http://fhir.de/sid/gkv/kvid-10",
            "value": "X110498565"
          }
        },
        "payload": [
          {
            "extension": [
              {
                "url": "https://gematik.de/fhir/erp/StructureDefinition/GEM_ERP_EX_InsuranceProvider",
                "valueIdentifier": {
                  "system": "http://fhir.de/sid/arge-ik/iknr",
                  "value": "983570490"
                }
              },
              {
                "url": "https://gematik.de/fhir/erp/StructureDefinition/GEM_ERP_EX_SubstitutionAllowedType",
                "valueBoolean": true
              },
              {
                "url": "https://gematik.de/fhir/erp/StructureDefinition/GEM_ERP_EX_PrescriptionType",
                "valueCoding": {
                  "system": "https://gematik.de/fhir/erp/CodeSystem/GEM_ERP_CS_FlowType",
                  "code": "160",
                  "display": "Muster 16 (Apothekenpflichtige Arzneimittel)"
                }
              }
            ],
            "contentString": "I won't enjoy it."
          }
        ]
      },
      "search": {
        "mode": "match"
      }
    },
    {
      "fullUrl": "https://erp-dev.zentral.erp.splitdns.ti-dienste.de/Communication/01eba31c-de9a-7b90-f5fc-d53f8170eef6",
      "resource": {
        "resourceType": "Communication",
        "id": "01eba31c-de9a-7b90-f5fc-d53f8170eef6",
        "meta": {
          "profile": [
            "https://gematik.de/fhir/erp/StructureDefinition/GEM_ERP_PR_Communication_InfoReq|1.2"
          ]
        },
        "contained": [
          {
            "resourceType": "Medication",
            "id": "bc957ec0-7a13-454c-9411-d5cd39706782",
            "meta": {
              "profile": [
                "https://fhir.kbv.de/StructureDefinition/KBV_PR_ERP_Medication_PZN|1.1.0"
              ]
            },
            "extension": [
              {
                "url": "https://fhir.kbv.de/StructureDefinition/KBV_EX_Base_Medication_Type",
                "valueCodeableConcept": {
                  "coding": [
                    {
                      "system": "http://snomed.info/sct",
                      "version": "http://snomed.info/sct/900000000000207008/version/20220331",
                      "code": "763158003",
                      "display": "Medicinal product (product)"
                    }
                  ]
                }
              },
              {
                "url": "https://fhir.kbv.de/StructureDefinition/KBV_EX_ERP_Medication_Category",
                "valueCoding": {
                  "system": "https://fhir.kbv.de/CodeSystem/KBV_CS_ERP_Medication_Category",
                  "code": "00"
                }
              },
              {
                "url": "https://fhir.kbv.de/StructureDefinition/KBV_EX_ERP_Medication_Vaccine",
                "valueBoolean": false
              },
              {
                "url": "http://fhir.de/StructureDefinition/normgroesse",
                "valueCode": "NB"
              }
            ],
            "code": {
              "coding": [
                {
                  "system": "http://fhir.de/CodeSystem/ifa/pzn",
                  "code": "12345678"
                }
              ],
              "text": "Schmerzmittel"
            },
            "form": {
              "coding": [
                {
                  "system": "https://fhir.kbv.de/CodeSystem/KBV_CS_SFHIR_KBV_DARREICHUNGSFORM",
                  "code": "TAB"
                }
              ]
            },
            "amount": {
              "numerator": {
                "extension": [
                  {
                    "url": "https://fhir.kbv.de/StructureDefinition/KBV_EX_ERP_Medication_PackagingSize",
                    "valueString": "1"
                  }
                ],
                "unit": "Stk"
              },
              "denominator": {
                "value": 1
              }
            }
          }
        ],
        "basedOn": [
          {
            "reference": "Task/160.000.036.968.355.39"
          }
        ],
        "status": "unknown",
        "about": [
          {
            "reference": "#bc957ec0-7a13-454c-9411-d5cd39706782"
          }
        ],
        "sent": "2023-04-13T22:12:34.010+00:00",
        "received": "2023-04-13T22:12:34.000+00:00",
        "recipient": [
          {
            "identifier": {
              "system": "https://gematik.de/fhir/sid/telematik-id",
              "value": "3-SMC-B-Testkarte-883110000116873"
            }
          }
        ],
        "sender": {
          "identifier": {
            "system": "http://fhir.de/sid/gkv/kvid-10",
            "value": "X110498565"
          }
        },
        "payload": [
          {
            "extension": [
              {
                "url": "https://gematik.de/fhir/erp/StructureDefinition/GEM_ERP_EX_InsuranceProvider",
                "valueIdentifier": {
                  "system": "http://fhir.de/sid/arge-ik/iknr",
                  "value": "126041248"
                }
              },
              {
                "url": "https://gematik.de/fhir/erp/StructureDefinition/GEM_ERP_EX_SubstitutionAllowedType",
                "valueBoolean": true
              },
              {
                "url": "https://gematik.de/fhir/erp/StructureDefinition/GEM_ERP_EX_PrescriptionType",
                "valueCoding": {
                  "system": "https://gematik.de/fhir/erp/CodeSystem/GEM_ERP_CS_FlowType",
                  "code": "160",
                  "display": "Muster 16 (Apothekenpflichtige Arzneimittel)"
                }
              }
            ],
            "contentString": "And then of course I've got this terrible pain in all the diodes down my left side."
          }
        ]
      },
      "search": {
        "mode": "match"
      }
    },
    {
      "fullUrl": "https://erp-dev.zentral.erp.splitdns.ti-dienste.de/Communication/01eba31c-de39-fc70-0a83-4fcd194ca8b2",
      "resource": {
        "resourceType": "Communication",
        "id": "01eba31c-de39-fc70-0a83-4fcd194ca8b2",
        "meta": {
          "profile": [
            "https://gematik.de/fhir/erp/StructureDefinition/GEM_ERP_PR_Communication_Reply|1.2"
          ]
        },
        "basedOn": [
          {
            "reference": "Task/160.000.036.968.354.42"
          }
        ],
        "status": "unknown",
        "sent": "2023-04-13T22:12:27.686+00:00",
        "received": "2023-04-17T22:12:49.000+00:00",
        "recipient": [
          {
            "identifier": {
              "system": "http://fhir.de/sid/gkv/kvid-10",
              "value": "X110498565"
            }
          }
        ],
        "sender": {
          "identifier": {
            "system": "https://gematik.de/fhir/sid/telematik-id",
            "value": "3-SMC-B-Testkarte-883110000116873"
          }
        },
        "payload": [
          {
            "extension": [
              {
                "url": "https://gematik.de/fhir/erp/StructureDefinition/GEM_ERP_EX_AvailabilityState",
                "valueCoding": {
                  "system": "https://gematik.de/fhir/erp/CodeSystem/GEM_ERP_CS_AvailabilityStatus",
                  "code": "30"
                }
              },
              {
                "url": "https://gematik.de/fhir/erp/StructureDefinition/GEM_ERP_EX_SupplyOptionsType",
                "extension": [
                  {
                    "url": "onPremise",
                    "valueBoolean": true
                  },
                  {
                    "url": "delivery",
                    "valueBoolean": false
                  },
                  {
                    "url": "shipment",
                    "valueBoolean": false
                  }
                ]
              }
            ],
            "contentString": "... a mind needs books as a sword needs a whetstone, if it is to keep its edge."
          }
        ]
      },
      "search": {
        "mode": "match"
      }
    },
    {
      "fullUrl": "https://erp-dev.zentral.erp.splitdns.ti-dienste.de/Communication/01eba31c-db8e-9f08-ad67-bba0135cef09",
      "resource": {
        "resourceType": "Communication",
        "id": "01eba31c-db8e-9f08-ad67-bba0135cef09",
        "meta": {
          "profile": [
            "https://gematik.de/fhir/erp/StructureDefinition/GEM_ERP_PR_Communication_Reply|1.2"
          ]
        },
        "basedOn": [
          {
            "reference": "Task/160.000.036.968.349.57"
          }
        ],
        "status": "unknown",
        "sent": "2023-04-13T22:11:42.901+00:00",
        "received": "2023-04-13T22:12:18.000+00:00",
        "recipient": [
          {
            "identifier": {
              "system": "http://fhir.de/sid/gkv/kvid-10",
              "value": "X110498565"
            }
          }
        ],
        "sender": {
          "identifier": {
            "system": "https://gematik.de/fhir/sid/telematik-id",
            "value": "3-SMC-B-Testkarte-883110000116873"
          }
        },
        "payload": [
          {
            "extension": [
              {
                "url": "https://gematik.de/fhir/erp/StructureDefinition/GEM_ERP_EX_AvailabilityState",
                "valueCoding": {
                  "system": "https://gematik.de/fhir/erp/CodeSystem/GEM_ERP_CS_AvailabilityStatus",
                  "code": "30"
                }
              },
              {
                "url": "https://gematik.de/fhir/erp/StructureDefinition/GEM_ERP_EX_SupplyOptionsType",
                "extension": [
                  {
                    "url": "onPremise",
                    "valueBoolean": true
                  },
                  {
                    "url": "delivery",
                    "valueBoolean": false
                  },
                  {
                    "url": "shipment",
                    "valueBoolean": false
                  }
                ]
              }
            ],
            "contentString": "And I have a tender spot in my heart for cripples and bastards and broken things."
          }
        ]
      },
      "search": {
        "mode": "match"
      }
    },
    {
      "fullUrl": "https://erp-dev.zentral.erp.splitdns.ti-dienste.de/Communication/01eba31c-db75-6dd0-e90c-85e651e893f2",
      "resource": {
        "resourceType": "Communication",
        "id": "01eba31c-db75-6dd0-e90c-85e651e893f2",
        "meta": {
          "profile": [
            "https://gematik.de/fhir/erp/StructureDefinition/GEM_ERP_PR_Communication_InfoReq|1.2"
          ]
        },
        "contained": [
          {
            "resourceType": "Medication",
            "id": "0cdf11b2-e945-4f18-85c3-06f50a4be29f",
            "meta": {
              "profile": [
                "https://fhir.kbv.de/StructureDefinition/KBV_PR_ERP_Medication_PZN|1.1.0"
              ]
            },
            "extension": [
              {
                "url": "https://fhir.kbv.de/StructureDefinition/KBV_EX_Base_Medication_Type",
                "valueCodeableConcept": {
                  "coding": [
                    {
                      "system": "http://snomed.info/sct",
                      "version": "http://snomed.info/sct/900000000000207008/version/20220331",
                      "code": "763158003",
                      "display": "Medicinal product (product)"
                    }
                  ]
                }
              },
              {
                "url": "https://fhir.kbv.de/StructureDefinition/KBV_EX_ERP_Medication_Category",
                "valueCoding": {
                  "system": "https://fhir.kbv.de/CodeSystem/KBV_CS_ERP_Medication_Category",
                  "code": "00"
                }
              },
              {
                "url": "https://fhir.kbv.de/StructureDefinition/KBV_EX_ERP_Medication_Vaccine",
                "valueBoolean": false
              },
              {
                "url": "http://fhir.de/StructureDefinition/normgroesse",
                "valueCode": "NB"
              }
            ],
            "code": {
              "coding": [
                {
                  "system": "http://fhir.de/CodeSystem/ifa/pzn",
                  "code": "12345678"
                }
              ],
              "text": "Schmerzmittel"
            },
            "form": {
              "coding": [
                {
                  "system": "https://fhir.kbv.de/CodeSystem/KBV_CS_SFHIR_KBV_DARREICHUNGSFORM",
                  "code": "TAB"
                }
              ]
            },
            "amount": {
              "numerator": {
                "extension": [
                  {
                    "url": "https://fhir.kbv.de/StructureDefinition/KBV_EX_ERP_Medication_PackagingSize",
                    "valueString": "1"
                  }
                ],
                "unit": "Stk"
              },
              "denominator": {
                "value": 1
              }
            }
          }
        ],
        "basedOn": [
          {
            "reference": "Task/160.000.036.968.349.57"
          }
        ],
        "status": "unknown",
        "about": [
          {
            "reference": "#0cdf11b2-e945-4f18-85c3-06f50a4be29f"
          }
        ],
        "sent": "2023-04-13T22:11:41.250+00:00",
        "received": "2023-04-13T22:11:41.000+00:00",
        "recipient": [
          {
            "identifier": {
              "system": "https://gematik.de/fhir/sid/telematik-id",
              "value": "3-SMC-B-Testkarte-883110000116873"
            }
          }
        ],
        "sender": {
          "identifier": {
            "system": "http://fhir.de/sid/gkv/kvid-10",
            "value": "X110498565"
          }
        },
        "payload": [
          {
            "extension": [
              {
                "url": "https://gematik.de/fhir/erp/StructureDefinition/GEM_ERP_EX_InsuranceProvider",
                "valueIdentifier": {
                  "system": "http://fhir.de/sid/arge-ik/iknr",
                  "value": "679946159"
                }
              },
              {
                "url": "https://gematik.de/fhir/erp/StructureDefinition/GEM_ERP_EX_SubstitutionAllowedType",
                "valueBoolean": true
              },
              {
                "url": "https://gematik.de/fhir/erp/StructureDefinition/GEM_ERP_EX_PrescriptionType",
                "valueCoding": {
                  "system": "https://gematik.de/fhir/erp/CodeSystem/GEM_ERP_CS_FlowType",
                  "code": "160",
                  "display": "Muster 16 (Apothekenpflichtige Arzneimittel)"
                }
              }
            ],
            "contentString": "There's only one life-form as intelligent as me within thirty parsecs of here and that's me."
          }
        ]
      },
      "search": {
        "mode": "match"
      }
    },
    {
      "fullUrl": "https://erp-dev.zentral.erp.splitdns.ti-dienste.de/Communication/01eba31c-daab-3c18-1e40-09a908dda1a2",
      "resource": {
        "resourceType": "Communication",
        "id": "01eba31c-daab-3c18-1e40-09a908dda1a2",
        "meta": {
          "profile": [
            "https://gematik.de/fhir/erp/StructureDefinition/GEM_ERP_PR_Communication_DispReq|1.2"
          ]
        },
        "basedOn": [
          {
            "reference": "/Task/160.000.036.968.348.60/$accept?ac=aee227f7c2fff70edc3c9a38e6f268d29e35dd23d6ae506e27f956e7ffec44e3"
          }
        ],
        "status": "unknown",
        "sent": "2023-04-13T22:11:27.999+00:00",
        "received": "2023-04-13T22:11:28.000+00:00",
        "recipient": [
          {
            "identifier": {
              "system": "https://gematik.de/fhir/sid/telematik-id",
              "value": "3-SMC-B-Testkarte-883110000116873"
            }
          }
        ],
        "sender": {
          "identifier": {
            "system": "http://fhir.de/sid/gkv/kvid-10",
            "value": "X110498565"
          }
        },
        "payload": [
          {
            "contentString": "Damn! I'm late for school!"
          }
        ]
      },
      "search": {
        "mode": "match"
      }
    }
  ]
}
