{
  "resourceType" : "Bundle",
  "id" : "2cb46a14-e2b1-44dc-bb0b-7e4c89527987",
  "type" : "searchset",
  "timestamp" : "2024-02-08T18:01:50.464+00:00",
  "total" : 23,
  "link" : [ {
    "relation" : "self",
    "url" : "https://erp-ref.zentral.erp.splitdns.ti-dienste.de/Communication?_sort=-sent"
  } ],
  "entry" : [ {
    "fullUrl" : "https://erp-ref.zentral.erp.splitdns.ti-dienste.de/Communication/01ebb53a-28a3-1498-89ec-dd9b7cfd94d6",
    "resource" : {
      "resourceType" : "Communication",
      "id" : "01ebb53a-28a3-1498-89ec-dd9b7cfd94d6",
      "meta" : {
        "profile" : [ "https://gematik.de/fhir/erp/StructureDefinition/GEM_ERP_PR_Communication_Reply|1.2" ]
      },
      "basedOn" : [ {
        "reference" : "Task/169.000.011.182.271.23"
      } ],
      "status" : "unknown",
      "sent" : "2023-11-30T10:42:39.439+00:00",
      "received" : "2023-11-30T10:42:40.000+00:00",
      "recipient" : [ {
        "identifier" : {
          "system" : "http://fhir.de/sid/gkv/kvid-10",
          "value" : "X110498565"
        }
      } ],
      "sender" : {
        "identifier" : {
          "system" : "https://gematik.de/fhir/sid/telematik-id",
          "value" : "3-SMC-B-Testkarte-883110000116873"
        }
      },
      "payload" : [ {
        "extension" : [ {
          "url" : "https://gematik.de/fhir/erp/StructureDefinition/GEM_ERP_EX_AvailabilityState",
          "valueCoding" : {
            "system" : "https://gematik.de/fhir/erp/CodeSystem/GEM_ERP_CS_AvailabilityStatus",
            "code" : "30"
          }
        }, {
          "url" : "https://gematik.de/fhir/erp/StructureDefinition/GEM_ERP_EX_SupplyOptionsType",
          "extension" : [ {
            "url" : "onPremise",
            "valueBoolean" : true
          }, {
            "url" : "delivery",
            "valueBoolean" : false
          }, {
            "url" : "shipment",
            "valueBoolean" : false
          } ]
        } ],
        "contentString" : "{\"version\":1,\"supplyOptionsType\":\"delivery\",\"info_text\":\"He shall know your ways as if born to them.\"}"
      } ]
    },
    "search" : {
      "mode" : "match"
    }
  }, {
    "fullUrl" : "https://erp-ref.zentral.erp.splitdns.ti-dienste.de/Communication/01ebb53a-287f-7768-18f7-faee1c98cea3",
    "resource" : {
      "resourceType" : "Communication",
      "id" : "01ebb53a-287f-7768-18f7-faee1c98cea3",
      "meta" : {
        "profile" : [ "https://gematik.de/fhir/erp/StructureDefinition/GEM_ERP_PR_Communication_InfoReq|1.2" ]
      },
      "contained" : [ {
        "resourceType" : "Medication",
        "id" : "910fe03b-fb2c-4df1-aeab-b7e1e81914a6",
        "meta" : {
          "profile" : [ "https://fhir.kbv.de/StructureDefinition/KBV_PR_ERP_Medication_PZN|1.1.0" ]
        },
        "extension" : [ {
          "url" : "https://fhir.kbv.de/StructureDefinition/KBV_EX_Base_Medication_Type",
          "valueCodeableConcept" : {
            "coding" : [ {
              "system" : "http://snomed.info/sct",
              "version" : "http://snomed.info/sct/900000000000207008/version/20220331",
              "code" : "763158003",
              "display" : "Medicinal product (product)"
            } ]
          }
        }, {
          "url" : "https://fhir.kbv.de/StructureDefinition/KBV_EX_ERP_Medication_Category",
          "valueCoding" : {
            "system" : "https://fhir.kbv.de/CodeSystem/KBV_CS_ERP_Medication_Category",
            "code" : "00"
          }
        }, {
          "url" : "https://fhir.kbv.de/StructureDefinition/KBV_EX_ERP_Medication_Vaccine",
          "valueBoolean" : false
        }, {
          "url" : "http://fhir.de/StructureDefinition/normgroesse",
          "valueCode" : "NB"
        } ],
        "code" : {
          "coding" : [ {
            "system" : "http://fhir.de/CodeSystem/ifa/pzn",
            "code" : "26899050"
          } ],
          "text" : "Enoxabratal"
        },
        "form" : {
          "coding" : [ {
            "system" : "https://fhir.kbv.de/CodeSystem/KBV_CS_SFHIR_KBV_DARREICHUNGSFORM",
            "code" : "TAB"
          } ]
        },
        "amount" : {
          "numerator" : {
            "extension" : [ {
              "url" : "https://fhir.kbv.de/StructureDefinition/KBV_EX_ERP_Medication_PackagingSize",
              "valueString" : "1"
            } ],
            "unit" : "Stk"
          },
          "denominator" : {
            "value" : 1
          }
        }
      } ],
      "basedOn" : [ {
        "reference" : "Task/169.000.011.182.271.23"
      } ],
      "status" : "unknown",
      "about" : [ {
        "reference" : "#910fe03b-fb2c-4df1-aeab-b7e1e81914a6"
      } ],
      "sent" : "2023-11-30T10:42:37.105+00:00",
      "received" : "2023-11-30T10:42:38.000+00:00",
      "recipient" : [ {
        "identifier" : {
          "system" : "https://gematik.de/fhir/sid/telematik-id",
          "value" : "3-SMC-B-Testkarte-883110000116873"
        }
      } ],
      "sender" : {
        "identifier" : {
          "system" : "http://fhir.de/sid/gkv/kvid-10",
          "value" : "X110498565"
        }
      },
      "payload" : [ {
        "extension" : [ {
          "url" : "https://gematik.de/fhir/erp/StructureDefinition/GEM_ERP_EX_InsuranceProvider",
          "valueIdentifier" : {
            "system" : "http://fhir.de/sid/arge-ik/iknr",
            "value" : "105330168"
          }
        }, {
          "url" : "https://gematik.de/fhir/erp/StructureDefinition/GEM_ERP_EX_SubstitutionAllowedType",
          "valueBoolean" : true
        }, {
          "url" : "https://gematik.de/fhir/erp/StructureDefinition/GEM_ERP_EX_PrescriptionType",
          "valueCoding" : {
            "system" : "https://gematik.de/fhir/erp/CodeSystem/GEM_ERP_CS_FlowType",
            "code" : "169",
            "display" : "Muster 16 (Direkte Zuweisung)"
          }
        } ],
        "contentString" : "Life? Don't talk to me about life."
      } ]
    },
    "search" : {
      "mode" : "match"
    }
  }, {
    "fullUrl" : "https://erp-ref.zentral.erp.splitdns.ti-dienste.de/Communication/01ebb2e5-ec3e-9f50-6db6-1fee21e34e21",
    "resource" : {
      "resourceType" : "Communication",
      "id" : "01ebb2e5-ec3e-9f50-6db6-1fee21e34e21",
      "meta" : {
        "profile" : [ "https://gematik.de/fhir/erp/StructureDefinition/GEM_ERP_PR_Communication_InfoReq|1.2" ]
      },
      "contained" : [ {
        "resourceType" : "Medication",
        "id" : "76ae9290-c7b8-4a8e-b6a0-a31fd9e62209",
        "meta" : {
          "profile" : [ "https://fhir.kbv.de/StructureDefinition/KBV_PR_ERP_Medication_PZN|1.1.0" ]
        },
        "extension" : [ {
          "url" : "https://fhir.kbv.de/StructureDefinition/KBV_EX_Base_Medication_Type",
          "valueCodeableConcept" : {
            "coding" : [ {
              "system" : "http://snomed.info/sct",
              "version" : "http://snomed.info/sct/900000000000207008/version/20220331",
              "code" : "763158003",
              "display" : "Medicinal product (product)"
            } ]
          }
        }, {
          "url" : "https://fhir.kbv.de/StructureDefinition/KBV_EX_ERP_Medication_Category",
          "valueCoding" : {
            "system" : "https://fhir.kbv.de/CodeSystem/KBV_CS_ERP_Medication_Category",
            "code" : "00"
          }
        }, {
          "url" : "https://fhir.kbv.de/StructureDefinition/KBV_EX_ERP_Medication_Vaccine",
          "valueBoolean" : false
        }, {
          "url" : "http://fhir.de/StructureDefinition/normgroesse",
          "valueCode" : "N1"
        } ],
        "code" : {
          "coding" : [ {
            "system" : "http://fhir.de/CodeSystem/ifa/pzn",
            "code" : "12345678"
          } ],
          "text" : "Schmerzmittel"
        },
        "form" : {
          "coding" : [ {
            "system" : "https://fhir.kbv.de/CodeSystem/KBV_CS_SFHIR_KBV_DARREICHUNGSFORM",
            "code" : "TAB"
          } ]
        },
        "amount" : {
          "numerator" : {
            "extension" : [ {
              "url" : "https://fhir.kbv.de/StructureDefinition/KBV_EX_ERP_Medication_PackagingSize",
              "valueString" : "1"
            } ],
            "unit" : "Stk"
          },
          "denominator" : {
            "value" : 1
          }
        }
      } ],
      "basedOn" : [ {
        "reference" : "Task/160.000.210.284.876.61"
      } ],
      "status" : "unknown",
      "about" : [ {
        "reference" : "#76ae9290-c7b8-4a8e-b6a0-a31fd9e62209"
      } ],
      "sent" : "2023-10-31T19:22:25.714+00:00",
      "received" : "2023-11-01T18:58:17.000+00:00",
      "recipient" : [ {
        "identifier" : {
          "system" : "https://gematik.de/fhir/sid/telematik-id",
          "value" : "3-SMC-B-Testkarte-883110000116873"
        }
      } ],
      "sender" : {
        "identifier" : {
          "system" : "http://fhir.de/sid/gkv/kvid-10",
          "value" : "X110498565"
        }
      },
      "payload" : [ {
        "extension" : [ {
          "url" : "https://gematik.de/fhir/erp/StructureDefinition/GEM_ERP_EX_InsuranceProvider",
          "valueIdentifier" : {
            "system" : "http://fhir.de/sid/arge-ik/iknr",
            "value" : "107836243"
          }
        }, {
          "url" : "https://gematik.de/fhir/erp/StructureDefinition/GEM_ERP_EX_SubstitutionAllowedType",
          "valueBoolean" : true
        }, {
          "url" : "https://gematik.de/fhir/erp/StructureDefinition/GEM_ERP_EX_PrescriptionType",
          "valueCoding" : {
            "system" : "https://gematik.de/fhir/erp/CodeSystem/GEM_ERP_CS_FlowType",
            "code" : "160",
            "display" : "Muster 16 (Apothekenpflichtige Arzneimittel)"
          }
        } ],
        "contentString" : "There's only one life-form as intelligent as me within thirty parsecs of here and that's me."
      } ]
    },
    "search" : {
      "mode" : "match"
    }
  }, {
    "fullUrl" : "https://erp-ref.zentral.erp.splitdns.ti-dienste.de/Communication/01ebb2e5-ae52-bd48-5de6-70c6df8c4752",
    "resource" : {
      "resourceType" : "Communication",
      "id" : "01ebb2e5-ae52-bd48-5de6-70c6df8c4752",
      "meta" : {
        "profile" : [ "https://gematik.de/fhir/erp/StructureDefinition/GEM_ERP_PR_Communication_Representative|1.2" ]
      },
      "basedOn" : [ {
        "reference" : "/Task/160.000.210.284.823.26/$accept?ac=7f06dadbc93f64d2abe02b9b7b9fce4d90b0514a18cc73933a4a52c05f01c5eb"
      } ],
      "status" : "unknown",
      "sent" : "2023-10-31T19:05:06.845+00:00",
      "received" : "2023-10-31T19:05:07.000+00:00",
      "recipient" : [ {
        "identifier" : {
          "system" : "http://fhir.de/sid/gkv/kvid-10",
          "value" : "X110465770"
        }
      } ],
      "sender" : {
        "identifier" : {
          "system" : "http://fhir.de/sid/gkv/kvid-10",
          "value" : "X110498565"
        }
      },
      "payload" : [ {
        "extension" : [ {
          "url" : "https://gematik.de/fhir/erp/StructureDefinition/GEM_ERP_EX_SubstitutionAllowedType",
          "valueBoolean" : true
        }, {
          "url" : "https://gematik.de/fhir/erp/StructureDefinition/GEM_ERP_EX_PrescriptionType",
          "valueCoding" : {
            "system" : "https://gematik.de/fhir/erp/CodeSystem/GEM_ERP_CS_FlowType",
            "code" : "160",
            "display" : "Muster 16 (Apothekenpflichtige Arzneimittel)"
          }
        } ],
        "contentString" : "Am Anfang war das Nichts. Dann roundhousekickte Chuck Norris dieses Nichts und sagte: \"Such‘ Dir einen Job!\" Das ist die Geschichte der Entstehung des Universums."
      } ]
    },
    "search" : {
      "mode" : "match"
    }
  }, {
    "fullUrl" : "https://erp-ref.zentral.erp.splitdns.ti-dienste.de/Communication/01ebb2e5-9d3a-ea58-8049-6ad6923e0d8b",
    "resource" : {
      "resourceType" : "Communication",
      "id" : "01ebb2e5-9d3a-ea58-8049-6ad6923e0d8b",
      "meta" : {
        "profile" : [ "https://gematik.de/fhir/erp/StructureDefinition/GEM_ERP_PR_Communication_InfoReq|1.2" ]
      },
      "contained" : [ {
        "resourceType" : "Medication",
        "id" : "da2cccb8-0aeb-4395-acc0-218aa92ee49d",
        "meta" : {
          "profile" : [ "https://fhir.kbv.de/StructureDefinition/KBV_PR_ERP_Medication_PZN|1.1.0" ]
        },
        "extension" : [ {
          "url" : "https://fhir.kbv.de/StructureDefinition/KBV_EX_Base_Medication_Type",
          "valueCodeableConcept" : {
            "coding" : [ {
              "system" : "http://snomed.info/sct",
              "version" : "http://snomed.info/sct/900000000000207008/version/20220331",
              "code" : "763158003",
              "display" : "Medicinal product (product)"
            } ]
          }
        }, {
          "url" : "https://fhir.kbv.de/StructureDefinition/KBV_EX_ERP_Medication_Category",
          "valueCoding" : {
            "system" : "https://fhir.kbv.de/CodeSystem/KBV_CS_ERP_Medication_Category",
            "code" : "00"
          }
        }, {
          "url" : "https://fhir.kbv.de/StructureDefinition/KBV_EX_ERP_Medication_Vaccine",
          "valueBoolean" : false
        }, {
          "url" : "http://fhir.de/StructureDefinition/normgroesse",
          "valueCode" : "NB"
        } ],
        "code" : {
          "coding" : [ {
            "system" : "http://fhir.de/CodeSystem/ifa/pzn",
            "code" : "12345678"
          } ],
          "text" : "Schmerzmittel"
        },
        "form" : {
          "coding" : [ {
            "system" : "https://fhir.kbv.de/CodeSystem/KBV_CS_SFHIR_KBV_DARREICHUNGSFORM",
            "code" : "TAB"
          } ]
        },
        "amount" : {
          "numerator" : {
            "extension" : [ {
              "url" : "https://fhir.kbv.de/StructureDefinition/KBV_EX_ERP_Medication_PackagingSize",
              "valueString" : "1"
            } ],
            "unit" : "Stk"
          },
          "denominator" : {
            "value" : 1
          }
        }
      } ],
      "basedOn" : [ {
        "reference" : "Task/160.000.210.284.799.98"
      } ],
      "status" : "unknown",
      "about" : [ {
        "reference" : "#da2cccb8-0aeb-4395-acc0-218aa92ee49d"
      } ],
      "sent" : "2023-10-31T19:00:20.071+00:00",
      "recipient" : [ {
        "identifier" : {
          "system" : "https://gematik.de/fhir/sid/telematik-id",
          "value" : "1-2-ARZT-BerndClaudius01"
        }
      } ],
      "sender" : {
        "identifier" : {
          "system" : "http://fhir.de/sid/gkv/kvid-10",
          "value" : "X110498565"
        }
      },
      "payload" : [ {
        "extension" : [ {
          "url" : "https://gematik.de/fhir/erp/StructureDefinition/GEM_ERP_EX_InsuranceProvider",
          "valueIdentifier" : {
            "system" : "http://fhir.de/sid/arge-ik/iknr",
            "value" : "109008837"
          }
        }, {
          "url" : "https://gematik.de/fhir/erp/StructureDefinition/GEM_ERP_EX_SubstitutionAllowedType",
          "valueBoolean" : true
        }, {
          "url" : "https://gematik.de/fhir/erp/StructureDefinition/GEM_ERP_EX_PrescriptionType",
          "valueCoding" : {
            "system" : "https://gematik.de/fhir/erp/CodeSystem/GEM_ERP_CS_FlowType",
            "code" : "160",
            "display" : "Muster 16 (Apothekenpflichtige Arzneimittel)"
          }
        } ],
        "contentString" : "Pardon me for breathing, which I never do anyway so I don't know why I bother to say it, Oh God, I'm so depressed."
      } ]
    },
    "search" : {
      "mode" : "match"
    }
  }, {
    "fullUrl" : "https://erp-ref.zentral.erp.splitdns.ti-dienste.de/Communication/01ebb2e5-9cb0-59b0-e6d9-5a85576c6121",
    "resource" : {
      "resourceType" : "Communication",
      "id" : "01ebb2e5-9cb0-59b0-e6d9-5a85576c6121",
      "meta" : {
        "profile" : [ "https://gematik.de/fhir/erp/StructureDefinition/GEM_ERP_PR_Communication_InfoReq|1.2" ]
      },
      "contained" : [ {
        "resourceType" : "Medication",
        "id" : "e2a1a3ef-f57a-4da6-a242-29ec322bba70",
        "meta" : {
          "profile" : [ "https://fhir.kbv.de/StructureDefinition/KBV_PR_ERP_Medication_PZN|1.1.0" ]
        },
        "extension" : [ {
          "url" : "https://fhir.kbv.de/StructureDefinition/KBV_EX_Base_Medication_Type",
          "valueCodeableConcept" : {
            "coding" : [ {
              "system" : "http://snomed.info/sct",
              "version" : "http://snomed.info/sct/900000000000207008/version/20220331",
              "code" : "763158003",
              "display" : "Medicinal product (product)"
            } ]
          }
        }, {
          "url" : "https://fhir.kbv.de/StructureDefinition/KBV_EX_ERP_Medication_Category",
          "valueCoding" : {
            "system" : "https://fhir.kbv.de/CodeSystem/KBV_CS_ERP_Medication_Category",
            "code" : "00"
          }
        }, {
          "url" : "https://fhir.kbv.de/StructureDefinition/KBV_EX_ERP_Medication_Vaccine",
          "valueBoolean" : false
        }, {
          "url" : "http://fhir.de/StructureDefinition/normgroesse",
          "valueCode" : "NB"
        } ],
        "code" : {
          "coding" : [ {
            "system" : "http://fhir.de/CodeSystem/ifa/pzn",
            "code" : "12345678"
          } ],
          "text" : "Schmerzmittel"
        },
        "form" : {
          "coding" : [ {
            "system" : "https://fhir.kbv.de/CodeSystem/KBV_CS_SFHIR_KBV_DARREICHUNGSFORM",
            "code" : "TAB"
          } ]
        },
        "amount" : {
          "numerator" : {
            "extension" : [ {
              "url" : "https://fhir.kbv.de/StructureDefinition/KBV_EX_ERP_Medication_PackagingSize",
              "valueString" : "1"
            } ],
            "unit" : "Stk"
          },
          "denominator" : {
            "value" : 1
          }
        }
      } ],
      "basedOn" : [ {
        "reference" : "Task/160.000.210.284.798.04"
      } ],
      "status" : "unknown",
      "about" : [ {
        "reference" : "#e2a1a3ef-f57a-4da6-a242-29ec322bba70"
      } ],
      "sent" : "2023-10-31T19:00:10.990+00:00",
      "received" : "2023-10-31T19:00:11.000+00:00",
      "recipient" : [ {
        "identifier" : {
          "system" : "https://gematik.de/fhir/sid/telematik-id",
          "value" : "3-SMC-B-Testkarte-883110000116873"
        }
      } ],
      "sender" : {
        "identifier" : {
          "system" : "http://fhir.de/sid/gkv/kvid-10",
          "value" : "X110498565"
        }
      },
      "payload" : [ {
        "extension" : [ {
          "url" : "https://gematik.de/fhir/erp/StructureDefinition/GEM_ERP_EX_InsuranceProvider",
          "valueIdentifier" : {
            "system" : "http://fhir.de/sid/arge-ik/iknr",
            "value" : "106431572"
          }
        }, {
          "url" : "https://gematik.de/fhir/erp/StructureDefinition/GEM_ERP_EX_SubstitutionAllowedType",
          "valueBoolean" : true
        }, {
          "url" : "https://gematik.de/fhir/erp/StructureDefinition/GEM_ERP_EX_PrescriptionType",
          "valueCoding" : {
            "system" : "https://gematik.de/fhir/erp/CodeSystem/GEM_ERP_CS_FlowType",
            "code" : "160",
            "display" : "Muster 16 (Apothekenpflichtige Arzneimittel)"
          }
        } ],
        "contentString" : "Pardon me for breathing, which I never do anyway so I don't know why I bother to say it, Oh God, I'm so depressed."
      } ]
    },
    "search" : {
      "mode" : "match"
    }
  }, {
    "fullUrl" : "https://erp-ref.zentral.erp.splitdns.ti-dienste.de/Communication/01ebb2e5-9bc3-6970-733c-b7534a7a38a0",
    "resource" : {
      "resourceType" : "Communication",
      "id" : "01ebb2e5-9bc3-6970-733c-b7534a7a38a0",
      "meta" : {
        "profile" : [ "https://gematik.de/fhir/erp/StructureDefinition/GEM_ERP_PR_Communication_Reply|1.2" ]
      },
      "basedOn" : [ {
        "reference" : "Task/160.000.210.284.797.07"
      } ],
      "status" : "unknown",
      "sent" : "2023-10-31T18:59:55.462+00:00",
      "received" : "2023-11-01T18:58:50.000+00:00",
      "recipient" : [ {
        "identifier" : {
          "system" : "http://fhir.de/sid/gkv/kvid-10",
          "value" : "X110498565"
        }
      } ],
      "sender" : {
        "identifier" : {
          "system" : "https://gematik.de/fhir/sid/telematik-id",
          "value" : "3-SMC-B-Testkarte-883110000116873"
        }
      },
      "payload" : [ {
        "extension" : [ {
          "url" : "https://gematik.de/fhir/erp/StructureDefinition/GEM_ERP_EX_AvailabilityState",
          "valueCoding" : {
            "system" : "https://gematik.de/fhir/erp/CodeSystem/GEM_ERP_CS_AvailabilityStatus",
            "code" : "30"
          }
        }, {
          "url" : "https://gematik.de/fhir/erp/StructureDefinition/GEM_ERP_EX_SupplyOptionsType",
          "extension" : [ {
            "url" : "onPremise",
            "valueBoolean" : true
          }, {
            "url" : "delivery",
            "valueBoolean" : false
          }, {
            "url" : "shipment",
            "valueBoolean" : false
          } ]
        } ],
        "contentString" : "{\"version\":1,\"supplyOptionsType\":\"shipment\",\"info_text\":\"And you, my son, are you one who gives or one who takes?\"}"
      } ]
    },
    "search" : {
      "mode" : "match"
    }
  }, {
    "fullUrl" : "https://erp-ref.zentral.erp.splitdns.ti-dienste.de/Communication/01ebb2e5-987d-7da0-8197-cff3f3f156e3",
    "resource" : {
      "resourceType" : "Communication",
      "id" : "01ebb2e5-987d-7da0-8197-cff3f3f156e3",
      "meta" : {
        "profile" : [ "https://gematik.de/fhir/erp/StructureDefinition/GEM_ERP_PR_Communication_Reply|1.2" ]
      },
      "basedOn" : [ {
        "reference" : "Task/160.000.210.284.792.22"
      } ],
      "status" : "unknown",
      "sent" : "2023-10-31T18:59:00.548+00:00",
      "received" : "2023-10-31T18:59:01.000+00:00",
      "recipient" : [ {
        "identifier" : {
          "system" : "http://fhir.de/sid/gkv/kvid-10",
          "value" : "X110498565"
        }
      } ],
      "sender" : {
        "identifier" : {
          "system" : "https://gematik.de/fhir/sid/telematik-id",
          "value" : "3-SMC-B-Testkarte-883110000116873"
        }
      },
      "payload" : [ {
        "extension" : [ {
          "url" : "https://gematik.de/fhir/erp/StructureDefinition/GEM_ERP_EX_AvailabilityState",
          "valueCoding" : {
            "system" : "https://gematik.de/fhir/erp/CodeSystem/GEM_ERP_CS_AvailabilityStatus",
            "code" : "30"
          }
        }, {
          "url" : "https://gematik.de/fhir/erp/StructureDefinition/GEM_ERP_EX_SupplyOptionsType",
          "extension" : [ {
            "url" : "onPremise",
            "valueBoolean" : true
          }, {
            "url" : "delivery",
            "valueBoolean" : false
          }, {
            "url" : "shipment",
            "valueBoolean" : false
          } ]
        } ],
        "contentString" : "{\"version\":1,\"supplyOptionsType\":\"delivery\",\"info_text\":\"The Guild... they're fighting me in the mental vaults. They're behind everything. They fear the one who will come, who will know more, who will see more. The Guild is behind everything. It's not finished yet. I'm not formed.\"}"
      } ]
    },
    "search" : {
      "mode" : "match"
    }
  }, {
    "fullUrl" : "https://erp-ref.zentral.erp.splitdns.ti-dienste.de/Communication/01ebb2e5-9869-5190-78f2-353f09321d38",
    "resource" : {
      "resourceType" : "Communication",
      "id" : "01ebb2e5-9869-5190-78f2-353f09321d38",
      "meta" : {
        "profile" : [ "https://gematik.de/fhir/erp/StructureDefinition/GEM_ERP_PR_Communication_InfoReq|1.2" ]
      },
      "contained" : [ {
        "resourceType" : "Medication",
        "id" : "99229024-4cb3-42f2-af58-19c80bb9a905",
        "meta" : {
          "profile" : [ "https://fhir.kbv.de/StructureDefinition/KBV_PR_ERP_Medication_PZN|1.1.0" ]
        },
        "extension" : [ {
          "url" : "https://fhir.kbv.de/StructureDefinition/KBV_EX_Base_Medication_Type",
          "valueCodeableConcept" : {
            "coding" : [ {
              "system" : "http://snomed.info/sct",
              "version" : "http://snomed.info/sct/900000000000207008/version/20220331",
              "code" : "763158003",
              "display" : "Medicinal product (product)"
            } ]
          }
        }, {
          "url" : "https://fhir.kbv.de/StructureDefinition/KBV_EX_ERP_Medication_Category",
          "valueCoding" : {
            "system" : "https://fhir.kbv.de/CodeSystem/KBV_CS_ERP_Medication_Category",
            "code" : "00"
          }
        }, {
          "url" : "https://fhir.kbv.de/StructureDefinition/KBV_EX_ERP_Medication_Vaccine",
          "valueBoolean" : false
        }, {
          "url" : "http://fhir.de/StructureDefinition/normgroesse",
          "valueCode" : "NB"
        } ],
        "code" : {
          "coding" : [ {
            "system" : "http://fhir.de/CodeSystem/ifa/pzn",
            "code" : "12345678"
          } ],
          "text" : "Schmerzmittel"
        },
        "form" : {
          "coding" : [ {
            "system" : "https://fhir.kbv.de/CodeSystem/KBV_CS_SFHIR_KBV_DARREICHUNGSFORM",
            "code" : "TAB"
          } ]
        },
        "amount" : {
          "numerator" : {
            "extension" : [ {
              "url" : "https://fhir.kbv.de/StructureDefinition/KBV_EX_ERP_Medication_PackagingSize",
              "valueString" : "1"
            } ],
            "unit" : "Stk"
          },
          "denominator" : {
            "value" : 1
          }
        }
      } ],
      "basedOn" : [ {
        "reference" : "Task/160.000.210.284.792.22"
      } ],
      "status" : "unknown",
      "about" : [ {
        "reference" : "#99229024-4cb3-42f2-af58-19c80bb9a905"
      } ],
      "sent" : "2023-10-31T18:58:59.226+00:00",
      "received" : "2023-10-31T18:58:59.000+00:00",
      "recipient" : [ {
        "identifier" : {
          "system" : "https://gematik.de/fhir/sid/telematik-id",
          "value" : "3-SMC-B-Testkarte-883110000116873"
        }
      } ],
      "sender" : {
        "identifier" : {
          "system" : "http://fhir.de/sid/gkv/kvid-10",
          "value" : "X110498565"
        }
      },
      "payload" : [ {
        "extension" : [ {
          "url" : "https://gematik.de/fhir/erp/StructureDefinition/GEM_ERP_EX_InsuranceProvider",
          "valueIdentifier" : {
            "system" : "http://fhir.de/sid/arge-ik/iknr",
            "value" : "105530422"
          }
        }, {
          "url" : "https://gematik.de/fhir/erp/StructureDefinition/GEM_ERP_EX_SubstitutionAllowedType",
          "valueBoolean" : true
        }, {
          "url" : "https://gematik.de/fhir/erp/StructureDefinition/GEM_ERP_EX_PrescriptionType",
          "valueCoding" : {
            "system" : "https://gematik.de/fhir/erp/CodeSystem/GEM_ERP_CS_FlowType",
            "code" : "160",
            "display" : "Muster 16 (Apothekenpflichtige Arzneimittel)"
          }
        } ],
        "contentString" : "There's only one life-form as intelligent as me within thirty parsecs of here and that's me."
      } ]
    },
    "search" : {
      "mode" : "match"
    }
  }, {
    "fullUrl" : "https://erp-ref.zentral.erp.splitdns.ti-dienste.de/Communication/01ebb2e5-97a8-e3d8-94ff-3cdfd1ba1137",
    "resource" : {
      "resourceType" : "Communication",
      "id" : "01ebb2e5-97a8-e3d8-94ff-3cdfd1ba1137",
      "meta" : {
        "profile" : [ "https://gematik.de/fhir/erp/StructureDefinition/GEM_ERP_PR_Communication_DispReq|1.2" ]
      },
      "basedOn" : [ {
        "reference" : "/Task/160.000.210.284.791.25/$accept?ac=33c3748fd90d9357bace93047705f903db4b414454dd64410120804e9e1ec0e1"
      } ],
      "status" : "unknown",
      "sent" : "2023-10-31T18:58:46.615+00:00",
      "received" : "2023-10-31T18:58:47.000+00:00",
      "recipient" : [ {
        "identifier" : {
          "system" : "https://gematik.de/fhir/sid/telematik-id",
          "value" : "3-SMC-B-Testkarte-883110000116873"
        }
      } ],
      "sender" : {
        "identifier" : {
          "system" : "http://fhir.de/sid/gkv/kvid-10",
          "value" : "X110498565"
        }
      },
      "payload" : [ {
        "contentString" : "{\"version\":1,\"supplyOptionsType\":\"onPremise\",\"hint\":\"Jesus, George, it was a wonder I was even born.\"}"
      } ]
    },
    "search" : {
      "mode" : "match"
    }
  }, {
    "fullUrl" : "https://erp-ref.zentral.erp.splitdns.ti-dienste.de/Communication/01ebb2d1-c815-1d20-f1be-8f8996cb80dd",
    "resource" : {
      "resourceType" : "Communication",
      "id" : "01ebb2d1-c815-1d20-f1be-8f8996cb80dd",
      "meta" : {
        "profile" : [ "https://gematik.de/fhir/erp/StructureDefinition/GEM_ERP_PR_Communication_InfoReq|1.2" ]
      },
      "contained" : [ {
        "resourceType" : "Medication",
        "id" : "659a0e4e-8d19-4bf9-a3e3-c1efc5cd8167",
        "meta" : {
          "profile" : [ "https://fhir.kbv.de/StructureDefinition/KBV_PR_ERP_Medication_PZN|1.1.0" ]
        },
        "extension" : [ {
          "url" : "https://fhir.kbv.de/StructureDefinition/KBV_EX_Base_Medication_Type",
          "valueCodeableConcept" : {
            "coding" : [ {
              "system" : "http://snomed.info/sct",
              "version" : "http://snomed.info/sct/900000000000207008/version/20220331",
              "code" : "763158003",
              "display" : "Medicinal product (product)"
            } ]
          }
        }, {
          "url" : "https://fhir.kbv.de/StructureDefinition/KBV_EX_ERP_Medication_Category",
          "valueCoding" : {
            "system" : "https://fhir.kbv.de/CodeSystem/KBV_CS_ERP_Medication_Category",
            "code" : "00"
          }
        }, {
          "url" : "https://fhir.kbv.de/StructureDefinition/KBV_EX_ERP_Medication_Vaccine",
          "valueBoolean" : false
        }, {
          "url" : "http://fhir.de/StructureDefinition/normgroesse",
          "valueCode" : "N1"
        } ],
        "code" : {
          "coding" : [ {
            "system" : "http://fhir.de/CodeSystem/ifa/pzn",
            "code" : "12345678"
          } ],
          "text" : "Schmerzmittel"
        },
        "form" : {
          "coding" : [ {
            "system" : "https://fhir.kbv.de/CodeSystem/KBV_CS_SFHIR_KBV_DARREICHUNGSFORM",
            "code" : "TAB"
          } ]
        },
        "amount" : {
          "numerator" : {
            "extension" : [ {
              "url" : "https://fhir.kbv.de/StructureDefinition/KBV_EX_ERP_Medication_PackagingSize",
              "valueString" : "1"
            } ],
            "unit" : "Stk"
          },
          "denominator" : {
            "value" : 1
          }
        }
      } ],
      "basedOn" : [ {
        "reference" : "Task/160.000.210.283.658.29"
      } ],
      "status" : "unknown",
      "about" : [ {
        "reference" : "#659a0e4e-8d19-4bf9-a3e3-c1efc5cd8167"
      } ],
      "sent" : "2023-10-30T19:20:39.668+00:00",
      "received" : "2023-10-31T18:58:47.000+00:00",
      "recipient" : [ {
        "identifier" : {
          "system" : "https://gematik.de/fhir/sid/telematik-id",
          "value" : "3-SMC-B-Testkarte-883110000116873"
        }
      } ],
      "sender" : {
        "identifier" : {
          "system" : "http://fhir.de/sid/gkv/kvid-10",
          "value" : "X110498565"
        }
      },
      "payload" : [ {
        "extension" : [ {
          "url" : "https://gematik.de/fhir/erp/StructureDefinition/GEM_ERP_EX_InsuranceProvider",
          "valueIdentifier" : {
            "system" : "http://fhir.de/sid/arge-ik/iknr",
            "value" : "105330431"
          }
        }, {
          "url" : "https://gematik.de/fhir/erp/StructureDefinition/GEM_ERP_EX_SubstitutionAllowedType",
          "valueBoolean" : true
        }, {
          "url" : "https://gematik.de/fhir/erp/StructureDefinition/GEM_ERP_EX_PrescriptionType",
          "valueCoding" : {
            "system" : "https://gematik.de/fhir/erp/CodeSystem/GEM_ERP_CS_FlowType",
            "code" : "160",
            "display" : "Muster 16 (Apothekenpflichtige Arzneimittel)"
          }
        } ],
        "contentString" : "You think you've got problems? What are you supposed to do if you are a manically depressed robot? No, don't try to answer that. I'm fifty thousand times more intelligent than you and even I don't know the answer. It gives me a headache just trying to think down to your level."
      } ]
    },
    "search" : {
      "mode" : "match"
    }
  }, {
    "fullUrl" : "https://erp-ref.zentral.erp.splitdns.ti-dienste.de/Communication/01ebb2d1-8f1f-a990-e3cc-aea02af76202",
    "resource" : {
      "resourceType" : "Communication",
      "id" : "01ebb2d1-8f1f-a990-e3cc-aea02af76202",
      "meta" : {
        "profile" : [ "https://gematik.de/fhir/erp/StructureDefinition/GEM_ERP_PR_Communication_Representative|1.2" ]
      },
      "basedOn" : [ {
        "reference" : "/Task/160.000.210.283.589.42/$accept?ac=08ad9be14bdb0bc6d2e9a140d99998f1e53cdc6de843f311e180acb2d6b7a67c"
      } ],
      "status" : "unknown",
      "sent" : "2023-10-30T19:04:44.058+00:00",
      "received" : "2023-10-30T19:04:44.000+00:00",
      "recipient" : [ {
        "identifier" : {
          "system" : "http://fhir.de/sid/gkv/kvid-10",
          "value" : "X110465770"
        }
      } ],
      "sender" : {
        "identifier" : {
          "system" : "http://fhir.de/sid/gkv/kvid-10",
          "value" : "X110498565"
        }
      },
      "payload" : [ {
        "extension" : [ {
          "url" : "https://gematik.de/fhir/erp/StructureDefinition/GEM_ERP_EX_SubstitutionAllowedType",
          "valueBoolean" : true
        }, {
          "url" : "https://gematik.de/fhir/erp/StructureDefinition/GEM_ERP_EX_PrescriptionType",
          "valueCoding" : {
            "system" : "https://gematik.de/fhir/erp/CodeSystem/GEM_ERP_CS_FlowType",
            "code" : "160",
            "display" : "Muster 16 (Apothekenpflichtige Arzneimittel)"
          }
        } ],
        "contentString" : "Wenn Chuck Norris beim Russisch Roulette verliert, will er eine Revanche."
      } ]
    },
    "search" : {
      "mode" : "match"
    }
  }, {
    "fullUrl" : "https://erp-ref.zentral.erp.splitdns.ti-dienste.de/Communication/01ebb2d1-7e13-5020-daff-54f6f5301f1e",
    "resource" : {
      "resourceType" : "Communication",
      "id" : "01ebb2d1-7e13-5020-daff-54f6f5301f1e",
      "meta" : {
        "profile" : [ "https://gematik.de/fhir/erp/StructureDefinition/GEM_ERP_PR_Communication_InfoReq|1.2" ]
      },
      "contained" : [ {
        "resourceType" : "Medication",
        "id" : "2c8551e4-e497-4a41-a5c2-23efb1d53de5",
        "meta" : {
          "profile" : [ "https://fhir.kbv.de/StructureDefinition/KBV_PR_ERP_Medication_PZN|1.1.0" ]
        },
        "extension" : [ {
          "url" : "https://fhir.kbv.de/StructureDefinition/KBV_EX_Base_Medication_Type",
          "valueCodeableConcept" : {
            "coding" : [ {
              "system" : "http://snomed.info/sct",
              "version" : "http://snomed.info/sct/900000000000207008/version/20220331",
              "code" : "763158003",
              "display" : "Medicinal product (product)"
            } ]
          }
        }, {
          "url" : "https://fhir.kbv.de/StructureDefinition/KBV_EX_ERP_Medication_Category",
          "valueCoding" : {
            "system" : "https://fhir.kbv.de/CodeSystem/KBV_CS_ERP_Medication_Category",
            "code" : "00"
          }
        }, {
          "url" : "https://fhir.kbv.de/StructureDefinition/KBV_EX_ERP_Medication_Vaccine",
          "valueBoolean" : false
        }, {
          "url" : "http://fhir.de/StructureDefinition/normgroesse",
          "valueCode" : "NB"
        } ],
        "code" : {
          "coding" : [ {
            "system" : "http://fhir.de/CodeSystem/ifa/pzn",
            "code" : "12345678"
          } ],
          "text" : "Schmerzmittel"
        },
        "form" : {
          "coding" : [ {
            "system" : "https://fhir.kbv.de/CodeSystem/KBV_CS_SFHIR_KBV_DARREICHUNGSFORM",
            "code" : "TAB"
          } ]
        },
        "amount" : {
          "numerator" : {
            "extension" : [ {
              "url" : "https://fhir.kbv.de/StructureDefinition/KBV_EX_ERP_Medication_PackagingSize",
              "valueString" : "1"
            } ],
            "unit" : "Stk"
          },
          "denominator" : {
            "value" : 1
          }
        }
      } ],
      "basedOn" : [ {
        "reference" : "Task/160.000.210.283.565.17"
      } ],
      "status" : "unknown",
      "about" : [ {
        "reference" : "#2c8551e4-e497-4a41-a5c2-23efb1d53de5"
      } ],
      "sent" : "2023-10-30T18:59:58.036+00:00",
      "recipient" : [ {
        "identifier" : {
          "system" : "https://gematik.de/fhir/sid/telematik-id",
          "value" : "1-2-ARZT-BerndClaudius01"
        }
      } ],
      "sender" : {
        "identifier" : {
          "system" : "http://fhir.de/sid/gkv/kvid-10",
          "value" : "X110498565"
        }
      },
      "payload" : [ {
        "extension" : [ {
          "url" : "https://gematik.de/fhir/erp/StructureDefinition/GEM_ERP_EX_InsuranceProvider",
          "valueIdentifier" : {
            "system" : "http://fhir.de/sid/arge-ik/iknr",
            "value" : "107536171"
          }
        }, {
          "url" : "https://gematik.de/fhir/erp/StructureDefinition/GEM_ERP_EX_SubstitutionAllowedType",
          "valueBoolean" : true
        }, {
          "url" : "https://gematik.de/fhir/erp/StructureDefinition/GEM_ERP_EX_PrescriptionType",
          "valueCoding" : {
            "system" : "https://gematik.de/fhir/erp/CodeSystem/GEM_ERP_CS_FlowType",
            "code" : "160",
            "display" : "Muster 16 (Apothekenpflichtige Arzneimittel)"
          }
        } ],
        "contentString" : "And then of course I've got this terrible pain in all the diodes down my left side."
      } ]
    },
    "search" : {
      "mode" : "match"
    }
  }, {
    "fullUrl" : "https://erp-ref.zentral.erp.splitdns.ti-dienste.de/Communication/01ebb2d1-7d8f-4f28-0107-e0ae4a15cd85",
    "resource" : {
      "resourceType" : "Communication",
      "id" : "01ebb2d1-7d8f-4f28-0107-e0ae4a15cd85",
      "meta" : {
        "profile" : [ "https://gematik.de/fhir/erp/StructureDefinition/GEM_ERP_PR_Communication_InfoReq|1.2" ]
      },
      "contained" : [ {
        "resourceType" : "Medication",
        "id" : "46816009-ad15-4c6b-806e-3cf35260dd5c",
        "meta" : {
          "profile" : [ "https://fhir.kbv.de/StructureDefinition/KBV_PR_ERP_Medication_PZN|1.1.0" ]
        },
        "extension" : [ {
          "url" : "https://fhir.kbv.de/StructureDefinition/KBV_EX_Base_Medication_Type",
          "valueCodeableConcept" : {
            "coding" : [ {
              "system" : "http://snomed.info/sct",
              "version" : "http://snomed.info/sct/900000000000207008/version/20220331",
              "code" : "763158003",
              "display" : "Medicinal product (product)"
            } ]
          }
        }, {
          "url" : "https://fhir.kbv.de/StructureDefinition/KBV_EX_ERP_Medication_Category",
          "valueCoding" : {
            "system" : "https://fhir.kbv.de/CodeSystem/KBV_CS_ERP_Medication_Category",
            "code" : "00"
          }
        }, {
          "url" : "https://fhir.kbv.de/StructureDefinition/KBV_EX_ERP_Medication_Vaccine",
          "valueBoolean" : false
        }, {
          "url" : "http://fhir.de/StructureDefinition/normgroesse",
          "valueCode" : "NB"
        } ],
        "code" : {
          "coding" : [ {
            "system" : "http://fhir.de/CodeSystem/ifa/pzn",
            "code" : "12345678"
          } ],
          "text" : "Schmerzmittel"
        },
        "form" : {
          "coding" : [ {
            "system" : "https://fhir.kbv.de/CodeSystem/KBV_CS_SFHIR_KBV_DARREICHUNGSFORM",
            "code" : "TAB"
          } ]
        },
        "amount" : {
          "numerator" : {
            "extension" : [ {
              "url" : "https://fhir.kbv.de/StructureDefinition/KBV_EX_ERP_Medication_PackagingSize",
              "valueString" : "1"
            } ],
            "unit" : "Stk"
          },
          "denominator" : {
            "value" : 1
          }
        }
      } ],
      "basedOn" : [ {
        "reference" : "Task/160.000.210.283.564.20"
      } ],
      "status" : "unknown",
      "about" : [ {
        "reference" : "#46816009-ad15-4c6b-806e-3cf35260dd5c"
      } ],
      "sent" : "2023-10-30T18:59:49.385+00:00",
      "received" : "2023-10-30T18:59:49.000+00:00",
      "recipient" : [ {
        "identifier" : {
          "system" : "https://gematik.de/fhir/sid/telematik-id",
          "value" : "3-SMC-B-Testkarte-883110000116873"
        }
      } ],
      "sender" : {
        "identifier" : {
          "system" : "http://fhir.de/sid/gkv/kvid-10",
          "value" : "X110498565"
        }
      },
      "payload" : [ {
        "extension" : [ {
          "url" : "https://gematik.de/fhir/erp/StructureDefinition/GEM_ERP_EX_InsuranceProvider",
          "valueIdentifier" : {
            "system" : "http://fhir.de/sid/arge-ik/iknr",
            "value" : "104224634"
          }
        }, {
          "url" : "https://gematik.de/fhir/erp/StructureDefinition/GEM_ERP_EX_SubstitutionAllowedType",
          "valueBoolean" : true
        }, {
          "url" : "https://gematik.de/fhir/erp/StructureDefinition/GEM_ERP_EX_PrescriptionType",
          "valueCoding" : {
            "system" : "https://gematik.de/fhir/erp/CodeSystem/GEM_ERP_CS_FlowType",
            "code" : "160",
            "display" : "Muster 16 (Apothekenpflichtige Arzneimittel)"
          }
        } ],
        "contentString" : "There's only one life-form as intelligent as me within thirty parsecs of here and that's me."
      } ]
    },
    "search" : {
      "mode" : "match"
    }
  }, {
    "fullUrl" : "https://erp-ref.zentral.erp.splitdns.ti-dienste.de/Communication/01ebb2d1-7ca2-a920-8250-dbeb7341168d",
    "resource" : {
      "resourceType" : "Communication",
      "id" : "01ebb2d1-7ca2-a920-8250-dbeb7341168d",
      "meta" : {
        "profile" : [ "https://gematik.de/fhir/erp/StructureDefinition/GEM_ERP_PR_Communication_Reply|1.2" ]
      },
      "basedOn" : [ {
        "reference" : "Task/160.000.210.283.563.23"
      } ],
      "status" : "unknown",
      "sent" : "2023-10-30T18:59:33.876+00:00",
      "received" : "2023-10-31T18:59:01.000+00:00",
      "recipient" : [ {
        "identifier" : {
          "system" : "http://fhir.de/sid/gkv/kvid-10",
          "value" : "X110498565"
        }
      } ],
      "sender" : {
        "identifier" : {
          "system" : "https://gematik.de/fhir/sid/telematik-id",
          "value" : "3-SMC-B-Testkarte-883110000116873"
        }
      },
      "payload" : [ {
        "extension" : [ {
          "url" : "https://gematik.de/fhir/erp/StructureDefinition/GEM_ERP_EX_AvailabilityState",
          "valueCoding" : {
            "system" : "https://gematik.de/fhir/erp/CodeSystem/GEM_ERP_CS_AvailabilityStatus",
            "code" : "30"
          }
        }, {
          "url" : "https://gematik.de/fhir/erp/StructureDefinition/GEM_ERP_EX_SupplyOptionsType",
          "extension" : [ {
            "url" : "onPremise",
            "valueBoolean" : true
          }, {
            "url" : "delivery",
            "valueBoolean" : false
          }, {
            "url" : "shipment",
            "valueBoolean" : false
          } ]
        } ],
        "contentString" : "{\"version\":1,\"supplyOptionsType\":\"shipment\",\"info_text\":\"Before I do your bidding, manling, I must cleanse the way between us. You've put a water burden on me that I'm not sure I care to support. But we Fremen pay our debts\"}"
      } ]
    },
    "search" : {
      "mode" : "match"
    }
  }, {
    "fullUrl" : "https://erp-ref.zentral.erp.splitdns.ti-dienste.de/Communication/01ebb2d1-7974-67e8-4927-8492107c0697",
    "resource" : {
      "resourceType" : "Communication",
      "id" : "01ebb2d1-7974-67e8-4927-8492107c0697",
      "meta" : {
        "profile" : [ "https://gematik.de/fhir/erp/StructureDefinition/GEM_ERP_PR_Communication_Reply|1.2" ]
      },
      "basedOn" : [ {
        "reference" : "Task/160.000.210.283.558.38"
      } ],
      "status" : "unknown",
      "sent" : "2023-10-30T18:58:40.513+00:00",
      "received" : "2023-10-30T18:58:41.000+00:00",
      "recipient" : [ {
        "identifier" : {
          "system" : "http://fhir.de/sid/gkv/kvid-10",
          "value" : "X110498565"
        }
      } ],
      "sender" : {
        "identifier" : {
          "system" : "https://gematik.de/fhir/sid/telematik-id",
          "value" : "3-SMC-B-Testkarte-883110000116873"
        }
      },
      "payload" : [ {
        "extension" : [ {
          "url" : "https://gematik.de/fhir/erp/StructureDefinition/GEM_ERP_EX_AvailabilityState",
          "valueCoding" : {
            "system" : "https://gematik.de/fhir/erp/CodeSystem/GEM_ERP_CS_AvailabilityStatus",
            "code" : "30"
          }
        }, {
          "url" : "https://gematik.de/fhir/erp/StructureDefinition/GEM_ERP_EX_SupplyOptionsType",
          "extension" : [ {
            "url" : "onPremise",
            "valueBoolean" : true
          }, {
            "url" : "delivery",
            "valueBoolean" : false
          }, {
            "url" : "shipment",
            "valueBoolean" : false
          } ]
        } ],
        "contentString" : "{\"version\":1,\"supplyOptionsType\":\"delivery\",\"info_text\":\"Did you really think that you could bear the Kwisatz Haderach? The universe's super being? How dare you. My greatest student, and my greatest disappointment.\"}"
      } ]
    },
    "search" : {
      "mode" : "match"
    }
  }, {
    "fullUrl" : "https://erp-ref.zentral.erp.splitdns.ti-dienste.de/Communication/01ebb2d1-7964-0880-a0f8-da51e6d95e90",
    "resource" : {
      "resourceType" : "Communication",
      "id" : "01ebb2d1-7964-0880-a0f8-da51e6d95e90",
      "meta" : {
        "profile" : [ "https://gematik.de/fhir/erp/StructureDefinition/GEM_ERP_PR_Communication_InfoReq|1.2" ]
      },
      "contained" : [ {
        "resourceType" : "Medication",
        "id" : "26287ec2-42bf-4016-9fe6-006041e98ab9",
        "meta" : {
          "profile" : [ "https://fhir.kbv.de/StructureDefinition/KBV_PR_ERP_Medication_PZN|1.1.0" ]
        },
        "extension" : [ {
          "url" : "https://fhir.kbv.de/StructureDefinition/KBV_EX_Base_Medication_Type",
          "valueCodeableConcept" : {
            "coding" : [ {
              "system" : "http://snomed.info/sct",
              "version" : "http://snomed.info/sct/900000000000207008/version/20220331",
              "code" : "763158003",
              "display" : "Medicinal product (product)"
            } ]
          }
        }, {
          "url" : "https://fhir.kbv.de/StructureDefinition/KBV_EX_ERP_Medication_Category",
          "valueCoding" : {
            "system" : "https://fhir.kbv.de/CodeSystem/KBV_CS_ERP_Medication_Category",
            "code" : "00"
          }
        }, {
          "url" : "https://fhir.kbv.de/StructureDefinition/KBV_EX_ERP_Medication_Vaccine",
          "valueBoolean" : false
        }, {
          "url" : "http://fhir.de/StructureDefinition/normgroesse",
          "valueCode" : "NB"
        } ],
        "code" : {
          "coding" : [ {
            "system" : "http://fhir.de/CodeSystem/ifa/pzn",
            "code" : "12345678"
          } ],
          "text" : "Schmerzmittel"
        },
        "form" : {
          "coding" : [ {
            "system" : "https://fhir.kbv.de/CodeSystem/KBV_CS_SFHIR_KBV_DARREICHUNGSFORM",
            "code" : "TAB"
          } ]
        },
        "amount" : {
          "numerator" : {
            "extension" : [ {
              "url" : "https://fhir.kbv.de/StructureDefinition/KBV_EX_ERP_Medication_PackagingSize",
              "valueString" : "1"
            } ],
            "unit" : "Stk"
          },
          "denominator" : {
            "value" : 1
          }
        }
      } ],
      "basedOn" : [ {
        "reference" : "Task/160.000.210.283.558.38"
      } ],
      "status" : "unknown",
      "about" : [ {
        "reference" : "#26287ec2-42bf-4016-9fe6-006041e98ab9"
      } ],
      "sent" : "2023-10-30T18:58:39.440+00:00",
      "received" : "2023-10-30T18:58:40.000+00:00",
      "recipient" : [ {
        "identifier" : {
          "system" : "https://gematik.de/fhir/sid/telematik-id",
          "value" : "3-SMC-B-Testkarte-883110000116873"
        }
      } ],
      "sender" : {
        "identifier" : {
          "system" : "http://fhir.de/sid/gkv/kvid-10",
          "value" : "X110498565"
        }
      },
      "payload" : [ {
        "extension" : [ {
          "url" : "https://gematik.de/fhir/erp/StructureDefinition/GEM_ERP_EX_InsuranceProvider",
          "valueIdentifier" : {
            "system" : "http://fhir.de/sid/arge-ik/iknr",
            "value" : "103524101"
          }
        }, {
          "url" : "https://gematik.de/fhir/erp/StructureDefinition/GEM_ERP_EX_SubstitutionAllowedType",
          "valueBoolean" : true
        }, {
          "url" : "https://gematik.de/fhir/erp/StructureDefinition/GEM_ERP_EX_PrescriptionType",
          "valueCoding" : {
            "system" : "https://gematik.de/fhir/erp/CodeSystem/GEM_ERP_CS_FlowType",
            "code" : "160",
            "display" : "Muster 16 (Apothekenpflichtige Arzneimittel)"
          }
        } ],
        "contentString" : "Life? Don't talk to me about life."
      } ]
    },
    "search" : {
      "mode" : "match"
    }
  }, {
    "fullUrl" : "https://erp-ref.zentral.erp.splitdns.ti-dienste.de/Communication/01ebb2d1-78a6-65a0-26a4-0f9edba5120f",
    "resource" : {
      "resourceType" : "Communication",
      "id" : "01ebb2d1-78a6-65a0-26a4-0f9edba5120f",
      "meta" : {
        "profile" : [ "https://gematik.de/fhir/erp/StructureDefinition/GEM_ERP_PR_Communication_DispReq|1.2" ]
      },
      "basedOn" : [ {
        "reference" : "/Task/160.000.210.283.557.41/$accept?ac=57e755ca2702320c150366ef724d9fd4ac659162d9f34b6223bb99d66c59b4c8"
      } ],
      "status" : "unknown",
      "sent" : "2023-10-30T18:58:27.012+00:00",
      "received" : "2023-10-30T18:58:27.000+00:00",
      "recipient" : [ {
        "identifier" : {
          "system" : "https://gematik.de/fhir/sid/telematik-id",
          "value" : "3-SMC-B-Testkarte-883110000116873"
        }
      } ],
      "sender" : {
        "identifier" : {
          "system" : "http://fhir.de/sid/gkv/kvid-10",
          "value" : "X110498565"
        }
      },
      "payload" : [ {
        "contentString" : "{\"version\":1,\"supplyOptionsType\":\"onPremise\",\"hint\":\"Who the hell is John F. Kennedy?\"}"
      } ]
    },
    "search" : {
      "mode" : "match"
    }
  }, {
    "fullUrl" : "https://erp-ref.zentral.erp.splitdns.ti-dienste.de/Communication/01eb9d24-4e74-4fa8-2f1d-3a781dcf3544",
    "resource" : {
      "resourceType" : "Communication",
      "id" : "01eb9d24-4e74-4fa8-2f1d-3a781dcf3544",
      "meta" : {
        "profile" : [ "https://gematik.de/fhir/StructureDefinition/ErxCommunicationInfoReq" ]
      },
      "contained" : [ {
        "resourceType" : "Medication",
        "id" : "a98fcb4b-367b-4186-bf73-6dcd44a24e02",
        "meta" : {
          "profile" : [ "https://fhir.kbv.de/StructureDefinition/KBV_PR_ERP_Medication_PZN|1.0.2" ]
        },
        "extension" : [ {
          "url" : "https://fhir.kbv.de/StructureDefinition/KBV_EX_ERP_Medication_Category",
          "valueCoding" : {
            "system" : "https://fhir.kbv.de/CodeSystem/KBV_CS_ERP_Medication_Category",
            "code" : "00"
          }
        }, {
          "url" : "https://fhir.kbv.de/StructureDefinition/KBV_EX_ERP_Medication_Vaccine",
          "valueBoolean" : false
        }, {
          "url" : "http://fhir.de/StructureDefinition/normgroesse",
          "valueCode" : "N2"
        } ],
        "code" : {
          "coding" : [ {
            "system" : "http://fhir.de/CodeSystem/ifa/pzn",
            "code" : "89569803"
          } ],
          "text" : "Gemteren"
        },
        "form" : {
          "coding" : [ {
            "system" : "https://fhir.kbv.de/CodeSystem/KBV_CS_SFHIR_KBV_DARREICHUNGSFORM",
            "code" : "PAM"
          } ]
        },
        "amount" : {
          "numerator" : {
            "value" : 7,
            "unit" : "Stk"
          },
          "denominator" : {
            "value" : 1
          }
        }
      } ],
      "basedOn" : [ {
        "reference" : "Task/169.000.004.845.350.47"
      } ],
      "status" : "unknown",
      "about" : [ {
        "reference" : "#a98fcb4b-367b-4186-bf73-6dcd44a24e02"
      } ],
      "sent" : "2023-01-27T22:33:45.561+00:00",
      "received" : "2023-01-28T22:23:32.000+00:00",
      "recipient" : [ {
        "identifier" : {
          "system" : "https://gematik.de/fhir/NamingSystem/TelematikID",
          "value" : "3-SMC-B-Testkarte-883110000116873"
        }
      } ],
      "sender" : {
        "identifier" : {
          "system" : "http://fhir.de/NamingSystem/gkv/kvid-10",
          "value" : "X110498565"
        }
      },
      "payload" : [ {
        "extension" : [ {
          "url" : "https://gematik.de/fhir/StructureDefinition/InsuranceProvider",
          "valueIdentifier" : {
            "system" : "http://fhir.de/NamingSystem/arge-ik/iknr",
            "value" : "104212059"
          }
        }, {
          "url" : "https://gematik.de/fhir/StructureDefinition/SubstitutionAllowedType",
          "valueBoolean" : true
        }, {
          "url" : "https://gematik.de/fhir/StructureDefinition/PrescriptionType",
          "valueCoding" : {
            "system" : "https://gematik.de/fhir/CodeSystem/Flowtype",
            "code" : "160",
            "display" : "Muster 16 (Apothekenpflichtige Arzneimittel)"
          }
        } ],
        "contentString" : "Hallo, ich wollte gern fragen, ob das Medikament bei Ihnen vorraetig ist."
      } ]
    },
    "search" : {
      "mode" : "match"
    }
  }, {
    "fullUrl" : "https://erp-ref.zentral.erp.splitdns.ti-dienste.de/Communication/01eb9cab-9f81-e960-adec-7e97f275e7e1",
    "resource" : {
      "resourceType" : "Communication",
      "id" : "01eb9cab-9f81-e960-adec-7e97f275e7e1",
      "meta" : {
        "profile" : [ "https://gematik.de/fhir/StructureDefinition/ErxCommunicationInfoReq" ]
      },
      "contained" : [ {
        "resourceType" : "Medication",
        "id" : "f0cf5d16-10d1-4da8-9bf2-192bf3c381e0",
        "meta" : {
          "profile" : [ "https://fhir.kbv.de/StructureDefinition/KBV_PR_ERP_Medication_PZN|1.0.2" ]
        },
        "extension" : [ {
          "url" : "https://fhir.kbv.de/StructureDefinition/KBV_EX_ERP_Medication_Category",
          "valueCoding" : {
            "system" : "https://fhir.kbv.de/CodeSystem/KBV_CS_ERP_Medication_Category",
            "code" : "00"
          }
        }, {
          "url" : "https://fhir.kbv.de/StructureDefinition/KBV_EX_ERP_Medication_Vaccine",
          "valueBoolean" : false
        }, {
          "url" : "http://fhir.de/StructureDefinition/normgroesse",
          "valueCode" : "N3"
        } ],
        "code" : {
          "coding" : [ {
            "system" : "http://fhir.de/CodeSystem/ifa/pzn",
            "code" : "78315337"
          } ],
          "text" : "Gosamemib"
        },
        "form" : {
          "coding" : [ {
            "system" : "https://fhir.kbv.de/CodeSystem/KBV_CS_SFHIR_KBV_DARREICHUNGSFORM",
            "code" : "FMR"
          } ]
        },
        "amount" : {
          "numerator" : {
            "value" : 15,
            "unit" : "Stk"
          },
          "denominator" : {
            "value" : 1
          }
        }
      } ],
      "basedOn" : [ {
        "reference" : "Task/169.000.004.844.516.27"
      } ],
      "status" : "unknown",
      "about" : [ {
        "reference" : "#f0cf5d16-10d1-4da8-9bf2-192bf3c381e0"
      } ],
      "sent" : "2023-01-21T22:34:54.364+00:00",
      "received" : "2023-01-21T23:18:43.000+00:00",
      "recipient" : [ {
        "identifier" : {
          "system" : "https://gematik.de/fhir/NamingSystem/TelematikID",
          "value" : "3-SMC-B-Testkarte-883110000116873"
        }
      } ],
      "sender" : {
        "identifier" : {
          "system" : "http://fhir.de/NamingSystem/gkv/kvid-10",
          "value" : "X110498565"
        }
      },
      "payload" : [ {
        "extension" : [ {
          "url" : "https://gematik.de/fhir/StructureDefinition/InsuranceProvider",
          "valueIdentifier" : {
            "system" : "http://fhir.de/NamingSystem/arge-ik/iknr",
            "value" : "104212059"
          }
        }, {
          "url" : "https://gematik.de/fhir/StructureDefinition/SubstitutionAllowedType",
          "valueBoolean" : true
        }, {
          "url" : "https://gematik.de/fhir/StructureDefinition/PrescriptionType",
          "valueCoding" : {
            "system" : "https://gematik.de/fhir/CodeSystem/Flowtype",
            "code" : "160",
            "display" : "Muster 16 (Apothekenpflichtige Arzneimittel)"
          }
        } ],
        "contentString" : "Hallo, ich wollte gern fragen, ob das Medikament bei Ihnen vorraetig ist."
      } ]
    },
    "search" : {
      "mode" : "match"
    }
  }, {
    "fullUrl" : "https://erp-ref.zentral.erp.splitdns.ti-dienste.de/Communication/01eb9c5c-09d0-5e78-ef10-627504808c16",
    "resource" : {
      "resourceType" : "Communication",
      "id" : "01eb9c5c-09d0-5e78-ef10-627504808c16",
      "meta" : {
        "profile" : [ "https://gematik.de/fhir/StructureDefinition/ErxCommunicationInfoReq" ]
      },
      "contained" : [ {
        "resourceType" : "Medication",
        "id" : "fdbd2e7a-abdb-4836-8738-bc0cc7d40b6e",
        "meta" : {
          "profile" : [ "https://fhir.kbv.de/StructureDefinition/KBV_PR_ERP_Medication_PZN|1.0.2" ]
        },
        "extension" : [ {
          "url" : "https://fhir.kbv.de/StructureDefinition/KBV_EX_ERP_Medication_Category",
          "valueCoding" : {
            "system" : "https://fhir.kbv.de/CodeSystem/KBV_CS_ERP_Medication_Category",
            "code" : "00"
          }
        }, {
          "url" : "https://fhir.kbv.de/StructureDefinition/KBV_EX_ERP_Medication_Vaccine",
          "valueBoolean" : false
        }, {
          "url" : "http://fhir.de/StructureDefinition/normgroesse",
          "valueCode" : "N2"
        } ],
        "code" : {
          "coding" : [ {
            "system" : "http://fhir.de/CodeSystem/ifa/pzn",
            "code" : "52686293"
          } ],
          "text" : "Famamemus"
        },
        "form" : {
          "coding" : [ {
            "system" : "https://fhir.kbv.de/CodeSystem/KBV_CS_SFHIR_KBV_DARREICHUNGSFORM",
            "code" : "TSE"
          } ]
        },
        "amount" : {
          "numerator" : {
            "value" : 1,
            "unit" : "Stk"
          },
          "denominator" : {
            "value" : 1
          }
        }
      } ],
      "basedOn" : [ {
        "reference" : "Task/169.000.004.844.044.85"
      } ],
      "status" : "unknown",
      "about" : [ {
        "reference" : "#fdbd2e7a-abdb-4836-8738-bc0cc7d40b6e"
      } ],
      "sent" : "2023-01-17T23:38:00.507+00:00",
      "received" : "2023-01-18T08:28:26.000+00:00",
      "recipient" : [ {
        "identifier" : {
          "system" : "https://gematik.de/fhir/NamingSystem/TelematikID",
          "value" : "3-SMC-B-Testkarte-883110000116873"
        }
      } ],
      "sender" : {
        "identifier" : {
          "system" : "http://fhir.de/NamingSystem/gkv/kvid-10",
          "value" : "X110498565"
        }
      },
      "payload" : [ {
        "extension" : [ {
          "url" : "https://gematik.de/fhir/StructureDefinition/InsuranceProvider",
          "valueIdentifier" : {
            "system" : "http://fhir.de/NamingSystem/arge-ik/iknr",
            "value" : "104212059"
          }
        }, {
          "url" : "https://gematik.de/fhir/StructureDefinition/SubstitutionAllowedType",
          "valueBoolean" : true
        }, {
          "url" : "https://gematik.de/fhir/StructureDefinition/PrescriptionType",
          "valueCoding" : {
            "system" : "https://gematik.de/fhir/CodeSystem/Flowtype",
            "code" : "160",
            "display" : "Muster 16 (Apothekenpflichtige Arzneimittel)"
          }
        } ],
        "contentString" : "Hallo, ich wollte gern fragen, ob das Medikament bei Ihnen vorraetig ist."
      } ]
    },
    "search" : {
      "mode" : "match"
    }
  }, {
    "fullUrl" : "https://erp-ref.zentral.erp.splitdns.ti-dienste.de/Communication/01eb9bed-21f2-e120-909e-b933ff0dfadb",
    "resource" : {
      "resourceType" : "Communication",
      "id" : "01eb9bed-21f2-e120-909e-b933ff0dfadb",
      "meta" : {
        "profile" : [ "https://gematik.de/fhir/StructureDefinition/ErxCommunicationInfoReq" ]
      },
      "contained" : [ {
        "resourceType" : "Medication",
        "id" : "fbf741d4-8412-476a-8b6a-1998670b103b",
        "meta" : {
          "profile" : [ "https://fhir.kbv.de/StructureDefinition/KBV_PR_ERP_Medication_PZN|1.0.2" ]
        },
        "extension" : [ {
          "url" : "https://fhir.kbv.de/StructureDefinition/KBV_EX_ERP_Medication_Category",
          "valueCoding" : {
            "system" : "https://fhir.kbv.de/CodeSystem/KBV_CS_ERP_Medication_Category",
            "code" : "00"
          }
        }, {
          "url" : "https://fhir.kbv.de/StructureDefinition/KBV_EX_ERP_Medication_Vaccine",
          "valueBoolean" : false
        }, {
          "url" : "http://fhir.de/StructureDefinition/normgroesse",
          "valueCode" : "KTP"
        } ],
        "code" : {
          "coding" : [ {
            "system" : "http://fhir.de/CodeSystem/ifa/pzn",
            "code" : "43582097"
          } ],
          "text" : "Gosvomilrat"
        },
        "form" : {
          "coding" : [ {
            "system" : "https://fhir.kbv.de/CodeSystem/KBV_CS_SFHIR_KBV_DARREICHUNGSFORM",
            "code" : "ILO"
          } ]
        },
        "amount" : {
          "numerator" : {
            "value" : 8,
            "unit" : "Stk"
          },
          "denominator" : {
            "value" : 1
          }
        }
      } ],
      "basedOn" : [ {
        "reference" : "Task/169.000.004.842.848.84"
      } ],
      "status" : "unknown",
      "about" : [ {
        "reference" : "#fbf741d4-8412-476a-8b6a-1998670b103b"
      } ],
      "sent" : "2023-01-12T11:19:04.052+00:00",
      "received" : "2023-01-12T12:21:46.000+00:00",
      "recipient" : [ {
        "identifier" : {
          "system" : "https://gematik.de/fhir/NamingSystem/TelematikID",
          "value" : "3-SMC-B-Testkarte-883110000116873"
        }
      } ],
      "sender" : {
        "identifier" : {
          "system" : "http://fhir.de/NamingSystem/gkv/kvid-10",
          "value" : "X110498565"
        }
      },
      "payload" : [ {
        "extension" : [ {
          "url" : "https://gematik.de/fhir/StructureDefinition/InsuranceProvider",
          "valueIdentifier" : {
            "system" : "http://fhir.de/NamingSystem/arge-ik/iknr",
            "value" : "104212059"
          }
        }, {
          "url" : "https://gematik.de/fhir/StructureDefinition/SubstitutionAllowedType",
          "valueBoolean" : true
        }, {
          "url" : "https://gematik.de/fhir/StructureDefinition/PrescriptionType",
          "valueCoding" : {
            "system" : "https://gematik.de/fhir/CodeSystem/Flowtype",
            "code" : "160",
            "display" : "Muster 16 (Apothekenpflichtige Arzneimittel)"
          }
        } ],
        "contentString" : "Hallo, ich wollte gern fragen, ob das Medikament bei Ihnen vorraetig ist."
      } ]
    },
    "search" : {
      "mode" : "match"
    }
  }, {
    "fullUrl" : "https://erp-ref.zentral.erp.splitdns.ti-dienste.de/Communication/01eb9bbd-3a58-88a8-3ec2-63c88cd3da56",
    "resource" : {
      "resourceType" : "Communication",
      "id" : "01eb9bbd-3a58-88a8-3ec2-63c88cd3da56",
      "meta" : {
        "profile" : [ "https://gematik.de/fhir/StructureDefinition/ErxCommunicationInfoReq" ]
      },
      "contained" : [ {
        "resourceType" : "Medication",
        "id" : "8ae05d81-f59e-457e-8c8a-cf493ddd8167",
        "meta" : {
          "profile" : [ "https://fhir.kbv.de/StructureDefinition/KBV_PR_ERP_Medication_PZN|1.0.2" ]
        },
        "extension" : [ {
          "url" : "https://fhir.kbv.de/StructureDefinition/KBV_EX_ERP_Medication_Category",
          "valueCoding" : {
            "system" : "https://fhir.kbv.de/CodeSystem/KBV_CS_ERP_Medication_Category",
            "code" : "00"
          }
        }, {
          "url" : "https://fhir.kbv.de/StructureDefinition/KBV_EX_ERP_Medication_Vaccine",
          "valueBoolean" : false
        }, {
          "url" : "http://fhir.de/StructureDefinition/normgroesse",
          "valueCode" : "N1"
        } ],
        "code" : {
          "coding" : [ {
            "system" : "http://fhir.de/CodeSystem/ifa/pzn",
            "code" : "97211091"
          } ],
          "text" : "Ibalalimib"
        },
        "form" : {
          "coding" : [ {
            "system" : "https://fhir.kbv.de/CodeSystem/KBV_CS_SFHIR_KBV_DARREICHUNGSFORM",
            "code" : "PEL"
          } ]
        },
        "amount" : {
          "numerator" : {
            "value" : 16,
            "unit" : "Stk"
          },
          "denominator" : {
            "value" : 1
          }
        }
      } ],
      "basedOn" : [ {
        "reference" : "Task/169.000.004.842.050.53"
      } ],
      "status" : "unknown",
      "about" : [ {
        "reference" : "#8ae05d81-f59e-457e-8c8a-cf493ddd8167"
      } ],
      "sent" : "2023-01-10T02:09:54.937+00:00",
      "received" : "2023-01-11T07:37:00.000+00:00",
      "recipient" : [ {
        "identifier" : {
          "system" : "https://gematik.de/fhir/NamingSystem/TelematikID",
          "value" : "3-SMC-B-Testkarte-883110000116873"
        }
      } ],
      "sender" : {
        "identifier" : {
          "system" : "http://fhir.de/NamingSystem/gkv/kvid-10",
          "value" : "X110498565"
        }
      },
      "payload" : [ {
        "extension" : [ {
          "url" : "https://gematik.de/fhir/StructureDefinition/InsuranceProvider",
          "valueIdentifier" : {
            "system" : "http://fhir.de/NamingSystem/arge-ik/iknr",
            "value" : "104212059"
          }
        }, {
          "url" : "https://gematik.de/fhir/StructureDefinition/SubstitutionAllowedType",
          "valueBoolean" : true
        }, {
          "url" : "https://gematik.de/fhir/StructureDefinition/PrescriptionType",
          "valueCoding" : {
            "system" : "https://gematik.de/fhir/CodeSystem/Flowtype",
            "code" : "160",
            "display" : "Muster 16 (Apothekenpflichtige Arzneimittel)"
          }
        } ],
        "contentString" : "Hallo, ich wollte gern fragen, ob das Medikament bei Ihnen vorraetig ist."
      } ]
    },
    "search" : {
      "mode" : "match"
    }
  } ]
}