<Bundle xmlns="http://hl7.org/fhir"><id value="f216db29-6f0a-4635-96dc-e93e19ba1077"/><meta><lastUpdated value="2024-02-08T19:18:03.996+01:00"/><profile value="http://fhir.abda.de/eRezeptAbgabedaten/StructureDefinition/DAV-PKV-PR-ERP-AbgabedatenBundle|1.2"/></meta><identifier><system value="https://gematik.de/fhir/erp/NamingSystem/GEM_ERP_NS_PrescriptionId"/><value value="200.000.002.096.541.25"/></identifier><type value="document"/><timestamp value="2024-02-08T19:18:03.996+01:00"/><entry><fullUrl value="urn:uuid:42bb09cb-26fe-40af-94e9-293e27e7902b"/><resource><Composition xmlns="http://hl7.org/fhir"><id value="42bb09cb-26fe-40af-94e9-293e27e7902b"/><meta><profile value="http://fhir.abda.de/eRezeptAbgabedaten/StructureDefinition/DAV-PKV-PR-ERP-AbgabedatenComposition|1.2"/></meta><status value="final"/><type><coding><system value="http://fhir.abda.de/eRezeptAbgabedaten/CodeSystem/DAV-CS-ERP-CompositionTypes"/><code value="ERezeptAbgabedaten"/></coding></type><date value="2024-02-08T19:18:03+01:00"/><author><reference value="urn:uuid:7b85edb4-0aaa-4264-9a48-e506179899cb"/></author><title value="ERezeptAbgabedaten"/><section><title value="Apotheke"/><entry><reference value="urn:uuid:7b85edb4-0aaa-4264-9a48-e506179899cb"/></entry></section><section><title value="Abgabeinformationen"/><entry><reference value="urn:uuid:a4b31652-32e2-4643-b9ab-bde1c04c2ee1"/></entry></section></Composition></resource></entry><entry><fullUrl value="urn:uuid:7b85edb4-0aaa-4264-9a48-e506179899cb"/><resource><Organization xmlns="http://hl7.org/fhir"><id value="7b85edb4-0aaa-4264-9a48-e506179899cb"/><meta><profile value="http://fhir.abda.de/eRezeptAbgabedaten/StructureDefinition/DAV-PKV-PR-ERP-Apotheke|1.2"/></meta><identifier><system value="http://fhir.de/sid/arge-ik/iknr"/><value value="557480211"/></identifier><name value="Apotheke Shanda Lear"/><address><type value="physical"/><line value="Wilhelm-Liebknecht-Str. 406"><extension url="http://hl7.org/fhir/StructureDefinition/iso21090-ADXP-houseNumber"><valueString value="406"/></extension><extension url="http://hl7.org/fhir/StructureDefinition/iso21090-ADXP-streetName"><valueString value="Wilhelm-Liebknecht-Str."/></extension></line><city value="Nadjaheim"/><postalCode value="23772"/><country value="D"/></address></Organization></resource></entry><entry><fullUrl value="urn:uuid:d5dfdedc-6ecc-4fa2-a177-f1050f39e3f6"/><resource><Invoice xmlns="http://hl7.org/fhir"><id value="d5dfdedc-6ecc-4fa2-a177-f1050f39e3f6"/><meta><profile value="http://fhir.abda.de/eRezeptAbgabedaten/StructureDefinition/DAV-PKV-PR-ERP-Abrechnungszeilen|1.2"/></meta><status value="issued"/><type><coding><system value="http://fhir.abda.de/eRezeptAbgabedaten/CodeSystem/DAV-CS-ERP-InvoiceTyp"/><code value="Abrechnungszeilen"/></coding></type><lineItem><sequence value="1"/><chargeItemCodeableConcept><coding><system value="http://fhir.de/CodeSystem/ifa/pzn"/><code value="51306172"/></coding><text value="Azeimoan"/></chargeItemCodeableConcept><priceComponent><extension url="http://fhir.abda.de/eRezeptAbgabedaten/StructureDefinition/DAV-EX-ERP-KostenVersicherter"><extension url="Kategorie"><valueCodeableConcept><coding><system value="http://fhir.abda.de/eRezeptAbgabedaten/CodeSystem/DAV-PKV-CS-ERP-KostenVersicherterKategorie"/><code value="0"/></coding></valueCodeableConcept></extension><extension url="Kostenbetrag"><valueMoney><value value="0.11"/><currency value="EUR"/></valueMoney></extension></extension><extension url="http://fhir.abda.de/eRezeptAbgabedaten/StructureDefinition/DAV-EX-ERP-MwStSatz"><valueDecimal value="28.07"/></extension><type value="informational"/><factor value="1"/><amount><value value="0.12"/><currency value="EUR"/></amount></priceComponent></lineItem><lineItem><sequence value="2"/><chargeItemCodeableConcept><coding><system value="http://fhir.de/CodeSystem/ifa/pzn"/><code value="38662347"/></coding><text value="Gosvomilan"/></chargeItemCodeableConcept><priceComponent><extension url="http://fhir.abda.de/eRezeptAbgabedaten/StructureDefinition/DAV-EX-ERP-KostenVersicherter"><extension url="Kategorie"><valueCodeableConcept><coding><system value="http://fhir.abda.de/eRezeptAbgabedaten/CodeSystem/DAV-PKV-CS-ERP-KostenVersicherterKategorie"/><code value="0"/></coding></valueCodeableConcept></extension><extension url="Kostenbetrag"><valueMoney><value value="55.66"/><currency value="EUR"/></valueMoney></extension></extension><extension url="http://fhir.abda.de/eRezeptAbgabedaten/StructureDefinition/DAV-EX-ERP-MwStSatz"><valueDecimal value="28.07"/></extension><type value="informational"/><factor value="1"/><amount><value value="61.38"/><currency value="EUR"/></amount></priceComponent></lineItem><lineItem><sequence value="3"/><chargeItemCodeableConcept><coding><system value="http://fhir.de/CodeSystem/ifa/pzn"/><code value="55018671"/></coding><text value="Cabamimid"/></chargeItemCodeableConcept><priceComponent><extension url="http://fhir.abda.de/eRezeptAbgabedaten/StructureDefinition/DAV-EX-ERP-KostenVersicherter"><extension url="Kategorie"><valueCodeableConcept><coding><system value="http://fhir.abda.de/eRezeptAbgabedaten/CodeSystem/DAV-PKV-CS-ERP-KostenVersicherterKategorie"/><code value="0"/></coding></valueCodeableConcept></extension><extension url="Kostenbetrag"><valueMoney><value value="94.80"/><currency value="EUR"/></valueMoney></extension></extension><extension url="http://fhir.abda.de/eRezeptAbgabedaten/StructureDefinition/DAV-EX-ERP-MwStSatz"><valueDecimal value="28.07"/></extension><type value="informational"/><factor value="1"/><amount><value value="147.96"/><currency value="EUR"/></amount></priceComponent></lineItem><lineItem><sequence value="4"/><chargeItemCodeableConcept><coding><system value="http://fhir.de/CodeSystem/ifa/pzn"/><code value="45764611"/></coding><text value="Calimomus"/></chargeItemCodeableConcept><priceComponent><extension url="http://fhir.abda.de/eRezeptAbgabedaten/StructureDefinition/DAV-EX-ERP-KostenVersicherter"><extension url="Kategorie"><valueCodeableConcept><coding><system value="http://fhir.abda.de/eRezeptAbgabedaten/CodeSystem/DAV-PKV-CS-ERP-KostenVersicherterKategorie"/><code value="0"/></coding></valueCodeableConcept></extension><extension url="Kostenbetrag"><valueMoney><value value="28.24"/><currency value="EUR"/></valueMoney></extension></extension><extension url="http://fhir.abda.de/eRezeptAbgabedaten/StructureDefinition/DAV-EX-ERP-MwStSatz"><valueDecimal value="28.07"/></extension><type value="informational"/><factor value="1"/><amount><value value="34.63"/><currency value="EUR"/></amount></priceComponent></lineItem><lineItem><sequence value="5"/><chargeItemCodeableConcept><coding><system value="http://fhir.de/CodeSystem/ifa/pzn"/><code value="44666585"/></coding><text value="Fesvofloxrat"/></chargeItemCodeableConcept><priceComponent><extension url="http://fhir.abda.de/eRezeptAbgabedaten/StructureDefinition/DAV-EX-ERP-KostenVersicherter"><extension url="Kategorie"><valueCodeableConcept><coding><system value="http://fhir.abda.de/eRezeptAbgabedaten/CodeSystem/DAV-PKV-CS-ERP-KostenVersicherterKategorie"/><code value="0"/></coding></valueCodeableConcept></extension><extension url="Kostenbetrag"><valueMoney><value value="46.36"/><currency value="EUR"/></valueMoney></extension></extension><extension url="http://fhir.abda.de/eRezeptAbgabedaten/StructureDefinition/DAV-EX-ERP-MwStSatz"><valueDecimal value="28.07"/></extension><type value="informational"/><factor value="1"/><amount><value value="118.58"/><currency value="EUR"/></amount></priceComponent></lineItem><totalGross><extension url="http://fhir.abda.de/eRezeptAbgabedaten/StructureDefinition/DAV-EX-ERP-Gesamtzuzahlung"><valueMoney><value value="225.17"/><currency value="EUR"/></valueMoney></extension><value value="362.67"/><currency value="EUR"/></totalGross></Invoice></resource></entry><entry><fullUrl value="urn:uuid:a4b31652-32e2-4643-b9ab-bde1c04c2ee1"/><resource><MedicationDispense xmlns="http://hl7.org/fhir"><id value="a4b31652-32e2-4643-b9ab-bde1c04c2ee1"/><meta><profile value="http://fhir.abda.de/eRezeptAbgabedaten/StructureDefinition/DAV-PKV-PR-ERP-Abgabeinformationen|1.2"/></meta><extension url="http://fhir.abda.de/eRezeptAbgabedaten/StructureDefinition/DAV-PKV-EX-ERP-AbrechnungsTyp"><valueCodeableConcept><coding><system value="http://fhir.abda.de/eRezeptAbgabedaten/CodeSystem/DAV-PKV-CS-ERP-AbrechnungsTyp"/><code value="1"/></coding></valueCodeableConcept></extension><extension url="http://fhir.abda.de/eRezeptAbgabedaten/StructureDefinition/DAV-EX-ERP-Abrechnungszeilen"><valueReference><reference value="urn:uuid:d5dfdedc-6ecc-4fa2-a177-f1050f39e3f6"/></valueReference></extension><status value="completed"/><medicationCodeableConcept><coding><system value="http://terminology.hl7.org/CodeSystem/data-absent-reason"/><code value="not-applicable"/></coding></medicationCodeableConcept><performer><actor><reference value="urn:uuid:7b85edb4-0aaa-4264-9a48-e506179899cb"/></actor></performer><authorizingPrescription><identifier><system value="https://gematik.de/fhir/erp/NamingSystem/GEM_ERP_NS_PrescriptionId"/><value value="200.000.002.096.541.25"/></identifier></authorizingPrescription><type><coding><system value="http://fhir.abda.de/eRezeptAbgabedaten/CodeSystem/DAV-CS-ERP-MedicationDispenseTyp"/><code value="Abgabeinformationen"/></coding></type><whenHandedOver value="2024-02-08"/></MedicationDispense></resource></entry></Bundle>