{
  "resourceType": "Bundle",
  "id": "01f65527-1929-49c5-a05e-c995b9115e08",
  "meta": {
    "profile": [
      "https://gematik.de/fhir/erp/StructureDefinition/GEM_ERP_PR_CloseOperationInputBundle|1.2"
    ],
    "tag": [
      {
        "display": "Beispiel MedicationDispense PKV PZN Bsp 7 (multiple medications)"
      }
    ]
  },
  "type": "collection",
  "entry": [
    {
      "fullUrl": "urn:uuid:f43ae7da-3db3-427c-aa7b-1104a14b05dc",
      "resource": {
        "resourceType": "MedicationDispense",
        "id": "f43ae7da-3db3-427c-aa7b-1104a14b05dc",
        "meta": {
          "profile": [
            "https://gematik.de/fhir/erp/StructureDefinition/GEM_ERP_PR_MedicationDispense|1.2"
          ],
          "tag": [
            {
              "display": "Beispiel MedicationDispense PKV PZN Bsp 7 1/2"
            }
          ]
        },
        "contained": [
          {
            "resourceType": "Medication",
            "id": "c9061528-a4ce-49f6-a83e-89ea67a1a192",
            "meta": {
              "profile": [
                "https://fhir.kbv.de/StructureDefinition/KBV_PR_ERP_Medication_PZN|1.1.0"
              ]
            },
            "extension": [
              {
                "url": "https://fhir.kbv.de/StructureDefinition/KBV_EX_Base_Medication_Type",
                "valueCodeableConcept": {
                  "coding": [
                    {
                      "system": "http://snomed.info/sct",
                      "version": "http://snomed.info/sct/900000000000207008/version/20220331",
                      "code": "763158003",
                      "display": "Medicinal product (product)"
                    }
                  ]
                }
              },
              {
                "url": "https://fhir.kbv.de/StructureDefinition/KBV_EX_ERP_Medication_Category",
                "valueCoding": {
                  "system": "https://fhir.kbv.de/CodeSystem/KBV_CS_ERP_Medication_Category",
                  "code": "00"
                }
              },
              {
                "url": "https://fhir.kbv.de/StructureDefinition/KBV_EX_ERP_Medication_Vaccine",
                "valueBoolean": false
              }
            ],
            "code": {
              "coding": [
                {
                  "system": "http://fhir.de/CodeSystem/ifa/pzn",
                  "code": "11514676"
                }
              ],
              "text": "Amoxicillin/Clavulansäure Heumann 875mg/125mg 10St"
            },
            "form": {
              "coding": [
                {
                  "system": "https://fhir.kbv.de/CodeSystem/KBV_CS_SFHIR_KBV_DARREICHUNGSFORM",
                  "code": "FTA"
                }
              ]
            },
            "amount": {
              "numerator": {
                "extension": [
                  {
                    "url": "https://fhir.kbv.de/StructureDefinition/KBV_EX_ERP_Medication_PackagingSize",
                    "valueString": "10"
                  }
                ],
                "unit": "Stück"
              },
              "denominator": {
                "value": 1
              }
            },
            "batch": {
              "lotNumber": "A123456789-1",
              "expirationDate": "2024-12-31"
            }
          }
        ],
        "identifier": [
          {
            "system": "https://gematik.de/fhir/erp/NamingSystem/GEM_ERP_NS_PrescriptionId",
            "value": "200.339.908.107.779.64"
          }
        ],
        "status": "completed",
        "medicationReference": {
          "reference": "#c9061528-a4ce-49f6-a83e-89ea67a1a192",
          "display": "Amoxicillin/Clavulansäure Heumann 875mg/125mg 10St"
        },
        "subject": {
          "identifier": {
            "system": "http://fhir.de/sid/pkv/kvid-10",
            "value": "P123464117"
          }
        },
        "performer": [
          {
            "actor": {
              "identifier": {
                "system": "https://gematik.de/fhir/sid/telematik-id",
                "value": "3-abc-1234567890"
              }
            }
          }
        ],
        "whenHandedOver": "2023-07-03",
        "dosageInstruction": [
          {
            "text": "1 Tablette noch in der Nacht, dann für 7 Tage jeweils 1 Tablette morgens und 1 Tablette abends einnehmen"
          }
        ]
      }
    },
    {
      "fullUrl": "urn:uuid:00759ea9-0328-4448-bc7a-369f5d35a8d5",
      "resource": {
        "resourceType": "MedicationDispense",
        "id": "00759ea9-0328-4448-bc7a-369f5d35a8d5",
        "meta": {
          "profile": [
            "https://gematik.de/fhir/erp/StructureDefinition/GEM_ERP_PR_MedicationDispense|1.2"
          ],
          "tag": [
            {
              "display": "Beispiel MedicationDispense PKV PZN Bsp 7 2/2"
            }
          ]
        },
        "contained": [
          {
            "resourceType": "Medication",
            "id": "8e1a2a63-cf6d-4fc9-be44-54f64022d222",
            "meta": {
              "profile": [
                "https://fhir.kbv.de/StructureDefinition/KBV_PR_ERP_Medication_PZN|1.1.0"
              ]
            },
            "extension": [
              {
                "url": "https://fhir.kbv.de/StructureDefinition/KBV_EX_Base_Medication_Type",
                "valueCodeableConcept": {
                  "coding": [
                    {
                      "system": "http://snomed.info/sct",
                      "version": "http://snomed.info/sct/900000000000207008/version/20220331",
                      "code": "763158003",
                      "display": "Medicinal product (product)"
                    }
                  ]
                }
              },
              {
                "url": "https://fhir.kbv.de/StructureDefinition/KBV_EX_ERP_Medication_Category",
                "valueCoding": {
                  "system": "https://fhir.kbv.de/CodeSystem/KBV_CS_ERP_Medication_Category",
                  "code": "00"
                }
              },
              {
                "url": "https://fhir.kbv.de/StructureDefinition/KBV_EX_ERP_Medication_Vaccine",
                "valueBoolean": false
              }
            ],
            "code": {
              "coding": [
                {
                  "system": "http://fhir.de/CodeSystem/ifa/pzn",
                  "code": "11514676"
                }
              ],
              "text": "Amoxicillin/Clavulansäure Heumann 875mg/125mg 10St"
            },
            "form": {
              "coding": [
                {
                  "system": "https://fhir.kbv.de/CodeSystem/KBV_CS_SFHIR_KBV_DARREICHUNGSFORM",
                  "code": "FTA"
                }
              ]
            },
            "amount": {
              "numerator": {
                "extension": [
                  {
                    "url": "https://fhir.kbv.de/StructureDefinition/KBV_EX_ERP_Medication_PackagingSize",
                    "valueString": "10"
                  }
                ],
                "unit": "Stück"
              },
              "denominator": {
                "value": 1
              }
            },
            "batch": {
              "lotNumber": "A123456789-2",
              "expirationDate": "2024-12-31"
            }
          }
        ],
        "identifier": [
          {
            "system": "https://gematik.de/fhir/erp/NamingSystem/GEM_ERP_NS_PrescriptionId",
            "value": "200.339.908.107.779.64"
          }
        ],
        "status": "completed",
        "medicationReference": {
          "reference": "#8e1a2a63-cf6d-4fc9-be44-54f64022d222",
          "display": "Amoxicillin/Clavulansäure Heumann 875mg/125mg 10St"
        },
        "subject": {
          "identifier": {
            "system": "http://fhir.de/sid/pkv/kvid-10",
            "value": "P123464117"
          }
        },
        "performer": [
          {
            "actor": {
              "identifier": {
                "system": "https://gematik.de/fhir/sid/telematik-id",
                "value": "3-abc-1234567890"
              }
            }
          }
        ],
        "whenHandedOver": "2023-07-03",
        "dosageInstruction": [
          {
            "text": "1 Tablette noch in der Nacht, dann für 7 Tage jeweils 1 Tablette morgens und 1 Tablette abends einnehmen"
          }
        ]
      }
    }
  ]
}