<Bundle xmlns="http://hl7.org/fhir">
   <id value="a0f2774a-0e00-0000-0003-000000000000"/>
   <meta>
      <profile value="https://gematik.de/fhir/erp/StructureDefinition/GEM_ERP_PR_Bundle|1.4"/>
   </meta>
   <identifier>
      <system value="https://gematik.de/fhir/erp/NamingSystem/GEM_ERP_NS_PrescriptionId"/>
      <value value="160.000.239.761.394.72"/>
   </identifier>
   <type value="document"/>
   <timestamp value="2025-03-28T08:04:27.054+00:00"/>
   <link>
      <relation value="self"/>
      <url value="https://erp-ref.zentral.erp.splitdns.ti-dienste.de/Task/160.000.239.761.394.72/$close/"/>
   </link>
   <entry>
      <fullUrl value="urn:uuid:6dfffd57-7e3f-4eef-a574-1c53ed8dfb8f"/>
      <resource>
         <Composition xmlns="http://hl7.org/fhir">
            <id value="6dfffd57-7e3f-4eef-a574-1c53ed8dfb8f"/>
            <meta>
               <profile value="https://gematik.de/fhir/erp/StructureDefinition/GEM_ERP_PR_Composition|1.4"/>
            </meta>
            <extension url="https://gematik.de/fhir/erp/StructureDefinition/GEM_ERP_EX_Beneficiary">
               <valueIdentifier>
                  <system value="https://gematik.de/fhir/sid/telematik-id"/>
                  <value value="3-SMC-B-Testkarte--883110000163973"/>
               </valueIdentifier>
            </extension>
            <status value="final"/>
            <type>
               <coding>
                  <system value="https://gematik.de/fhir/erp/CodeSystem/GEM_ERP_CS_DocumentType"/>
                  <code value="3"/>
                  <display value="Receipt"/>
               </coding>
            </type>
            <date value="2025-03-28T08:04:27.048+00:00"/>
            <author>
               <reference value="urn:uuid:462629a1-b499-4f69-9268-28afdd246b55"/>
            </author>
            <title value="Quittung"/>
            <event>
               <period>
                  <start value="2025-03-28T08:04:26.545+00:00"/>
                  <end value="2025-03-28T08:04:27.048+00:00"/>
               </period>
            </event>
            <section>
               <entry>
                  <reference value="urn:uuid:358e340c-fb22-4644-b596-c18067861376"/>
               </entry>
            </section>
         </Composition>
      </resource>
   </entry>
   <entry>
      <fullUrl value="urn:uuid:462629a1-b499-4f69-9268-28afdd246b55"/>
      <resource>
         <Device xmlns="http://hl7.org/fhir">
            <id value="1"/>
            <meta>
               <profile value="https://gematik.de/fhir/erp/StructureDefinition/GEM_ERP_PR_Device|1.4"/>
            </meta>
            <status value="active"/>
            <serialNumber value="1.17.0"/>
            <deviceName>
               <name value="E-Rezept Fachdienst"/>
               <type value="user-friendly-name"/>
            </deviceName>
            <version>
               <value value="1.17.0"/>
            </version>
            <contact>
               <system value="email"/>
               <value value="betrieb@gematik.de"/>
            </contact>
         </Device>
      </resource>
   </entry>
   <entry>
      <fullUrl value="urn:uuid:358e340c-fb22-4644-b596-c18067861376"/>
      <resource>
         <Binary xmlns="http://hl7.org/fhir">
            <id value="358e340c-fb22-4644-b596-c18067861376"/>
            <meta>
               <versionId value="1"/>
               <profile value="https://gematik.de/fhir/erp/StructureDefinition/GEM_ERP_PR_Digest|1.4"/>
            </meta>
            <contentType value="application/octet-stream"/>
            <data value="tSS2vx7DTs281dQN6vj70ykoowyZ7yHeD8Mm8HIAdmE="/>
         </Binary>
      </resource>
   </entry>
   <signature>
      <type>
         <system value="urn:iso-astm:E1762-95:2013"/>
         <code value="1.2.840.10065.1.12.1.1"/>
      </type>
      <when value="2025-03-28T08:04:27.056+00:00"/>
      <who>
         <reference value="urn:uuid:462629a1-b499-4f69-9268-28afdd246b55"/>
      </who>
      <sigFormat value="application/pkcs7-mime"/>
      <data value=""/>
   </signature>
</Bundle>