<Bundle xmlns="http://hl7.org/fhir"><id value="91746fb7-8c52-48a3-aa8c-3bbf92bbb2c9"/><meta><lastUpdated value="2023-11-27T08:28:54.480+01:00"/><profile value="https://fhir.kbv.de/StructureDefinition/KBV_PR_ERP_Bundle|1.1.0"/></meta><identifier><system value="https://gematik.de/fhir/erp/NamingSystem/GEM_ERP_NS_PrescriptionId"/><value value="160.000.006.420.720.60"/></identifier><type value="document"/><timestamp value="2023-11-27T08:28:54.480+01:00"/><entry><fullUrl value="https://pvs.gematik.de/fhir/Composition/13cd6a2b-86bf-4954-9502-c30c03545fcd"/><resource><Composition xmlns="http://hl7.org/fhir"><id value="13cd6a2b-86bf-4954-9502-c30c03545fcd"/><meta><profile value="https://fhir.kbv.de/StructureDefinition/KBV_PR_ERP_Composition|1.1.0"/></meta><extension url="https://fhir.kbv.de/StructureDefinition/KBV_EX_FOR_Legal_basis"><valueCoding><system value="https://fhir.kbv.de/CodeSystem/KBV_CS_SFHIR_KBV_STATUSKENNZEICHEN"/><code value="00"/></valueCoding></extension><status value="final"/><type><coding><system value="https://fhir.kbv.de/CodeSystem/KBV_CS_SFHIR_KBV_FORMULAR_ART"/><code value="e16A"/></coding></type><subject><reference value="Patient/da6df41c-2b4b-4ead-ad71-e866ae3a95d3"/></subject><date value="2023-11-27T08:28:54+01:00"/><author><reference value="Practitioner/60865bd4-25a0-4fe1-ac79-5b954711881a"/><type value="Practitioner"/></author><author><type value="Device"/><identifier><system value="https://fhir.kbv.de/NamingSystem/KBV_NS_FOR_Pruefnummer"/><value value="GEMATIK/410/2109/36/123"/></identifier></author><title value="elektronische Arzneimittelverordnung"/><custodian><reference value="Organization/5150d388-4b5e-4314-8768-2e126f430103"/></custodian><section><code><coding><system value="https://fhir.kbv.de/CodeSystem/KBV_CS_ERP_Section_Type"/><code value="Coverage"/></coding></code><entry><reference value="Coverage/61ce510b-dacc-406b-9431-649ecea4db05"/></entry></section><section><code><coding><system value="https://fhir.kbv.de/CodeSystem/KBV_CS_ERP_Section_Type"/><code value="Prescription"/></coding></code><entry><reference value="MedicationRequest/994edae5-8b91-4390-b05d-ebc0d5c3c556"/></entry></section></Composition></resource></entry><entry><fullUrl value="https://pvs.gematik.de/fhir/Medication/633abba3-ba76-4ca3-a2ef-e7b09c95dd12"/><resource><Medication xmlns="http://hl7.org/fhir"><id value="633abba3-ba76-4ca3-a2ef-e7b09c95dd12"/><meta><profile value="https://fhir.kbv.de/StructureDefinition/KBV_PR_ERP_Medication_PZN|1.1.0"/></meta><extension url="https://fhir.kbv.de/StructureDefinition/KBV_EX_Base_Medication_Type"><valueCodeableConcept><coding><system value="http://snomed.info/sct"/><version value="http://snomed.info/sct/900000000000207008/version/20220331"/><code value="763158003"/><display value="Medicinal product (product)"/></coding></valueCodeableConcept></extension><extension url="https://fhir.kbv.de/StructureDefinition/KBV_EX_ERP_Medication_Category"><valueCoding><system value="https://fhir.kbv.de/CodeSystem/KBV_CS_ERP_Medication_Category"/><code value="00"/></valueCoding></extension><extension url="https://fhir.kbv.de/StructureDefinition/KBV_EX_ERP_Medication_Vaccine"><valueBoolean value="false"/></extension><extension url="http://fhir.de/StructureDefinition/normgroesse"><valueCode value="NB"/></extension><code><coding><system value="http://fhir.de/CodeSystem/ifa/pzn"/><code value="12345678"/></coding><text value="Schmerzmittel"/></code><form><coding><system value="https://fhir.kbv.de/CodeSystem/KBV_CS_SFHIR_KBV_DARREICHUNGSFORM"/><code value="TAB"/></coding></form><amount><numerator><extension url="https://fhir.kbv.de/StructureDefinition/KBV_EX_ERP_Medication_PackagingSize"><valueString value="1"/></extension><unit value="Stk"/></numerator><denominator><value value="1"/></denominator></amount></Medication></resource></entry><entry><fullUrl value="https://pvs.gematik.de/fhir/Patient/da6df41c-2b4b-4ead-ad71-e866ae3a95d3"/><resource><Patient xmlns="http://hl7.org/fhir"><id value="da6df41c-2b4b-4ead-ad71-e866ae3a95d3"/><meta><profile value="https://fhir.kbv.de/StructureDefinition/KBV_PR_FOR_Patient|1.1.0"/></meta><identifier><type><coding><system value="http://fhir.de/CodeSystem/identifier-type-de-basis"/><code value="GKV"/></coding></type><system value="http://fhir.de/sid/gkv/kvid-10"/><value value="X110498565"/></identifier><name><use value="official"/><family value="Hüllmann"><extension url="http://hl7.org/fhir/StructureDefinition/humanname-own-name"><valueString value="Hüllmann"/></extension></family><given value="Sina"/></name><birthDate value="1997-04-25"/><address><type value="both"/><line value="Heinrich-Heine-Str. 16"><extension url="http://hl7.org/fhir/StructureDefinition/iso21090-ADXP-houseNumber"><valueString value="16"/></extension><extension url="http://hl7.org/fhir/StructureDefinition/iso21090-ADXP-streetName"><valueString value="Heinrich-Heine-Str."/></extension></line><city value="Schusterstadt"/><postalCode value="92984"/><country value="D"/></address></Patient></resource></entry><entry><fullUrl value="https://pvs.gematik.de/fhir/Organization/5150d388-4b5e-4314-8768-2e126f430103"/><resource><Organization xmlns="http://hl7.org/fhir"><id value="5150d388-4b5e-4314-8768-2e126f430103"/><meta><profile value="https://fhir.kbv.de/StructureDefinition/KBV_PR_FOR_Organization|1.1.0"/></meta><identifier><type><coding><system value="http://terminology.hl7.org/CodeSystem/v2-0203"/><code value="BSNR"/></coding></type><system value="https://fhir.kbv.de/NamingSystem/KBV_NS_Base_BSNR"/><value value="522299941"/></identifier><name value="Arztpraxis Schraßer"/><telecom><system value="phone"/><value value="+49-1065-70182897"/></telecom><telecom><system value="email"/><value value="liah.jürgens@falter.name"/></telecom><address><type value="both"/><line value="Am Falkenberg 966"><extension url="http://hl7.org/fhir/StructureDefinition/iso21090-ADXP-houseNumber"><valueString value="966"/></extension><extension url="http://hl7.org/fhir/StructureDefinition/iso21090-ADXP-streetName"><valueString value="Am Falkenberg"/></extension></line><city value="Teufelbrunn"/><postalCode value="46608"/><country value="D"/></address></Organization></resource></entry><entry><fullUrl value="https://pvs.gematik.de/fhir/Coverage/61ce510b-dacc-406b-9431-649ecea4db05"/><resource><Coverage xmlns="http://hl7.org/fhir"><id value="61ce510b-dacc-406b-9431-649ecea4db05"/><meta><profile value="https://fhir.kbv.de/StructureDefinition/KBV_PR_FOR_Coverage|1.1.0"/></meta><extension url="http://fhir.de/StructureDefinition/gkv/besondere-personengruppe"><valueCoding><system value="https://fhir.kbv.de/CodeSystem/KBV_CS_SFHIR_KBV_PERSONENGRUPPE"/><code value="00"/></valueCoding></extension><extension url="http://fhir.de/StructureDefinition/gkv/dmp-kennzeichen"><valueCoding><system value="https://fhir.kbv.de/CodeSystem/KBV_CS_SFHIR_KBV_DMP"/><code value="00"/></valueCoding></extension><extension url="http://fhir.de/StructureDefinition/gkv/wop"><valueCoding><system value="https://fhir.kbv.de/CodeSystem/KBV_CS_SFHIR_ITA_WOP"/><code value="46"/></valueCoding></extension><extension url="http://fhir.de/StructureDefinition/gkv/versichertenart"><valueCoding><system value="https://fhir.kbv.de/CodeSystem/KBV_CS_SFHIR_KBV_VERSICHERTENSTATUS"/><code value="1"/></valueCoding></extension><status value="active"/><type><coding><system value="http://fhir.de/CodeSystem/versicherungsart-de-basis"/><code value="GKV"/></coding></type><beneficiary><reference value="Patient/a407284a-c34f-42f5-ba4a-aec8d66912ee"/></beneficiary><payor><identifier><system value="http://fhir.de/sid/arge-ik/iknr"/><value value="105330157"/></identifier><display value="BKK Braun‐Gillette"/></payor></Coverage></resource></entry><entry><fullUrl value="https://pvs.gematik.de/fhir/Practitioner/60865bd4-25a0-4fe1-ac79-5b954711881a"/><resource><Practitioner xmlns="http://hl7.org/fhir"><id value="60865bd4-25a0-4fe1-ac79-5b954711881a"/><meta><profile value="https://fhir.kbv.de/StructureDefinition/KBV_PR_FOR_Practitioner|1.1.0"/></meta><identifier><type><coding><system value="http://terminology.hl7.org/CodeSystem/v2-0203"/><code value="LANR"/></coding></type><system value="https://fhir.kbv.de/NamingSystem/KBV_NS_Base_ANR"/><value value="605944349"/></identifier><name><use value="official"/><family value="Schraßer"><extension url="http://hl7.org/fhir/StructureDefinition/humanname-own-name"><valueString value="Schraßer"/></extension></family><given value="Dr."/><prefix value="Dr."><extension url="http://hl7.org/fhir/StructureDefinition/iso21090-EN-qualifier"><valueCode value="AC"/></extension></prefix></name><qualification><code><coding><system value="https://fhir.kbv.de/CodeSystem/KBV_CS_FOR_Qualification_Type"/><code value="00"/></coding></code></qualification><qualification><code><coding><system value="https://fhir.kbv.de/CodeSystem/KBV_CS_FOR_Berufsbezeichnung"/><code value="Berufsbezeichnung"/></coding><text value="Super-Facharzt für alles Mögliche"/></code></qualification></Practitioner></resource></entry><entry><fullUrl value="https://pvs.gematik.de/fhir/MedicationRequest/994edae5-8b91-4390-b05d-ebc0d5c3c556"/><resource><MedicationRequest xmlns="http://hl7.org/fhir"><id value="994edae5-8b91-4390-b05d-ebc0d5c3c556"/><meta><profile value="https://fhir.kbv.de/StructureDefinition/KBV_PR_ERP_Prescription|1.1.0"/></meta><extension url="https://fhir.kbv.de/StructureDefinition/KBV_EX_ERP_BVG"><valueBoolean value="false"/></extension><extension url="https://fhir.kbv.de/StructureDefinition/KBV_EX_ERP_EmergencyServicesFee"><valueBoolean value="false"/></extension><extension url="https://fhir.kbv.de/StructureDefinition/KBV_EX_ERP_Multiple_Prescription"><extension url="Kennzeichen"><valueBoolean value="false"/></extension></extension><extension url="https://fhir.kbv.de/StructureDefinition/KBV_EX_FOR_StatusCoPayment"><valueCoding><system value="https://fhir.kbv.de/CodeSystem/KBV_CS_FOR_StatusCoPayment"/><code value="2"/></valueCoding></extension><status value="active"/><intent value="order"/><medicationReference><reference value="Medication/633abba3-ba76-4ca3-a2ef-e7b09c95dd12"/></medicationReference><subject><reference value="Patient/da6df41c-2b4b-4ead-ad71-e866ae3a95d3"/></subject><authoredOn value="2023-11-27"/><requester><reference value="Practitioner/60865bd4-25a0-4fe1-ac79-5b954711881a"/></requester><insurance><reference value="Coverage/61ce510b-dacc-406b-9431-649ecea4db05"/></insurance><dosageInstruction><extension url="https://fhir.kbv.de/StructureDefinition/KBV_EX_ERP_DosageFlag"><valueBoolean value="true"/></extension><text value="0-0-2-1-3-3"/></dosageInstruction><dispenseRequest><quantity><value value="1"/><system value="http://unitsofmeasure.org"/><code value="{Package}"/></quantity></dispenseRequest><substitution><allowedBoolean value="false"/></substitution></MedicationRequest></resource></entry></Bundle>