<Bundle xmlns="http://hl7.org/fhir"><id value="6a1ea900-440b-4d2e-b78d-98d865f11ec3"/><meta><lastUpdated value="2025-03-28T09:09:37.632+01:00"/><profile value="http://fhir.abda.de/eRezeptAbgabedaten/StructureDefinition/DAV-PKV-PR-ERP-AbgabedatenBundle|1.3"/></meta><identifier><system value="https://gematik.de/fhir/erp/NamingSystem/GEM_ERP_NS_PrescriptionId"/><value value="209.000.000.120.123.65"/></identifier><type value="document"/><timestamp value="2025-03-28T09:09:37.632+01:00"/><entry><fullUrl value="urn:uuid:c6123f43-0b68-4f5b-92ae-f0a3632250a9"/><resource><Composition xmlns="http://hl7.org/fhir"><id value="c6123f43-0b68-4f5b-92ae-f0a3632250a9"/><meta><profile value="http://fhir.abda.de/eRezeptAbgabedaten/StructureDefinition/DAV-PKV-PR-ERP-AbgabedatenComposition|1.3"/></meta><status value="final"/><type><coding><system value="http://fhir.abda.de/eRezeptAbgabedaten/CodeSystem/DAV-CS-ERP-CompositionTypes"/><code value="ERezeptAbgabedaten"/></coding></type><date value="2025-03-28T09:09:37+01:00"/><author><reference value="urn:uuid:08bac075-791c-43b8-9b0d-25f70f76d280"/></author><title value="ERezeptAbgabedaten"/><section><title value="Apotheke"/><entry><reference value="urn:uuid:08bac075-791c-43b8-9b0d-25f70f76d280"/></entry></section><section><title value="Abgabeinformationen"/><entry><reference value="urn:uuid:eb1ad7d5-fde4-4c8e-9251-99ccfbbe2c1a"/></entry></section></Composition></resource></entry><entry><fullUrl value="urn:uuid:08bac075-791c-43b8-9b0d-25f70f76d280"/><resource><Organization xmlns="http://hl7.org/fhir"><id value="08bac075-791c-43b8-9b0d-25f70f76d280"/><meta><profile value="http://fhir.abda.de/eRezeptAbgabedaten/StructureDefinition/DAV-PKV-PR-ERP-Apotheke|1.3"/></meta><identifier><system value="http://fhir.de/sid/arge-ik/iknr"/><value value="571424696"/></identifier><name value="Apotheke Mary Ann Bright"/><address><type value="physical"/><line value="Schulstr. 85c"><extension url="http://hl7.org/fhir/StructureDefinition/iso21090-ADXP-houseNumber"><valueString value="85c"/></extension><extension url="http://hl7.org/fhir/StructureDefinition/iso21090-ADXP-streetName"><valueString value="Schulstr."/></extension></line><city value="West Pascal"/><postalCode value="42012"/><country value="JOR"/></address></Organization></resource></entry><entry><fullUrl value="urn:uuid:3acf06a0-5bf0-4600-815a-483ad472aacc"/><resource><Invoice xmlns="http://hl7.org/fhir"><id value="3acf06a0-5bf0-4600-815a-483ad472aacc"/><meta><profile value="http://fhir.abda.de/eRezeptAbgabedaten/StructureDefinition/DAV-PKV-PR-ERP-Abrechnungszeilen|1.3"/></meta><status value="issued"/><type><coding><system value="http://fhir.abda.de/eRezeptAbgabedaten/CodeSystem/DAV-CS-ERP-InvoiceTyp"/><code value="Abrechnungszeilen"/></coding></type><lineItem><sequence value="1"/><chargeItemCodeableConcept><coding><system value="http://fhir.de/CodeSystem/ifa/pzn"/><code value="79161025"/></coding><text value="Ketozolin® 2% Öl"/></chargeItemCodeableConcept><priceComponent><extension url="http://fhir.abda.de/eRezeptAbgabedaten/StructureDefinition/DAV-EX-ERP-KostenVersicherter"><extension url="Kategorie"><valueCodeableConcept><coding><system value="http://fhir.abda.de/eRezeptAbgabedaten/CodeSystem/DAV-PKV-CS-ERP-KostenVersicherterKategorie"/><code value="0"/></coding></valueCodeableConcept></extension><extension url="Kostenbetrag"><valueMoney><value value="4.93"/><currency value="EUR"/></valueMoney></extension></extension><extension url="http://fhir.abda.de/eRezeptAbgabedaten/StructureDefinition/DAV-EX-ERP-MwStSatz"><valueDecimal value="14.50"/></extension><type value="informational"/><factor value="1"/><amount><value value="13.30"/><currency value="EUR"/></amount></priceComponent></lineItem><lineItem><sequence value="2"/><chargeItemCodeableConcept><coding><system value="http://fhir.de/CodeSystem/ifa/pzn"/><code value="69685632"/></coding><text value="Kytta® 150 mg"/></chargeItemCodeableConcept><priceComponent><extension url="http://fhir.abda.de/eRezeptAbgabedaten/StructureDefinition/DAV-EX-ERP-KostenVersicherter"><extension url="Kategorie"><valueCodeableConcept><coding><system value="http://fhir.abda.de/eRezeptAbgabedaten/CodeSystem/DAV-PKV-CS-ERP-KostenVersicherterKategorie"/><code value="0"/></coding></valueCodeableConcept></extension><extension url="Kostenbetrag"><valueMoney><value value="4.12"/><currency value="EUR"/></valueMoney></extension></extension><extension url="http://fhir.abda.de/eRezeptAbgabedaten/StructureDefinition/DAV-EX-ERP-MwStSatz"><valueDecimal value="14.50"/></extension><type value="informational"/><factor value="1"/><amount><value value="4.14"/><currency value="EUR"/></amount></priceComponent></lineItem><totalGross><extension url="http://fhir.abda.de/eRezeptAbgabedaten/StructureDefinition/DAV-EX-ERP-Gesamtzuzahlung"><valueMoney><value value="9.05"/><currency value="EUR"/></valueMoney></extension><value value="17.44"/><currency value="EUR"/></totalGross></Invoice></resource></entry><entry><fullUrl value="urn:uuid:eb1ad7d5-fde4-4c8e-9251-99ccfbbe2c1a"/><resource><MedicationDispense xmlns="http://hl7.org/fhir"><id value="eb1ad7d5-fde4-4c8e-9251-99ccfbbe2c1a"/><meta><profile value="http://fhir.abda.de/eRezeptAbgabedaten/StructureDefinition/DAV-PKV-PR-ERP-Abgabeinformationen|1.3"/></meta><extension url="http://fhir.abda.de/eRezeptAbgabedaten/StructureDefinition/DAV-PKV-EX-ERP-AbrechnungsTyp"><valueCodeableConcept><coding><system value="http://fhir.abda.de/eRezeptAbgabedaten/CodeSystem/DAV-PKV-CS-ERP-AbrechnungsTyp"/><code value="1"/></coding></valueCodeableConcept></extension><extension url="http://fhir.abda.de/eRezeptAbgabedaten/StructureDefinition/DAV-EX-ERP-Abrechnungszeilen"><valueReference><reference value="urn:uuid:3acf06a0-5bf0-4600-815a-483ad472aacc"/></valueReference></extension><status value="completed"/><medicationCodeableConcept><coding><system value="http://terminology.hl7.org/CodeSystem/data-absent-reason"/><code value="not-applicable"/></coding></medicationCodeableConcept><performer><actor><reference value="urn:uuid:08bac075-791c-43b8-9b0d-25f70f76d280"/></actor></performer><authorizingPrescription><identifier><system value="https://gematik.de/fhir/erp/NamingSystem/GEM_ERP_NS_PrescriptionId"/><value value="209.000.000.120.123.65"/></identifier></authorizingPrescription><type><coding><system value="http://fhir.abda.de/eRezeptAbgabedaten/CodeSystem/DAV-CS-ERP-MedicationDispenseTyp"/><code value="Abgabeinformationen"/></coding></type><whenHandedOver value="2025-03-28"/></MedicationDispense></resource></entry></Bundle>