<Bundle xmlns="http://hl7.org/fhir">
   <id value="a017784a-0e00-0000-0003-000000000000"/>
   <meta>
      <profile value="https://gematik.de/fhir/erp/StructureDefinition/GEM_ERP_PR_Bundle|1.4"/>
   </meta>
   <identifier>
      <system value="https://gematik.de/fhir/erp/NamingSystem/GEM_ERP_NS_PrescriptionId"/>
      <value value="160.000.239.761.431.58"/>
   </identifier>
   <type value="document"/>
   <timestamp value="2025-03-28T08:06:33.485+00:00"/>
   <link>
      <relation value="self"/>
      <url value="https://erp-ref.zentral.erp.splitdns.ti-dienste.de/Task/160.000.239.761.431.58/$close/"/>
   </link>
   <entry>
      <fullUrl value="urn:uuid:2c11ea28-50e1-425f-8531-b5c907a8a8de"/>
      <resource>
         <Composition xmlns="http://hl7.org/fhir">
            <id value="2c11ea28-50e1-425f-8531-b5c907a8a8de"/>
            <meta>
               <profile value="https://gematik.de/fhir/erp/StructureDefinition/GEM_ERP_PR_Composition|1.4"/>
            </meta>
            <extension url="https://gematik.de/fhir/erp/StructureDefinition/GEM_ERP_EX_Beneficiary">
               <valueIdentifier>
                  <system value="https://gematik.de/fhir/sid/telematik-id"/>
                  <value value="3-SMC-B-Testkarte--883110000163973"/>
               </valueIdentifier>
            </extension>
            <status value="final"/>
            <type>
               <coding>
                  <system value="https://gematik.de/fhir/erp/CodeSystem/GEM_ERP_CS_DocumentType"/>
                  <code value="3"/>
                  <display value="Receipt"/>
               </coding>
            </type>
            <date value="2025-03-28T08:06:33.479+00:00"/>
            <author>
               <reference value="urn:uuid:c902a262-e0d3-45c7-9db3-aceb83056e13"/>
            </author>
            <title value="Quittung"/>
            <event>
               <period>
                  <start value="2025-03-28T08:06:31.710+00:00"/>
                  <end value="2025-03-28T08:06:33.479+00:00"/>
               </period>
            </event>
            <section>
               <entry>
                  <reference value="urn:uuid:3fe8e589-2b1e-4d1f-b773-1187c13add0d"/>
               </entry>
            </section>
         </Composition>
      </resource>
   </entry>
   <entry>
      <fullUrl value="urn:uuid:c902a262-e0d3-45c7-9db3-aceb83056e13"/>
      <resource>
         <Device xmlns="http://hl7.org/fhir">
            <id value="1"/>
            <meta>
               <profile value="https://gematik.de/fhir/erp/StructureDefinition/GEM_ERP_PR_Device|1.4"/>
            </meta>
            <status value="active"/>
            <serialNumber value="1.17.0"/>
            <deviceName>
               <name value="E-Rezept Fachdienst"/>
               <type value="user-friendly-name"/>
            </deviceName>
            <version>
               <value value="1.17.0"/>
            </version>
            <contact>
               <system value="email"/>
               <value value="betrieb@gematik.de"/>
            </contact>
         </Device>
      </resource>
   </entry>
   <entry>
      <fullUrl value="urn:uuid:3fe8e589-2b1e-4d1f-b773-1187c13add0d"/>
      <resource>
         <Binary xmlns="http://hl7.org/fhir">
            <id value="3fe8e589-2b1e-4d1f-b773-1187c13add0d"/>
            <meta>
               <versionId value="1"/>
               <profile value="https://gematik.de/fhir/erp/StructureDefinition/GEM_ERP_PR_Digest|1.4"/>
            </meta>
            <contentType value="application/octet-stream"/>
            <data value="yddyTr9YM9xaJI8CGsPm70OJ0rL5jw4NEgM6IoouSis="/>
         </Binary>
      </resource>
   </entry>
   <signature>
      <type>
         <system value="urn:iso-astm:E1762-95:2013"/>
         <code value="1.2.840.10065.1.12.1.1"/>
      </type>
      <when value="2025-03-28T08:06:33.486+00:00"/>
      <who>
         <reference value="urn:uuid:c902a262-e0d3-45c7-9db3-aceb83056e13"/>
      </who>
      <sigFormat value="application/pkcs7-mime"/>
      <data value=""/>
   </signature>
</Bundle>