<Bundle xmlns="http://hl7.org/fhir">
    <id value="erp-versicherte-04-response-getDispenseMultiple2"/>
    <type value="searchset"/>
    <entry>
        <fullUrl value="https://erp-dev.zentral.erp.splitdns.ti-dienste.de/MedicationDispense/160.000.000.000.000.01"/>
        <resource>
            <MedicationDispense>
                <id value="160.000.000.000.000.01"/>
                <meta>
                    <profile value="https://gematik.de/fhir/erp/StructureDefinition/GEM_ERP_PR_MedicationDispense|1.4"/>
                </meta>
                <identifier>
                    <system value="https://gematik.de/fhir/erp/NamingSystem/GEM_ERP_NS_PrescriptionId"/>
                    <value value="160.000.000.000.000.01"/>
                </identifier>
                <status value="completed"/>
                <medicationReference>
                    <reference value="urn:uuid:86ce7563-9819-4dfa-9944-d307f7cfec9b"/>
                </medicationReference>
                <subject>
                    <identifier>
                        <system value="http://fhir.de/sid/gkv/kvid-10"/>
                        <value value="X123456789"/>
                    </identifier>
                </subject>
                <performer>
                    <actor>
                        <identifier>
                            <system value="https://gematik.de/fhir/sid/telematik-id"/>
                            <value value="3-2-APO-XanthippeVeilchenblau01"/>
                        </identifier>
                    </actor>
                </performer>
                <whenHandedOver value="2025-01-15"/>
            </MedicationDispense>
        </resource>
        <search>
            <mode value="match"/>
        </search>
    </entry>
    <entry>
        <fullUrl value="urn:uuid:86ce7563-9819-4dfa-9944-d307f7cfec9b"/>
        <resource>
            <Medication>
                <id value="86ce7563-9819-4dfa-9944-d307f7cfec9b"/>
                <meta>
                    <profile value="https://gematik.de/fhir/erp/StructureDefinition/GEM_ERP_PR_Medication|1.4"/>
                </meta>
                <code>
                    <coding>
                        <system value="http://fhir.de/CodeSystem/ifa/pzn"/>
                        <code value="06313728"/>
                    </coding>
                </code>
                <batch>
                    <lotNumber value="123456"/>
                </batch>
            </Medication>
        </resource>
        <search>
            <mode value="include"/>
        </search>
    </entry>
    <entry>
        <fullUrl value="https://erp-dev.zentral.erp.splitdns.ti-dienste.de/MedicationDispense/160.000.000.000.000.02"/>
        <resource>
            <MedicationDispense>
                <id value="160.000.000.000.000.02"/>
                <meta>
                    <profile value="https://gematik.de/fhir/erp/StructureDefinition/GEM_ERP_PR_MedicationDispense|1.4"/>
                </meta>
                <identifier>
                    <system value="https://gematik.de/fhir/erp/NamingSystem/GEM_ERP_NS_PrescriptionId"/>
                    <value value="160.000.000.000.000.02"/>
                </identifier>
                <status value="completed"/>
                <medicationReference>
                    <reference value="urn:uuid:56c61db7-0a94-4b7b-832a-b8ac3752035d"/>
                </medicationReference>
                <subject>
                    <identifier>
                        <system value="http://fhir.de/sid/gkv/kvid-10"/>
                        <value value="X123456789"/>
                    </identifier>
                </subject>
                <performer>
                    <actor>
                        <identifier>
                            <system value="https://gematik.de/fhir/sid/telematik-id"/>
                            <value value="3-2-APO-XanthippeVeilchenblau01"/>
                        </identifier>
                    </actor>
                </performer>
                <whenHandedOver value="2025-01-15"/>
            </MedicationDispense>
        </resource>
        <search>
            <mode value="match"/>
        </search>
    </entry>
    <entry>
        <fullUrl value="urn:uuid:56c61db7-0a94-4b7b-832a-b8ac3752035d"/>
        <resource>
            <Medication>
                <id value="56c61db7-0a94-4b7b-832a-b8ac3752035d"/>
                <meta>
                    <profile value="https://gematik.de/fhir/erp/StructureDefinition/GEM_ERP_PR_Medication|1.4"/>
                </meta>
                <code>
                    <coding>
                        <system value="http://fhir.de/CodeSystem/ifa/pzn"/>
                        <code value="06313728"/>
                    </coding>
                </code>
                <batch>
                    <lotNumber value="123456"/>
                </batch>
            </Medication>
        </resource>
        <search>
            <mode value="include"/>
        </search>
    </entry>
    <entry>
        <fullUrl value="https://erp-dev.zentral.erp.splitdns.ti-dienste.de/MedicationDispense/160.000.000.000.000.04"/>
        <resource>
            <MedicationDispense>
                <id value="160.000.000.000.000.04"/>
                <meta>
                    <profile value="https://gematik.de/fhir/erp/StructureDefinition/GEM_ERP_PR_MedicationDispense|1.2"/>
                </meta>
                <contained>
                    <Medication>
                        <id value="65b6d139-93a6-459f-8b3c-5ae1d1f809a2"/>
                        <meta>
                            <profile value="https://fhir.kbv.de/StructureDefinition/KBV_PR_ERP_Medication_PZN|1.1.0"/>
                        </meta>
                        <extension url="https://fhir.kbv.de/StructureDefinition/KBV_EX_ERP_Medication_Category">
                            <valueCoding>
                                <system value="https://fhir.kbv.de/CodeSystem/KBV_CS_ERP_Medication_Category"/>
                                <code value="00"/>
                            </valueCoding>
                        </extension>
                        <extension url="https://fhir.kbv.de/StructureDefinition/KBV_EX_Base_Medication_Type">
                            <valueCodeableConcept>
                                <coding>
                                    <system value="http://snomed.info/sct"/>
                                    <version value="http://snomed.info/sct/900000000000207008/version/20220331"/>
                                    <code value="763158003"/>
                                    <display value="Medicinal product (product)"/>
                                </coding>
                            </valueCodeableConcept>
                        </extension>
                        <extension url="https://fhir.kbv.de/StructureDefinition/KBV_EX_ERP_Medication_Vaccine">
                            <valueBoolean value="false"/>
                        </extension>
                        <extension url="http://fhir.de/StructureDefinition/normgroesse">
                            <valueCode value="N3"/>
                        </extension>
                        <code>
                            <coding>
                                <system value="http://fhir.de/CodeSystem/ifa/pzn"/>
                                <code value="04866280"/>
                            </coding>
                            <text value="Sumatriptan Dura 100mg"/>
                        </code>
                        <form>
                            <coding>
                                <system value="https://fhir.kbv.de/CodeSystem/KBV_CS_SFHIR_KBV_DARREICHUNGSFORM"/>
                                <code value="FTA"/>
                            </coding>
                        </form>
                        <amount>
                            <numerator>
                                <extension url="https://fhir.kbv.de/StructureDefinition/KBV_EX_ERP_Medication_PackagingSize">
                                    <valueString value="12"/>
                                </extension>
                                <unit value="St"/>
                            </numerator>
                            <denominator>
                                <value value="1"/>
                            </denominator>
                        </amount>
                        <batch>
                            <lotNumber value="123456"/>
                        </batch>
                    </Medication>
                </contained>
                <identifier>
                    <system value="https://gematik.de/fhir/erp/NamingSystem/GEM_ERP_NS_PrescriptionId"/>
                    <value value="160.000.000.000.000.04"/>
                </identifier>
                <status value="completed"/>
                <medicationReference>
                    <reference value="#65b6d139-93a6-459f-8b3c-5ae1d1f809a2"/>
                </medicationReference>
                <subject>
                    <identifier>
                        <value value="X123456789"/>
                    </identifier>
                </subject>
                <performer>
                    <actor>
                        <identifier>
                            <system value="https://gematik.de/fhir/sid/telematik-id"/>
                            <value value="3-2-APO-XanthippeVeilchenblau01"/>
                        </identifier>
                    </actor>
                </performer>
                <whenHandedOver value="2024-07-02"/>
                <dosageInstruction>
                    <text value="1-0-1-0"/>
                </dosageInstruction>
            </MedicationDispense>
        </resource>
        <search>
            <mode value="match"/>
        </search>
    </entry>
    <entry>
        <fullUrl value="https://erp-dev.zentral.erp.splitdns.ti-dienste.de/MedicationDispense/160.000.000.000.000.05"/>
        <resource>
            <MedicationDispense>
                <id value="160.000.000.000.000.05"/>
                <meta>
                    <profile value="https://gematik.de/fhir/erp/StructureDefinition/GEM_ERP_PR_MedicationDispense|1.3"/>
                </meta>
                <contained>
                    <Medication>
                        <id value="7ebb8f0c-06a7-4b71-b6b2-81000eabbf8d"/>
                        <meta>
                            <profile value="https://fhir.kbv.de/StructureDefinition/KBV_PR_ERP_Medication_PZN|1.1.0"/>
                        </meta>
                        <extension url="https://fhir.kbv.de/StructureDefinition/KBV_EX_ERP_Medication_Category">
                            <valueCoding>
                                <system value="https://fhir.kbv.de/CodeSystem/KBV_CS_ERP_Medication_Category"/>
                                <code value="00"/>
                            </valueCoding>
                        </extension>
                        <extension url="https://fhir.kbv.de/StructureDefinition/KBV_EX_Base_Medication_Type">
                            <valueCodeableConcept>
                                <coding>
                                    <system value="http://snomed.info/sct"/>
                                    <version value="http://snomed.info/sct/900000000000207008/version/20220331"/>
                                    <code value="763158003"/>
                                    <display value="Medicinal product (product)"/>
                                </coding>
                            </valueCodeableConcept>
                        </extension>
                        <extension url="https://fhir.kbv.de/StructureDefinition/KBV_EX_ERP_Medication_Vaccine">
                            <valueBoolean value="false"/>
                        </extension>
                        <extension url="http://fhir.de/StructureDefinition/normgroesse">
                            <valueCode value="N3"/>
                        </extension>
                        <code>
                            <coding>
                                <system value="http://fhir.de/CodeSystem/ifa/pzn"/>
                                <code value="04866280"/>
                            </coding>
                            <text value="Sumatriptan Dura 100mg"/>
                        </code>
                        <form>
                            <coding>
                                <system value="https://fhir.kbv.de/CodeSystem/KBV_CS_SFHIR_KBV_DARREICHUNGSFORM"/>
                                <code value="FTA"/>
                            </coding>
                        </form>
                        <amount>
                            <numerator>
                                <extension url="https://fhir.kbv.de/StructureDefinition/KBV_EX_ERP_Medication_PackagingSize">
                                    <valueString value="12"/>
                                </extension>
                                <unit value="St"/>
                            </numerator>
                            <denominator>
                                <value value="1"/>
                            </denominator>
                        </amount>
                        <batch>
                            <lotNumber value="123456"/>
                        </batch>
                    </Medication>
                </contained>
                <identifier>
                    <system value="https://gematik.de/fhir/erp/NamingSystem/GEM_ERP_NS_PrescriptionId"/>
                    <value value="160.000.000.000.000.05"/>
                </identifier>
                <status value="completed"/>
                <medicationReference>
                    <reference value="#7ebb8f0c-06a7-4b71-b6b2-81000eabbf8d"/>
                </medicationReference>
                <subject>
                    <identifier>
                        <value value="X123456789"/>
                    </identifier>
                </subject>
                <performer>
                    <actor>
                        <identifier>
                            <system value="https://gematik.de/fhir/sid/telematik-id"/>
                            <value value="3-2-APO-XanthippeVeilchenblau01"/>
                        </identifier>
                    </actor>
                </performer>
                <whenHandedOver value="2024-07-02"/>
                <dosageInstruction>
                    <text value="1-0-1-0"/>
                </dosageInstruction>
            </MedicationDispense>
        </resource>
        <search>
            <mode value="match"/>
        </search>
    </entry>
</Bundle>