<Bundle xmlns="http://hl7.org/fhir">
    <id value="erp-versicherte-04-response-getDispenseMultiple1"/>
    <type value="searchset"/>
    <entry>
        <fullUrl value="https://erp-dev.zentral.erp.splitdns.ti-dienste.de/MedicationDispense/160.000.000.000.000.01"/>
        <resource>
            <MedicationDispense>
                <id value="160.000.000.000.000.01"/>
                <meta>
                    <profile value="https://gematik.de/fhir/erp/StructureDefinition/GEM_ERP_PR_MedicationDispense|1.4"/>
                </meta>
                <identifier>
                    <system value="https://gematik.de/fhir/erp/NamingSystem/GEM_ERP_NS_PrescriptionId"/>
                    <value value="160.000.000.000.000.01"/>
                </identifier>
                <status value="completed"/>
                <medicationReference>
                    <reference value="urn:uuid:86ce7563-9819-4dfa-9944-d307f7cfec9b"/>
                </medicationReference>
                <subject>
                    <identifier>
                        <system value="http://fhir.de/sid/gkv/kvid-10"/>
                        <value value="X123456789"/>
                    </identifier>
                </subject>
                <performer>
                    <actor>
                        <identifier>
                            <system value="https://gematik.de/fhir/sid/telematik-id"/>
                            <value value="3-2-APO-XanthippeVeilchenblau01"/>
                        </identifier>
                    </actor>
                </performer>
                <whenHandedOver value="2025-01-15"/>
            </MedicationDispense>
        </resource>
        <search>
            <mode value="match"/>
        </search>
    </entry>
    <entry>
        <fullUrl value="urn:uuid:86ce7563-9819-4dfa-9944-d307f7cfec9b"/>
        <resource>
            <Medication>
                <id value="86ce7563-9819-4dfa-9944-d307f7cfec9b"/>
                <meta>
                    <profile value="https://gematik.de/fhir/erp/StructureDefinition/GEM_ERP_PR_Medication|1.4"/>
                </meta>
                <code>
                    <coding>
                        <system value="http://fhir.de/CodeSystem/ifa/pzn"/>
                        <code value="06313728"/>
                    </coding>
                </code>
                <batch>
                    <lotNumber value="123456"/>
                </batch>
            </Medication>
        </resource>
        <search>
            <mode value="include"/>
        </search>
    </entry>
    <entry>
        <fullUrl value="https://erp-dev.zentral.erp.splitdns.ti-dienste.de/MedicationDispense/160.000.000.000.000.02"/>
        <resource>
            <MedicationDispense>
                <id value="160.000.000.000.000.02"/>
                <meta>
                    <profile value="https://gematik.de/fhir/erp/StructureDefinition/GEM_ERP_PR_MedicationDispense|1.4"/>
                </meta>
                <identifier>
                    <system value="https://gematik.de/fhir/erp/NamingSystem/GEM_ERP_NS_PrescriptionId"/>
                    <value value="160.000.000.000.000.02"/>
                </identifier>
                <status value="completed"/>
                <medicationReference>
                    <reference value="urn:uuid:56c61db7-0a94-4b7b-832a-b8ac3752035d"/>
                </medicationReference>
                <subject>
                    <identifier>
                        <system value="http://fhir.de/sid/gkv/kvid-10"/>
                        <value value="X123456789"/>
                    </identifier>
                </subject>
                <performer>
                    <actor>
                        <identifier>
                            <system value="https://gematik.de/fhir/sid/telematik-id"/>
                            <value value="3-2-APO-XanthippeVeilchenblau01"/>
                        </identifier>
                    </actor>
                </performer>
                <whenHandedOver value="2025-01-15"/>
            </MedicationDispense>
        </resource>
        <search>
            <mode value="match"/>
        </search>
    </entry>
    <entry>
        <fullUrl value="urn:uuid:56c61db7-0a94-4b7b-832a-b8ac3752035d"/>
        <resource>
            <Medication>
                <id value="56c61db7-0a94-4b7b-832a-b8ac3752035d"/>
                <meta>
                    <profile value="https://gematik.de/fhir/erp/StructureDefinition/GEM_ERP_PR_Medication|1.4"/>
                </meta>
                <code>
                    <coding>
                        <system value="http://fhir.de/CodeSystem/ifa/pzn"/>
                        <code value="06313728"/>
                    </coding>
                </code>
                <batch>
                    <lotNumber value="123456"/>
                </batch>
            </Medication>
        </resource>
        <search>
            <mode value="include"/>
        </search>
    </entry>
</Bundle>