{
  "resourceType": "Bundle",
  "id": "erp-versicherte-06-response-get-multiple-medication-dispense",
  "type": "searchset",
  "timestamp": "2025-01-15T15:29:00.434+00:00",
  "total": 2,
  "entry": [
    {
      "fullUrl": "https://erp-ref.zentral.erp.splitdns.ti-dienste.de/MedicationDispense/200.000.000.000.000.01",
      "resource": {
        "resourceType": "MedicationDispense",
        "id": "200.000.000.000.000.01",
        "meta": {
          "profile": [
            "https://gematik.de/fhir/erp/StructureDefinition/GEM_ERP_PR_MedicationDispense|1.4"
          ]
        },
        "identifier": [
          {
            "system": "https://gematik.de/fhir/erp/NamingSystem/GEM_ERP_NS_PrescriptionId",
            "value": "200.000.000.000.000.01"
          }
        ],
        "status": "completed",
        "subject": {
          "identifier": {
            "system": "http://fhir.de/sid/gkv/kvid-10",
            "value": "X123456789"
          }
        },
        "performer": [
          {
            "actor": {
              "identifier": {
                "system": "https://gematik.de/fhir/sid/telematik-id",
                "value": "3-2-APO-XanthippeVeilchenblau01"
              }
            }
          }
        ],
        "dosageInstruction": [
          {
            "text": "1-0-1-0"
          }
        ],
        "whenHandedOver": "2025-01-15",
        "quantity": {
          "value": 1,
          "code": "{Package}",
          "system": "http://unitsofmeasure.org"
        },
        "medicationReference": {
          "reference": "Medication/e25e68d2-8aa4-4fb4-8498-68d9856f8ec3"
        }
      },
      "search": {
        "mode": "match"
      }
    },
    {
      "fullUrl": "https://erp-ref.zentral.erp.splitdns.ti-dienste.de/Medication/e25e68d2-8aa4-4fb4-8498-68d9856f8ec3",
      "resource": {
        "resourceType": "Medication",
        "id": "e25e68d2-8aa4-4fb4-8498-68d9856f8ec3",
        "meta": {
          "profile": [
            "https://gematik.de/fhir/erp/StructureDefinition/GEM_ERP_PR_Medication|1.4"
          ]
        },
        "extension": [
          {
            "url": "https://gematik.de/fhir/epa-medication/StructureDefinition/drug-category-extension",
            "valueCoding": {
              "code": "00"
            }
          },
          {
            "url": "https://gematik.de/fhir/epa-medication/StructureDefinition/medication-id-vaccine-extension",
            "valueBoolean": false
          },
          {
            "url": "http://fhir.de/StructureDefinition/normgroesse",
            "valueCode": "N1"
          }
        ],
        "amount": {
          "numerator": {
            "extension": [
              {
                "url": "https://gematik.de/fhir/epa-medication/StructureDefinition/medication-total-quantity-formulation-extension",
                "valueString": "20"
              }
            ],
            "unit": "St"
          },
          "denominator": {
            "value": 1
          }
        },
        "code": {
          "coding": [
            {
              "code": "06313728",
              "system": "http://fhir.de/CodeSystem/ifa/pzn"
            }
          ],
          "text": "Sumatriptan-1a Pharma 100 mg Tabletten"
        },
        "form": {
          "coding": [
            {
              "system": "https://fhir.kbv.de/CodeSystem/KBV_CS_SFHIR_KBV_DARREICHUNGSFORM",
              "code": "TAB",
              "display": "Tabletten"
            }
          ]
        }
      },
      "search": {
        "mode": "include"
      }
    },
    {
      "fullUrl": "https://erp-ref.zentral.erp.splitdns.ti-dienste.de/MedicationDispense/200.000.000.000.000.02",
      "resource": {
        "resourceType": "MedicationDispense",
        "id": "200.000.000.000.000.02",
        "meta": {
          "profile": [
            "https://gematik.de/fhir/erp/StructureDefinition/GEM_ERP_PR_MedicationDispense|1.4"
          ]
        },
        "identifier": [
          {
            "system": "https://gematik.de/fhir/erp/NamingSystem/GEM_ERP_NS_PrescriptionId",
            "value": "200.000.000.000.000.02"
          }
        ],
        "status": "completed",
        "subject": {
          "identifier": {
            "system": "http://fhir.de/sid/gkv/kvid-10",
            "value": "X123456789"
          }
        },
        "performer": [
          {
            "actor": {
              "identifier": {
                "system": "https://gematik.de/fhir/sid/telematik-id",
                "value": "3-2-APO-XanthippeVeilchenblau01"
              }
            }
          }
        ],
        "dosageInstruction": [
          {
            "text": "1-0-1-0"
          }
        ],
        "whenHandedOver": "2025-01-15",
        "quantity": {
          "value": 1,
          "code": "{Package}",
          "system": "http://unitsofmeasure.org"
        },
        "medicationReference": {
          "reference": "Medication/32c2f072-38ba-4990-9d74-80938ccb05b6"
        }
      },
      "search": {
        "mode": "match"
      }
    },
    {
      "fullUrl": "https://erp-ref.zentral.erp.splitdns.ti-dienste.de/Medication/32c2f072-38ba-4990-9d74-80938ccb05b6",
      "resource": {
        "resourceType": "Medication",
        "id": "32c2f072-38ba-4990-9d74-80938ccb05b6",
        "meta": {
          "profile": [
            "https://gematik.de/fhir/erp/StructureDefinition/GEM_ERP_PR_Medication|1.4"
          ]
        },
        "extension": [
          {
            "url": "https://gematik.de/fhir/epa-medication/StructureDefinition/drug-category-extension",
            "valueCoding": {
              "code": "00"
            }
          },
          {
            "url": "https://gematik.de/fhir/epa-medication/StructureDefinition/medication-id-vaccine-extension",
            "valueBoolean": false
          },
          {
            "url": "http://fhir.de/StructureDefinition/normgroesse",
            "valueCode": "N1"
          }
        ],
        "code": {
          "coding": [
            {
              "code": "14186244",
              "system": "http://fhir.de/CodeSystem/ifa/pzn"
            }
          ],
          "text": "FLUSARION EH50/250UG/60 PC"
        },
        "form": {
          "coding": [
            {
              "code": "IHP",
              "system": "https://fhir.kbv.de/CodeSystem/KBV_CS_SFHIR_KBV_DARREICHUNGSFORM"
            }
          ]
        }
      },
      "search": {
        "mode": "include"
      }
    }
  ],
  "link": [
    {
      "relation": "self",
      "url": "https://erp-ref.zentral.erp.splitdns.ti-dienste.de/MedicationDispense?identifier=200.000.000.000.000.01"
    }
  ]
}
