{
  "resourceType": "Bundle",
  "id": "erp-versicherte-06-response-get-multiple-medication-dispense",
  "entry": [
    {
      "search": {
        "mode": "match"
      },
      "fullUrl": "https://erp-ref.zentral.erp.splitdns.ti-dienste.de/MedicationDispense/200.000.002.097.952.60",
      "resource": {
        "resourceType": "MedicationDispense",
        "id": "200.000.002.097.952.60",
        "meta": {
          "profile": [
            "https://gematik.de/fhir/erp/StructureDefinition/GEM_ERP_PR_MedicationDispense|1.4"
          ],
          "tag": [
            {
              "display": "Beispiel MedicationDispense PKV PZN Bsp 7 1/2"
            }
          ]
        },
        "identifier": [
          {
            "system": "https://gematik.de/fhir/erp/NamingSystem/GEM_ERP_NS_PrescriptionId",
            "value": "200.000.002.097.952.60"
          }
        ],
        "subject": {
          "identifier": {
            "system": "http://fhir.de/sid/gkv/kvid-10",
            "value": "X110501499"
          }
        },
        "performer": [
          {
            "actor": {
              "identifier": {
                "system": "https://gematik.de/fhir/sid/telematik-id",
                "value": "3-2-APO-XanthippeVeilchenblau01"
              }
            }
          }
        ],
        "dosageInstruction": [
          {
            "text": "1 Tablette noch in der Nacht, dann für 7 Tage jeweils 1 Tablette morgens und 1 Tablette abends einnehmen"
          }
        ],
        "status": "completed",
        "medicationReference": {
          "reference": "Medication/b4c2bba5-23bd-4be3-b58f-a70621edd84f",
          "display": "Amoxicillin/Clavulansäure Heumann 875mg/125mg 10St"
        },
        "whenHandedOver": "2024-02-15"
      }
    },
    {
      "search": {
        "mode": "include"
      },
      "fullUrl": "https://erp-ref.zentral.erp.splitdns.ti-dienste.de/Medication/b4c2bba5-23bd-4be3-b58f-a70621edd84f",
      "resource": {
        "resourceType": "Medication",
        "id": "b4c2bba5-23bd-4be3-b58f-a70621edd84f",
        "meta": {
          "profile": [
            "https://gematik.de/fhir/erp/StructureDefinition/GEM_ERP_PR_Medication|1.4"
          ]
        },
        "extension": [
          {
            "valueCoding": {
              "system": "https://gematik.de/fhir/epa-medication/CodeSystem/epa-drug-category-cs",
              "code": "00"
            },
            "url": "https://gematik.de/fhir/epa-medication/StructureDefinition/drug-category-extension"
          },
          {
            "url": "https://gematik.de/fhir/epa-medication/StructureDefinition/medication-id-vaccine-extension",
            "valueBoolean": false
          },
          {
            "url": "http://fhir.de/StructureDefinition/normgroesse",
            "valueCode": "N1"
          }
        ],
        "code": {
          "coding": [
            {
              "code": "03879429",
              "system": "http://fhir.de/CodeSystem/ifa/pzn"
            }
          ],
          "text": "Beloc-ZokÂ® mite 47,5 mg, 30 Retardtabletten N1"
        },
        "amount": {
          "numerator": {
            "extension": [
              {
                "url": "https://gematik.de/fhir/epa-medication/StructureDefinition/medication-total-quantity-formulation-extension",
                "valueString": "30"
              }
            ],
            "code": "{St}",
            "system": "http://unitsofmeasure.org",
            "unit": "Stück"
          },
          "denominator": {
            "value": 1
          }
        },
        "form": {
          "coding": [
            {
              "code": "RET",
              "system": "https://fhir.kbv.de/CodeSystem/KBV_CS_SFHIR_KBV_DARREICHUNGSFORM"
            }
          ]
        }
      }
    },
    {
      "search": {
        "mode": "match"
      },
      "fullUrl": "https://erp-ref.zentral.erp.splitdns.ti-dienste.de/MedicationDispense/200.000.002.097.952.60-1",
      "resource": {
        "resourceType": "MedicationDispense",
        "id": "200.000.002.097.952.60-1",
        "meta": {
          "profile": [
            "https://gematik.de/fhir/erp/StructureDefinition/GEM_ERP_PR_MedicationDispense|1.4"
          ],
          "tag": [
            {
              "display": "Beispiel MedicationDispense PKV PZN Bsp 7 2/2"
            }
          ]
        },
        "identifier": [
          {
            "system": "https://gematik.de/fhir/erp/NamingSystem/GEM_ERP_NS_PrescriptionId",
            "value": "200.000.002.097.952.60"
          }
        ],
        "subject": {
          "identifier": {
            "system": "http://fhir.de/sid/gkv/kvid-10",
            "value": "X110501499"
          }
        },
        "performer": [
          {
            "actor": {
              "identifier": {
                "system": "https://gematik.de/fhir/sid/telematik-id",
                "value": "3-2-APO-XanthippeVeilchenblau01"
              }
            }
          }
        ],
        "dosageInstruction": [
          {
            "text": "1 Tablette noch in der Nacht, dann für 7 Tage jeweils 1 Tablette morgens und 1 Tablette abends einnehmen"
          }
        ],
        "status": "completed",
        "medicationReference": {
          "reference": "Medication/b4c2bba5-23bd-4be3-b58f-a70621edd84e",
          "display": "Amoxicillin/Clavulansäure Heumann 875mg/125mg 10St"
        },
        "whenHandedOver": "2024-02-15"
      }
    },
    {
      "search": {
        "mode": "include"
      },
      "fullUrl": "https://erp-ref.zentral.erp.splitdns.ti-dienste.de/Medication/b4c2bba5-23bd-4be3-b58f-a70621edd84e",
      "resource": {
        "resourceType": "Medication",
        "id": "b4c2bba5-23bd-4be3-b58f-a70621edd84e",
        "meta": {
          "profile": [
            "https://gematik.de/fhir/erp/StructureDefinition/GEM_ERP_PR_Medication|1.4"
          ]
        },
        "extension": [
          {
            "valueCoding": {
              "system": "https://gematik.de/fhir/epa-medication/CodeSystem/epa-drug-category-cs",
              "code": "00"
            },
            "url": "https://gematik.de/fhir/epa-medication/StructureDefinition/drug-category-extension"
          },
          {
            "url": "https://gematik.de/fhir/epa-medication/StructureDefinition/medication-id-vaccine-extension",
            "valueBoolean": false
          },
          {
            "url": "http://fhir.de/StructureDefinition/normgroesse",
            "valueCode": "N1"
          }
        ],
        "code": {
          "coding": [
            {
              "code": "03879429",
              "system": "http://fhir.de/CodeSystem/ifa/pzn"
            }
          ],
          "text": "Beloc-ZokÂ® mite 47,5 mg, 30 Retardtabletten N1"
        },
        "amount": {
          "numerator": {
            "extension": [
              {
                "url": "https://gematik.de/fhir/epa-medication/StructureDefinition/medication-total-quantity-formulation-extension",
                "valueString": "30"
              }
            ],
            "code": "{St}",
            "system": "http://unitsofmeasure.org",
            "unit": "Stück"
          },
          "denominator": {
            "value": 1
          }
        },
        "form": {
          "coding": [
            {
              "code": "RET",
              "system": "https://fhir.kbv.de/CodeSystem/KBV_CS_SFHIR_KBV_DARREICHUNGSFORM"
            }
          ]
        }
      }
    }
  ],
  "link": [
    {
      "relation": "self",
      "url": "https://erp-ref.zentral.erp.splitdns.ti-dienste.de/MedicationDispense?identifier=200.000.002.097.952.60"
    }
  ],
  "type": "searchset",
  "timestamp": "2024-02-15T06:01:44.119+00:00",
  "total": 2
}
