<Bundle xmlns="http://hl7.org/fhir">
   <id value="a0ed774a-0e00-0000-0003-000000000000"/>
   <meta>
      <profile value="https://gematik.de/fhir/erp/StructureDefinition/GEM_ERP_PR_Bundle|1.4"/>
   </meta>
   <identifier>
      <system value="https://gematik.de/fhir/erp/NamingSystem/GEM_ERP_NS_PrescriptionId"/>
      <value value="160.000.239.761.389.87"/>
   </identifier>
   <type value="document"/>
   <timestamp value="2025-03-28T08:04:15.263+00:00"/>
   <link>
      <relation value="self"/>
      <url value="https://erp-ref.zentral.erp.splitdns.ti-dienste.de/Task/160.000.239.761.389.87/$close/"/>
   </link>
   <entry>
      <fullUrl value="urn:uuid:dd9065e8-ca0a-419c-a15a-14973e77c1cc"/>
      <resource>
         <Composition xmlns="http://hl7.org/fhir">
            <id value="dd9065e8-ca0a-419c-a15a-14973e77c1cc"/>
            <meta>
               <profile value="https://gematik.de/fhir/erp/StructureDefinition/GEM_ERP_PR_Composition|1.4"/>
            </meta>
            <extension url="https://gematik.de/fhir/erp/StructureDefinition/GEM_ERP_EX_Beneficiary">
               <valueIdentifier>
                  <system value="https://gematik.de/fhir/sid/telematik-id"/>
                  <value value="3-SMC-B-Testkarte--883110000163973"/>
               </valueIdentifier>
            </extension>
            <status value="final"/>
            <type>
               <coding>
                  <system value="https://gematik.de/fhir/erp/CodeSystem/GEM_ERP_CS_DocumentType"/>
                  <code value="3"/>
                  <display value="Receipt"/>
               </coding>
            </type>
            <date value="2025-03-28T08:04:15.258+00:00"/>
            <author>
               <reference value="urn:uuid:58db2be8-7d1f-4600-82de-e877dfe0e076"/>
            </author>
            <title value="Quittung"/>
            <event>
               <period>
                  <start value="2025-03-28T08:04:14.983+00:00"/>
                  <end value="2025-03-28T08:04:15.258+00:00"/>
               </period>
            </event>
            <section>
               <entry>
                  <reference value="urn:uuid:3fcbb6dc-e121-42d6-a6cc-3263dcf6676c"/>
               </entry>
            </section>
         </Composition>
      </resource>
   </entry>
   <entry>
      <fullUrl value="urn:uuid:58db2be8-7d1f-4600-82de-e877dfe0e076"/>
      <resource>
         <Device xmlns="http://hl7.org/fhir">
            <id value="1"/>
            <meta>
               <profile value="https://gematik.de/fhir/erp/StructureDefinition/GEM_ERP_PR_Device|1.4"/>
            </meta>
            <status value="active"/>
            <serialNumber value="1.17.0"/>
            <deviceName>
               <name value="E-Rezept Fachdienst"/>
               <type value="user-friendly-name"/>
            </deviceName>
            <version>
               <value value="1.17.0"/>
            </version>
            <contact>
               <system value="email"/>
               <value value="betrieb@gematik.de"/>
            </contact>
         </Device>
      </resource>
   </entry>
   <entry>
      <fullUrl value="urn:uuid:3fcbb6dc-e121-42d6-a6cc-3263dcf6676c"/>
      <resource>
         <Binary xmlns="http://hl7.org/fhir">
            <id value="3fcbb6dc-e121-42d6-a6cc-3263dcf6676c"/>
            <meta>
               <versionId value="1"/>
               <profile value="https://gematik.de/fhir/erp/StructureDefinition/GEM_ERP_PR_Digest|1.4"/>
            </meta>
            <contentType value="application/octet-stream"/>
            <data value="EYqEc/miME5wT2Xqz154KW8/T4Pypvmbqa8QxYayHbo="/>
         </Binary>
      </resource>
   </entry>
   <signature>
      <type>
         <system value="urn:iso-astm:E1762-95:2013"/>
         <code value="1.2.840.10065.1.12.1.1"/>
      </type>
      <when value="2025-03-28T08:04:15.265+00:00"/>
      <who>
         <reference value="urn:uuid:58db2be8-7d1f-4600-82de-e877dfe0e076"/>
      </who>
      <sigFormat value="application/pkcs7-mime"/>
      <data value=""/>
   </signature>
</Bundle>