{
  "resourceType": "Bundle",
  "id": "a22481d0-354a-436a-8ee3-ecc6644e5652",
  "type": "collection",
  "timestamp": "2025-03-28T08:09:50.806+00:00",
  "link": [ {
    "relation": "self",
    "url": "https://erp-ref.zentral.erp.splitdns.ti-dienste.de/Task/160.000.239.761.447.10"
  } ],
  "entry": [ {
    "fullUrl": "https://erp-ref.zentral.erp.splitdns.ti-dienste.de/Task/160.000.239.761.447.10",
    "resource": {
      "resourceType": "Task",
      "id": "160.000.239.761.447.10",
      "meta": {
        "profile": [ "https://gematik.de/fhir/erp/StructureDefinition/GEM_ERP_PR_Task|1.4" ]
      },
      "extension": [ {
        "url": "https://gematik.de/fhir/erp/StructureDefinition/GEM_ERP_EX_PrescriptionType",
        "valueCoding": {
          "system": "https://gematik.de/fhir/erp/CodeSystem/GEM_ERP_CS_FlowType",
          "code": "160",
          "display": "Muster 16 (Apothekenpflichtige Arzneimittel)"
        }
      }, {
        "url": "https://gematik.de/fhir/erp/StructureDefinition/GEM_ERP_EX_ExpiryDate",
        "valueDate": "2025-06-28"
      }, {
        "url": "https://gematik.de/fhir/erp/StructureDefinition/GEM_ERP_EX_AcceptDate",
        "valueDate": "2025-04-25"
      } ],
      "identifier": [ {
        "use": "official",
        "system": "https://gematik.de/fhir/erp/NamingSystem/GEM_ERP_NS_PrescriptionId",
        "value": "160.000.239.761.447.10"
      }, {
        "use": "official",
        "system": "https://gematik.de/fhir/erp/NamingSystem/GEM_ERP_NS_AccessCode",
        "value": "2865e65bbe8fa1dc6dca56db1afa6e32aa4532af8c6162b6400d2ea4c0d68542"
      } ],
      "status": "ready",
      "intent": "order",
      "for": {
        "identifier": {
          "system": "http://fhir.de/sid/gkv/kvid-10",
          "value": "X110614233"
        }
      },
      "authoredOn": "2025-03-28T08:09:50.205+00:00",
      "lastModified": "2025-03-28T08:09:50.420+00:00",
      "performerType": [ {
        "coding": [ {
          "system": "https://gematik.de/fhir/erp/CodeSystem/GEM_ERP_CS_OrganizationType",
          "code": "urn:oid:1.2.276.0.76.4.54",
          "display": "Öffentliche Apotheke"
        } ],
        "text": "Öffentliche Apotheke"
      } ],
      "input": [ {
        "type": {
          "coding": [ {
            "system": "https://gematik.de/fhir/erp/CodeSystem/GEM_ERP_CS_DocumentType",
            "code": "2"
          } ]
        },
        "valueReference": {
          "reference": "a027784a-0e00-0000-0002-000000000000"
        }
      } ]
    }
  }, {
    "fullUrl": "urn:uuid:a027784a-0e00-0000-0002-000000000000",
    "resource": {
      "resourceType": "Bundle",
      "id": "a027784a-0e00-0000-0002-000000000000",
      "meta": {
        "profile": [ "https://fhir.kbv.de/StructureDefinition/KBV_PR_ERP_Bundle|1.1.0" ]
      },
      "identifier": {
        "system": "https://gematik.de/fhir/erp/NamingSystem/GEM_ERP_NS_PrescriptionId",
        "value": "160.000.239.761.447.10"
      },
      "type": "document",
      "timestamp": "2025-03-28T09:09:50.294+01:00",
      "entry": [ {
        "fullUrl": "https://pvs.gematik.de/fhir/Composition/d6920b05-75f0-46d6-990e-af418c4ea14b",
        "resource": {
          "resourceType": "Composition",
          "id": "d6920b05-75f0-46d6-990e-af418c4ea14b",
          "meta": {
            "profile": [ "https://fhir.kbv.de/StructureDefinition/KBV_PR_ERP_Composition|1.1.0" ]
          },
          "extension": [ {
            "url": "https://fhir.kbv.de/StructureDefinition/KBV_EX_FOR_Legal_basis",
            "valueCoding": {
              "system": "https://fhir.kbv.de/CodeSystem/KBV_CS_SFHIR_KBV_STATUSKENNZEICHEN",
              "code": "00"
            }
          } ],
          "status": "final",
          "type": {
            "coding": [ {
              "system": "https://fhir.kbv.de/CodeSystem/KBV_CS_SFHIR_KBV_FORMULAR_ART",
              "code": "e16A"
            } ]
          },
          "subject": {
            "reference": "Patient/e572efa1-4844-426c-8a71-1d597a372984"
          },
          "date": "2025-03-28T09:09:50+01:00",
          "author": [ {
            "type": "Device",
            "identifier": {
              "system": "https://fhir.kbv.de/NamingSystem/KBV_NS_FOR_Pruefnummer",
              "value": "GEMATIK/410/2109/36/123"
            }
          }, {
            "reference": "Practitioner/ee8a5789-9818-471b-8ac8-ac7c20683327",
            "type": "Practitioner"
          } ],
          "title": "elektronische Arzneimittelverordnung",
          "custodian": {
            "reference": "Organization/64a3d563-d400-451b-a510-87b725a96173"
          },
          "section": [ {
            "code": {
              "coding": [ {
                "system": "https://fhir.kbv.de/CodeSystem/KBV_CS_ERP_Section_Type",
                "code": "Coverage"
              } ]
            },
            "entry": [ {
              "reference": "Coverage/63319862-c4b2-4223-bf9a-581002c28f1e"
            } ]
          }, {
            "code": {
              "coding": [ {
                "system": "https://fhir.kbv.de/CodeSystem/KBV_CS_ERP_Section_Type",
                "code": "Prescription"
              } ]
            },
            "entry": [ {
              "reference": "MedicationRequest/3a4eafc3-acc1-4e65-8146-b6e9ed59c0ad"
            } ]
          } ]
        }
      }, {
        "fullUrl": "https://pvs.gematik.de/fhir/Coverage/63319862-c4b2-4223-bf9a-581002c28f1e",
        "resource": {
          "resourceType": "Coverage",
          "id": "63319862-c4b2-4223-bf9a-581002c28f1e",
          "meta": {
            "profile": [ "https://fhir.kbv.de/StructureDefinition/KBV_PR_FOR_Coverage|1.1.0" ]
          },
          "extension": [ {
            "url": "http://fhir.de/StructureDefinition/gkv/besondere-personengruppe",
            "valueCoding": {
              "system": "https://fhir.kbv.de/CodeSystem/KBV_CS_SFHIR_KBV_PERSONENGRUPPE",
              "code": "00"
            }
          }, {
            "url": "http://fhir.de/StructureDefinition/gkv/dmp-kennzeichen",
            "valueCoding": {
              "system": "https://fhir.kbv.de/CodeSystem/KBV_CS_SFHIR_KBV_DMP",
              "code": "00"
            }
          }, {
            "url": "http://fhir.de/StructureDefinition/gkv/wop",
            "valueCoding": {
              "system": "https://fhir.kbv.de/CodeSystem/KBV_CS_SFHIR_ITA_WOP",
              "code": "55"
            }
          }, {
            "url": "http://fhir.de/StructureDefinition/gkv/versichertenart",
            "valueCoding": {
              "system": "https://fhir.kbv.de/CodeSystem/KBV_CS_SFHIR_KBV_VERSICHERTENSTATUS",
              "code": "1"
            }
          } ],
          "status": "active",
          "type": {
            "coding": [ {
              "system": "http://fhir.de/CodeSystem/versicherungsart-de-basis",
              "code": "GKV"
            } ]
          },
          "beneficiary": {
            "reference": "Patient/d3a20590-1761-4676-9d47-061e079d7997"
          },
          "payor": [ {
            "identifier": {
              "system": "http://fhir.de/sid/arge-ik/iknr",
              "value": "103170002"
            },
            "display": "hkk Erste Gesundhei"
          } ]
        }
      }, {
        "fullUrl": "https://pvs.gematik.de/fhir/Patient/e572efa1-4844-426c-8a71-1d597a372984",
        "resource": {
          "resourceType": "Patient",
          "id": "e572efa1-4844-426c-8a71-1d597a372984",
          "meta": {
            "profile": [ "https://fhir.kbv.de/StructureDefinition/KBV_PR_FOR_Patient|1.1.0" ]
          },
          "identifier": [ {
            "type": {
              "coding": [ {
                "system": "http://fhir.de/CodeSystem/identifier-type-de-basis",
                "code": "GKV"
              } ]
            },
            "system": "http://fhir.de/sid/gkv/kvid-10",
            "value": "X110614233"
          } ],
          "name": [ {
            "use": "official",
            "family": "Hüllmann",
            "_family": {
              "extension": [ {
                "url": "http://hl7.org/fhir/StructureDefinition/humanname-own-name",
                "valueString": "Hüllmann"
              } ]
            },
            "given": [ "Sina" ]
          } ],
          "birthDate": "2002-06-16",
          "address": [ {
            "type": "both",
            "line": [ "Pfeilshofstr. 37c" ],
            "_line": [ {
              "extension": [ {
                "url": "http://hl7.org/fhir/StructureDefinition/iso21090-ADXP-houseNumber",
                "valueString": "37c"
              }, {
                "url": "http://hl7.org/fhir/StructureDefinition/iso21090-ADXP-streetName",
                "valueString": "Pfeilshofstr."
              } ]
            } ],
            "city": "Lauxland",
            "postalCode": "64675",
            "country": "D"
          } ]
        }
      }, {
        "fullUrl": "https://pvs.gematik.de/fhir/Practitioner/ee8a5789-9818-471b-8ac8-ac7c20683327",
        "resource": {
          "resourceType": "Practitioner",
          "id": "ee8a5789-9818-471b-8ac8-ac7c20683327",
          "meta": {
            "profile": [ "https://fhir.kbv.de/StructureDefinition/KBV_PR_FOR_Practitioner|1.1.0" ]
          },
          "identifier": [ {
            "type": {
              "coding": [ {
                "system": "http://terminology.hl7.org/CodeSystem/v2-0203",
                "code": "LANR"
              } ]
            },
            "system": "https://fhir.kbv.de/NamingSystem/KBV_NS_Base_ANR",
            "value": "581012277"
          } ],
          "name": [ {
            "use": "official",
            "family": "Schraßer",
            "_family": {
              "extension": [ {
                "url": "http://hl7.org/fhir/StructureDefinition/humanname-own-name",
                "valueString": "Schraßer"
              } ]
            },
            "given": [ "Dr." ],
            "prefix": [ "Dr." ],
            "_prefix": [ {
              "extension": [ {
                "url": "http://hl7.org/fhir/StructureDefinition/iso21090-EN-qualifier",
                "valueCode": "AC"
              } ]
            } ]
          } ],
          "qualification": [ {
            "code": {
              "coding": [ {
                "system": "https://fhir.kbv.de/CodeSystem/KBV_CS_FOR_Qualification_Type",
                "code": "00"
              } ]
            }
          }, {
            "code": {
              "coding": [ {
                "system": "https://fhir.kbv.de/CodeSystem/KBV_CS_FOR_Berufsbezeichnung",
                "code": "Berufsbezeichnung"
              } ],
              "text": "Super-Facharzt für alles Mögliche"
            }
          } ]
        }
      }, {
        "fullUrl": "https://pvs.gematik.de/fhir/Organization/64a3d563-d400-451b-a510-87b725a96173",
        "resource": {
          "resourceType": "Organization",
          "id": "64a3d563-d400-451b-a510-87b725a96173",
          "meta": {
            "profile": [ "https://fhir.kbv.de/StructureDefinition/KBV_PR_FOR_Organization|1.1.0" ]
          },
          "identifier": [ {
            "type": {
              "coding": [ {
                "system": "http://terminology.hl7.org/CodeSystem/v2-0203",
                "code": "BSNR"
              } ]
            },
            "system": "https://fhir.kbv.de/NamingSystem/KBV_NS_Base_BSNR",
            "value": "987292155"
          } ],
          "name": "Arztpraxis Schraßer",
          "telecom": [ {
            "system": "phone",
            "value": "+49-7668-41163470"
          }, {
            "system": "email",
            "value": "esma.kluge@kneifel.name"
          } ],
          "address": [ {
            "type": "both",
            "line": [ "Tönges Feld 21" ],
            "_line": [ {
              "extension": [ {
                "url": "http://hl7.org/fhir/StructureDefinition/iso21090-ADXP-houseNumber",
                "valueString": "21"
              }, {
                "url": "http://hl7.org/fhir/StructureDefinition/iso21090-ADXP-streetName",
                "valueString": "Tönges Feld"
              } ]
            } ],
            "city": "Ost Elainefeld",
            "postalCode": "48459",
            "country": "D"
          } ]
        }
      }, {
        "fullUrl": "https://pvs.gematik.de/fhir/Medication/8326b1f7-8232-489f-974b-dbd159a7b453",
        "resource": {
          "resourceType": "Medication",
          "id": "8326b1f7-8232-489f-974b-dbd159a7b453",
          "meta": {
            "profile": [ "https://fhir.kbv.de/StructureDefinition/KBV_PR_ERP_Medication_PZN|1.1.0" ]
          },
          "extension": [ {
            "url": "https://fhir.kbv.de/StructureDefinition/KBV_EX_Base_Medication_Type",
            "valueCodeableConcept": {
              "coding": [ {
                "system": "http://snomed.info/sct",
                "version": "http://snomed.info/sct/900000000000207008/version/20220331",
                "code": "763158003",
                "display": "Medicinal product (product)"
              } ]
            }
          }, {
            "url": "https://fhir.kbv.de/StructureDefinition/KBV_EX_ERP_Medication_Category",
            "valueCoding": {
              "system": "https://fhir.kbv.de/CodeSystem/KBV_CS_ERP_Medication_Category",
              "code": "00"
            }
          }, {
            "url": "https://fhir.kbv.de/StructureDefinition/KBV_EX_ERP_Medication_Vaccine",
            "valueBoolean": false
          }, {
            "url": "http://fhir.de/StructureDefinition/normgroesse",
            "valueCode": "N1"
          } ],
          "code": {
            "coding": [ {
              "system": "http://fhir.de/CodeSystem/ifa/pzn",
              "code": "12345678"
            } ],
            "text": "Schmerzmittel"
          },
          "form": {
            "coding": [ {
              "system": "https://fhir.kbv.de/CodeSystem/KBV_CS_SFHIR_KBV_DARREICHUNGSFORM",
              "code": "TAB"
            } ]
          },
          "amount": {
            "numerator": {
              "extension": [ {
                "url": "https://fhir.kbv.de/StructureDefinition/KBV_EX_ERP_Medication_PackagingSize",
                "valueString": "1"
              } ],
              "unit": "Stk"
            },
            "denominator": {
              "value": 1
            }
          }
        }
      }, {
        "fullUrl": "https://pvs.gematik.de/fhir/MedicationRequest/3a4eafc3-acc1-4e65-8146-b6e9ed59c0ad",
        "resource": {
          "resourceType": "MedicationRequest",
          "id": "3a4eafc3-acc1-4e65-8146-b6e9ed59c0ad",
          "meta": {
            "profile": [ "https://fhir.kbv.de/StructureDefinition/KBV_PR_ERP_Prescription|1.1.0" ]
          },
          "extension": [ {
            "url": "https://fhir.kbv.de/StructureDefinition/KBV_EX_ERP_BVG",
            "valueBoolean": false
          }, {
            "url": "https://fhir.kbv.de/StructureDefinition/KBV_EX_ERP_EmergencyServicesFee",
            "valueBoolean": false
          }, {
            "url": "https://fhir.kbv.de/StructureDefinition/KBV_EX_ERP_Multiple_Prescription",
            "extension": [ {
              "url": "Kennzeichen",
              "valueBoolean": false
            } ]
          }, {
            "url": "https://fhir.kbv.de/StructureDefinition/KBV_EX_FOR_StatusCoPayment",
            "valueCoding": {
              "system": "https://fhir.kbv.de/CodeSystem/KBV_CS_FOR_StatusCoPayment",
              "code": "0"
            }
          } ],
          "status": "active",
          "intent": "order",
          "medicationReference": {
            "reference": "Medication/8326b1f7-8232-489f-974b-dbd159a7b453"
          },
          "subject": {
            "reference": "Patient/e572efa1-4844-426c-8a71-1d597a372984"
          },
          "authoredOn": "2025-03-28",
          "requester": {
            "reference": "Practitioner/ee8a5789-9818-471b-8ac8-ac7c20683327"
          },
          "insurance": [ {
            "reference": "Coverage/63319862-c4b2-4223-bf9a-581002c28f1e"
          } ],
          "dosageInstruction": [ {
            "extension": [ {
              "url": "https://fhir.kbv.de/StructureDefinition/KBV_EX_ERP_DosageFlag",
              "valueBoolean": true
            } ],
            "text": "1-0-0-1"
          } ],
          "dispenseRequest": {
            "quantity": {
              "value": 3,
              "system": "http://unitsofmeasure.org",
              "code": "{Package}"
            }
          },
          "substitution": {
            "allowedBoolean": false
          }
        }
      } ],
      "signature": {
        "type": [ {
          "system": "urn:iso-astm:E1762-95:2013",
          "code": "1.2.840.10065.1.12.1.5"
        } ],
        "when": "2025-03-28T08:09:50.806+00:00",
        "who": {
          "reference": "https://erp-ref.zentral.erp.splitdns.ti-dienste.de/Device/1"
        },
        "targetFormat": "application/fhir+json",
        "sigFormat": "application/jose",
        "data": ""
      }
    }
  } ]
}