{
  "resourceType" : "Bundle",
  "id" : "5b3d10cd-3f3d-4779-8e09-fb4f88607acf",
  "type" : "collection",
  "timestamp" : "2023-11-27T07:25:09.839+00:00",
  "link" : [ {
    "relation" : "self",
    "url" : "https://erp-test.zentral.erp.splitdns.ti-dienste.de/Task/160.000.006.420.692.47"
  } ],
  "entry" : [ {
    "fullUrl" : "https://erp-test.zentral.erp.splitdns.ti-dienste.de/Task/160.000.006.420.692.47",
    "resource" : {
      "resourceType" : "Task",
      "id" : "160.000.006.420.692.47",
      "meta" : {
        "profile" : [ "https://gematik.de/fhir/erp/StructureDefinition/GEM_ERP_PR_Task|1.2" ]
      },
      "extension" : [ {
        "url" : "https://gematik.de/fhir/erp/StructureDefinition/GEM_ERP_EX_PrescriptionType",
        "valueCoding" : {
          "system" : "https://gematik.de/fhir/erp/CodeSystem/GEM_ERP_CS_FlowType",
          "code" : "160",
          "display" : "Muster 16 (Apothekenpflichtige Arzneimittel)"
        }
      }, {
        "url" : "https://gematik.de/fhir/erp/StructureDefinition/GEM_ERP_EX_ExpiryDate",
        "valueDate" : "2024-02-27"
      }, {
        "url" : "https://gematik.de/fhir/erp/StructureDefinition/GEM_ERP_EX_AcceptDate",
        "valueDate" : "2023-12-25"
      } ],
      "identifier" : [ {
        "use" : "official",
        "system" : "https://gematik.de/fhir/erp/NamingSystem/GEM_ERP_NS_PrescriptionId",
        "value" : "160.000.006.420.692.47"
      }, {
        "use" : "official",
        "system" : "https://gematik.de/fhir/erp/NamingSystem/GEM_ERP_NS_AccessCode",
        "value" : "53d151862a5f1a5a3aa66b0dec03b070279280efc34c931f8ee967996b2381ef"
      } ],
      "status" : "ready",
      "intent" : "order",
      "for" : {
        "identifier" : {
          "system" : "http://fhir.de/sid/gkv/kvid-10",
          "value" : "X110498565"
        }
      },
      "authoredOn" : "2023-11-27T07:25:06.097+00:00",
      "lastModified" : "2023-11-27T07:25:06.618+00:00",
      "performerType" : [ {
        "coding" : [ {
          "system" : "https://gematik.de/fhir/erp/CodeSystem/GEM_ERP_CS_OrganizationType",
          "code" : "urn:oid:1.2.276.0.76.4.54",
          "display" : "Öffentliche Apotheke"
        } ],
        "text" : "Öffentliche Apotheke"
      } ],
      "input" : [ {
        "type" : {
          "coding" : [ {
            "system" : "https://gematik.de/fhir/erp/CodeSystem/GEM_ERP_CS_DocumentType",
            "code" : "2"
          } ]
        },
        "valueReference" : {
          "reference" : "a0d4f861-0000-0000-0002-000000000000"
        }
      } ]
    }
  }, {
    "fullUrl" : "urn:uuid:a0d4f861-0000-0000-0002-000000000000",
    "resource" : {
      "resourceType" : "Bundle",
      "meta" : {
        "lastUpdated" : "2023-11-27T08:25:06.249+01:00",
        "profile" : [ "https://fhir.kbv.de/StructureDefinition/KBV_PR_ERP_Bundle|1.1.0" ]
      },
      "identifier" : {
        "system" : "https://gematik.de/fhir/erp/NamingSystem/GEM_ERP_NS_PrescriptionId",
        "value" : "160.000.006.420.692.47"
      },
      "type" : "document",
      "timestamp" : "2023-11-27T08:25:06.249+01:00",
      "entry" : [ {
        "fullUrl" : "https://pvs.gematik.de/fhir/Composition/3d016686-5bc5-403b-b986-835d6816331c",
        "resource" : {
          "resourceType" : "Composition",
          "id" : "3d016686-5bc5-403b-b986-835d6816331c",
          "meta" : {
            "profile" : [ "https://fhir.kbv.de/StructureDefinition/KBV_PR_ERP_Composition|1.1.0" ]
          },
          "extension" : [ {
            "url" : "https://fhir.kbv.de/StructureDefinition/KBV_EX_FOR_Legal_basis",
            "valueCoding" : {
              "system" : "https://fhir.kbv.de/CodeSystem/KBV_CS_SFHIR_KBV_STATUSKENNZEICHEN",
              "code" : "00"
            }
          } ],
          "status" : "final",
          "type" : {
            "coding" : [ {
              "system" : "https://fhir.kbv.de/CodeSystem/KBV_CS_SFHIR_KBV_FORMULAR_ART",
              "code" : "e16A"
            } ]
          },
          "subject" : {
            "reference" : "Patient/dd9bd85f-586b-4505-998b-011396ca6a1b"
          },
          "date" : "2023-11-27T08:25:06+01:00",
          "author" : [ {
            "reference" : "Practitioner/bdc5a69f-545b-4d39-a1f4-783d592ff8ed",
            "type" : "Practitioner"
          }, {
            "type" : "Device",
            "identifier" : {
              "system" : "https://fhir.kbv.de/NamingSystem/KBV_NS_FOR_Pruefnummer",
              "value" : "GEMATIK/410/2109/36/123"
            }
          } ],
          "title" : "elektronische Arzneimittelverordnung",
          "custodian" : {
            "reference" : "Organization/70bbfb1c-edbb-4d5e-bc29-a8b065b810b4"
          },
          "section" : [ {
            "code" : {
              "coding" : [ {
                "system" : "https://fhir.kbv.de/CodeSystem/KBV_CS_ERP_Section_Type",
                "code" : "Coverage"
              } ]
            },
            "entry" : [ {
              "reference" : "Coverage/2a1d7fe2-1380-4720-b05a-21a4502c1310"
            } ]
          }, {
            "code" : {
              "coding" : [ {
                "system" : "https://fhir.kbv.de/CodeSystem/KBV_CS_ERP_Section_Type",
                "code" : "Prescription"
              } ]
            },
            "entry" : [ {
              "reference" : "MedicationRequest/6cc39be7-e568-411f-b73f-89492cdf93f8"
            } ]
          } ]
        }
      }, {
        "fullUrl" : "https://pvs.gematik.de/fhir/Medication/47a9c218-c333-4a95-bc3b-d8dfd911aa46",
        "resource" : {
          "resourceType" : "Medication",
          "id" : "47a9c218-c333-4a95-bc3b-d8dfd911aa46",
          "meta" : {
            "profile" : [ "https://fhir.kbv.de/StructureDefinition/KBV_PR_ERP_Medication_PZN|1.1.0" ]
          },
          "extension" : [ {
            "url" : "https://fhir.kbv.de/StructureDefinition/KBV_EX_Base_Medication_Type",
            "valueCodeableConcept" : {
              "coding" : [ {
                "system" : "http://snomed.info/sct",
                "version" : "http://snomed.info/sct/900000000000207008/version/20220331",
                "code" : "763158003",
                "display" : "Medicinal product (product)"
              } ]
            }
          }, {
            "url" : "https://fhir.kbv.de/StructureDefinition/KBV_EX_ERP_Medication_Category",
            "valueCoding" : {
              "system" : "https://fhir.kbv.de/CodeSystem/KBV_CS_ERP_Medication_Category",
              "code" : "00"
            }
          }, {
            "url" : "https://fhir.kbv.de/StructureDefinition/KBV_EX_ERP_Medication_Vaccine",
            "valueBoolean" : false
          }, {
            "url" : "http://fhir.de/StructureDefinition/normgroesse",
            "valueCode" : "NB"
          } ],
          "code" : {
            "coding" : [ {
              "system" : "http://fhir.de/CodeSystem/ifa/pzn",
              "code" : "12345678"
            } ],
            "text" : "Schmerzmittel"
          },
          "form" : {
            "coding" : [ {
              "system" : "https://fhir.kbv.de/CodeSystem/KBV_CS_SFHIR_KBV_DARREICHUNGSFORM",
              "code" : "TAB"
            } ]
          },
          "amount" : {
            "numerator" : {
              "extension" : [ {
                "url" : "https://fhir.kbv.de/StructureDefinition/KBV_EX_ERP_Medication_PackagingSize",
                "valueString" : "1"
              } ],
              "unit" : "Stk"
            },
            "denominator" : {
              "value" : 1
            }
          }
        }
      }, {
        "fullUrl" : "https://pvs.gematik.de/fhir/Patient/dd9bd85f-586b-4505-998b-011396ca6a1b",
        "resource" : {
          "resourceType" : "Patient",
          "id" : "dd9bd85f-586b-4505-998b-011396ca6a1b",
          "meta" : {
            "profile" : [ "https://fhir.kbv.de/StructureDefinition/KBV_PR_FOR_Patient|1.1.0" ]
          },
          "identifier" : [ {
            "type" : {
              "coding" : [ {
                "system" : "http://fhir.de/CodeSystem/identifier-type-de-basis",
                "code" : "GKV"
              } ]
            },
            "system" : "http://fhir.de/sid/gkv/kvid-10",
            "value" : "X110498565"
          } ],
          "name" : [ {
            "use" : "official",
            "family" : "Hüllmann",
            "_family" : {
              "extension" : [ {
                "url" : "http://hl7.org/fhir/StructureDefinition/humanname-own-name",
                "valueString" : "Hüllmann"
              } ]
            },
            "given" : [ "Sina" ]
          } ],
          "birthDate" : "1998-04-08",
          "address" : [ {
            "type" : "both",
            "line" : [ "Heisterbachstr. 30c" ],
            "_line" : [ {
              "extension" : [ {
                "url" : "http://hl7.org/fhir/StructureDefinition/iso21090-ADXP-houseNumber",
                "valueString" : "30c"
              }, {
                "url" : "http://hl7.org/fhir/StructureDefinition/iso21090-ADXP-streetName",
                "valueString" : "Heisterbachstr."
              } ]
            } ],
            "city" : "Tepperdorf",
            "postalCode" : "01609",
            "country" : "D"
          } ]
        }
      }, {
        "fullUrl" : "https://pvs.gematik.de/fhir/Organization/70bbfb1c-edbb-4d5e-bc29-a8b065b810b4",
        "resource" : {
          "resourceType" : "Organization",
          "id" : "70bbfb1c-edbb-4d5e-bc29-a8b065b810b4",
          "meta" : {
            "profile" : [ "https://fhir.kbv.de/StructureDefinition/KBV_PR_FOR_Organization|1.1.0" ]
          },
          "identifier" : [ {
            "type" : {
              "coding" : [ {
                "system" : "http://terminology.hl7.org/CodeSystem/v2-0203",
                "code" : "BSNR"
              } ]
            },
            "system" : "https://fhir.kbv.de/NamingSystem/KBV_NS_Base_BSNR",
            "value" : "461103635"
          } ],
          "name" : "Arztpraxis Schraßer",
          "telecom" : [ {
            "system" : "phone",
            "value" : "+49-4119-35709672"
          }, {
            "system" : "email",
            "value" : "celia.aigner@lipus.org"
          } ],
          "address" : [ {
            "type" : "both",
            "line" : [ "Karl-Bosch-Str. 95a" ],
            "_line" : [ {
              "extension" : [ {
                "url" : "http://hl7.org/fhir/StructureDefinition/iso21090-ADXP-houseNumber",
                "valueString" : "95a"
              }, {
                "url" : "http://hl7.org/fhir/StructureDefinition/iso21090-ADXP-streetName",
                "valueString" : "Karl-Bosch-Str."
              } ]
            } ],
            "city" : "Alt Joris",
            "postalCode" : "96706",
            "country" : "D"
          } ]
        }
      }, {
        "fullUrl" : "https://pvs.gematik.de/fhir/Coverage/2a1d7fe2-1380-4720-b05a-21a4502c1310",
        "resource" : {
          "resourceType" : "Coverage",
          "id" : "2a1d7fe2-1380-4720-b05a-21a4502c1310",
          "meta" : {
            "profile" : [ "https://fhir.kbv.de/StructureDefinition/KBV_PR_FOR_Coverage|1.1.0" ]
          },
          "extension" : [ {
            "url" : "http://fhir.de/StructureDefinition/gkv/besondere-personengruppe",
            "valueCoding" : {
              "system" : "https://fhir.kbv.de/CodeSystem/KBV_CS_SFHIR_KBV_PERSONENGRUPPE",
              "code" : "00"
            }
          }, {
            "url" : "http://fhir.de/StructureDefinition/gkv/dmp-kennzeichen",
            "valueCoding" : {
              "system" : "https://fhir.kbv.de/CodeSystem/KBV_CS_SFHIR_KBV_DMP",
              "code" : "00"
            }
          }, {
            "url" : "http://fhir.de/StructureDefinition/gkv/wop",
            "valueCoding" : {
              "system" : "https://fhir.kbv.de/CodeSystem/KBV_CS_SFHIR_ITA_WOP",
              "code" : "17"
            }
          }, {
            "url" : "http://fhir.de/StructureDefinition/gkv/versichertenart",
            "valueCoding" : {
              "system" : "https://fhir.kbv.de/CodeSystem/KBV_CS_SFHIR_KBV_VERSICHERTENSTATUS",
              "code" : "1"
            }
          } ],
          "status" : "active",
          "type" : {
            "coding" : [ {
              "system" : "http://fhir.de/CodeSystem/versicherungsart-de-basis",
              "code" : "GKV"
            } ]
          },
          "beneficiary" : {
            "reference" : "Patient/09eb386a-9cc2-455f-824b-196c23ae620d"
          },
          "payor" : [ {
            "identifier" : {
              "system" : "http://fhir.de/sid/arge-ik/iknr",
              "value" : "104424830"
            },
            "display" : "BKK GRILLO‐WERKE AG"
          } ]
        }
      }, {
        "fullUrl" : "https://pvs.gematik.de/fhir/Practitioner/bdc5a69f-545b-4d39-a1f4-783d592ff8ed",
        "resource" : {
          "resourceType" : "Practitioner",
          "id" : "bdc5a69f-545b-4d39-a1f4-783d592ff8ed",
          "meta" : {
            "profile" : [ "https://fhir.kbv.de/StructureDefinition/KBV_PR_FOR_Practitioner|1.1.0" ]
          },
          "identifier" : [ {
            "type" : {
              "coding" : [ {
                "system" : "http://terminology.hl7.org/CodeSystem/v2-0203",
                "code" : "LANR"
              } ]
            },
            "system" : "https://fhir.kbv.de/NamingSystem/KBV_NS_Base_ANR",
            "value" : "702173089"
          } ],
          "name" : [ {
            "use" : "official",
            "family" : "Schraßer",
            "_family" : {
              "extension" : [ {
                "url" : "http://hl7.org/fhir/StructureDefinition/humanname-own-name",
                "valueString" : "Schraßer"
              } ]
            },
            "given" : [ "Dr." ],
            "prefix" : [ "Dr." ],
            "_prefix" : [ {
              "extension" : [ {
                "url" : "http://hl7.org/fhir/StructureDefinition/iso21090-EN-qualifier",
                "valueCode" : "AC"
              } ]
            } ]
          } ],
          "qualification" : [ {
            "code" : {
              "coding" : [ {
                "system" : "https://fhir.kbv.de/CodeSystem/KBV_CS_FOR_Qualification_Type",
                "code" : "00"
              } ]
            }
          }, {
            "code" : {
              "coding" : [ {
                "system" : "https://fhir.kbv.de/CodeSystem/KBV_CS_FOR_Berufsbezeichnung",
                "code" : "Berufsbezeichnung"
              } ],
              "text" : "Super-Facharzt für alles Mögliche"
            }
          } ]
        }
      }, {
        "fullUrl" : "https://pvs.gematik.de/fhir/MedicationRequest/6cc39be7-e568-411f-b73f-89492cdf93f8",
        "resource" : {
          "resourceType" : "MedicationRequest",
          "id" : "6cc39be7-e568-411f-b73f-89492cdf93f8",
          "meta" : {
            "profile" : [ "https://fhir.kbv.de/StructureDefinition/KBV_PR_ERP_Prescription|1.1.0" ]
          },
          "extension" : [ {
            "url" : "https://fhir.kbv.de/StructureDefinition/KBV_EX_ERP_BVG",
            "valueBoolean" : false
          }, {
            "url" : "https://fhir.kbv.de/StructureDefinition/KBV_EX_ERP_EmergencyServicesFee",
            "valueBoolean" : false
          }, {
            "url" : "https://fhir.kbv.de/StructureDefinition/KBV_EX_ERP_Multiple_Prescription",
            "extension" : [ {
              "url" : "Kennzeichen",
              "valueBoolean" : false
            } ]
          }, {
            "url" : "https://fhir.kbv.de/StructureDefinition/KBV_EX_FOR_StatusCoPayment",
            "valueCoding" : {
              "system" : "https://fhir.kbv.de/CodeSystem/KBV_CS_FOR_StatusCoPayment",
              "code" : "1"
            }
          } ],
          "status" : "active",
          "intent" : "order",
          "medicationReference" : {
            "reference" : "Medication/47a9c218-c333-4a95-bc3b-d8dfd911aa46"
          },
          "subject" : {
            "reference" : "Patient/dd9bd85f-586b-4505-998b-011396ca6a1b"
          },
          "authoredOn" : "2023-11-27",
          "requester" : {
            "reference" : "Practitioner/bdc5a69f-545b-4d39-a1f4-783d592ff8ed"
          },
          "insurance" : [ {
            "reference" : "Coverage/2a1d7fe2-1380-4720-b05a-21a4502c1310"
          } ],
          "dosageInstruction" : [ {
            "extension" : [ {
              "url" : "https://fhir.kbv.de/StructureDefinition/KBV_EX_ERP_DosageFlag",
              "valueBoolean" : true
            } ],
            "text" : "1-2-1-2-2-0"
          } ],
          "dispenseRequest" : {
            "quantity" : {
              "value" : 1,
              "system" : "http://unitsofmeasure.org",
              "code" : "{Package}"
            }
          },
          "substitution" : {
            "allowedBoolean" : false
          }
        }
      } ],
      "signature" : {
        "type" : [ {
          "system" : "urn:iso-astm:E1762-95:2013",
          "code" : "1.2.840.10065.1.12.1.5"
        } ],
        "when" : "2023-11-27T07:25:09.839+00:00",
        "who" : {
          "reference" : "https://erp-test.zentral.erp.splitdns.ti-dienste.de/Device/1"
        },
        "targetFormat" : "application/fhir+json",
        "sigFormat" : "application/jose",
        "data" : ""
      }
    }
  } ]
}