{
  "resourceType" : "Bundle",
  "id" : "5071fb85-99d5-458b-bc0f-0759ae752c10",
  "type" : "searchset",
  "timestamp" : "2023-11-27T07:25:14.699+00:00",
  "total" : 93,
  "link" : [ {
    "relation" : "next",
    "url" : "https://erp-test.zentral.erp.splitdns.ti-dienste.de/Communication?received=eqNULL&_sort=-sent&_count=50&__offset=50"
  }, {
    "relation" : "self",
    "url" : "https://erp-test.zentral.erp.splitdns.ti-dienste.de/Communication?received=eqNULL&_sort=-sent"
  } ],
  "entry" : [ {
    "fullUrl" : "https://erp-test.zentral.erp.splitdns.ti-dienste.de/Communication/01ebb4fb-0d01-dd08-fb77-9df6935e1354",
    "resource" : {
      "resourceType" : "Communication",
      "id" : "01ebb4fb-0d01-dd08-fb77-9df6935e1354",
      "meta" : {
        "profile" : [ "https://gematik.de/fhir/erp/StructureDefinition/GEM_ERP_PR_Communication_Reply|1.2" ]
      },
      "basedOn" : [ {
        "reference" : "Task/160.000.006.420.692.47"
      } ],
      "status" : "unknown",
      "sent" : "2023-11-27T07:25:12.949+00:00",
      "received" : "2023-11-27T07:25:14.676+00:00",
      "recipient" : [ {
        "identifier" : {
          "system" : "http://fhir.de/sid/gkv/kvid-10",
          "value" : "X110498565"
        }
      } ],
      "sender" : {
        "identifier" : {
          "system" : "https://gematik.de/fhir/sid/telematik-id",
          "value" : "3-SMC-B-Testkarte-883110000116873"
        }
      },
      "payload" : [ {
        "extension" : [ {
          "url" : "https://gematik.de/fhir/erp/StructureDefinition/GEM_ERP_EX_AvailabilityState",
          "valueCoding" : {
            "system" : "https://gematik.de/fhir/erp/CodeSystem/GEM_ERP_CS_AvailabilityStatus",
            "code" : "30"
          }
        }, {
          "url" : "https://gematik.de/fhir/erp/StructureDefinition/GEM_ERP_EX_SupplyOptionsType",
          "extension" : [ {
            "url" : "onPremise",
            "valueBoolean" : true
          }, {
            "url" : "delivery",
            "valueBoolean" : false
          }, {
            "url" : "shipment",
            "valueBoolean" : false
          } ]
        } ],
        "contentString" : "{\"version\":1,\"supplyOptionsType\":\"shipment\",\"info_text\":\"Some thoughts have a certain sound, that being the equivalent to a form. Through sound and motion, you will be able to paralyze nerves, shatter bones, set fires, suffocate an enemy or burst his organs. We will kill until no Harkonnen breathes Arakeen air.\"}"
      } ]
    },
    "search" : {
      "mode" : "match"
    }
  }, {
    "fullUrl" : "https://erp-test.zentral.erp.splitdns.ti-dienste.de/Communication/01ebb2e6-a625-6980-5b54-c59b3bc65417",
    "resource" : {
      "resourceType" : "Communication",
      "id" : "01ebb2e6-a625-6980-5b54-c59b3bc65417",
      "meta" : {
        "profile" : [ "https://gematik.de/fhir/erp/StructureDefinition/GEM_ERP_PR_Communication_InfoReq|1.2" ]
      },
      "contained" : [ {
        "resourceType" : "Medication",
        "id" : "faf5a890-51a1-43ec-9dd9-8f0c91c6bb34",
        "meta" : {
          "profile" : [ "https://fhir.kbv.de/StructureDefinition/KBV_PR_ERP_Medication_PZN|1.1.0" ]
        },
        "extension" : [ {
          "url" : "https://fhir.kbv.de/StructureDefinition/KBV_EX_Base_Medication_Type",
          "valueCodeableConcept" : {
            "coding" : [ {
              "system" : "http://snomed.info/sct",
              "version" : "http://snomed.info/sct/900000000000207008/version/20220331",
              "code" : "763158003",
              "display" : "Medicinal product (product)"
            } ]
          }
        }, {
          "url" : "https://fhir.kbv.de/StructureDefinition/KBV_EX_ERP_Medication_Category",
          "valueCoding" : {
            "system" : "https://fhir.kbv.de/CodeSystem/KBV_CS_ERP_Medication_Category",
            "code" : "00"
          }
        }, {
          "url" : "https://fhir.kbv.de/StructureDefinition/KBV_EX_ERP_Medication_Vaccine",
          "valueBoolean" : false
        }, {
          "url" : "http://fhir.de/StructureDefinition/normgroesse",
          "valueCode" : "NB"
        } ],
        "code" : {
          "coding" : [ {
            "system" : "http://fhir.de/CodeSystem/ifa/pzn",
            "code" : "12345678"
          } ],
          "text" : "Schmerzmittel"
        },
        "form" : {
          "coding" : [ {
            "system" : "https://fhir.kbv.de/CodeSystem/KBV_CS_SFHIR_KBV_DARREICHUNGSFORM",
            "code" : "TAB"
          } ]
        },
        "amount" : {
          "numerator" : {
            "extension" : [ {
              "url" : "https://fhir.kbv.de/StructureDefinition/KBV_EX_ERP_Medication_PackagingSize",
              "valueString" : "1"
            } ],
            "unit" : "Stk"
          },
          "denominator" : {
            "value" : 1
          }
        }
      } ],
      "basedOn" : [ {
        "reference" : "Task/160.000.006.403.591.37"
      } ],
      "status" : "unknown",
      "about" : [ {
        "reference" : "#faf5a890-51a1-43ec-9dd9-8f0c91c6bb34"
      } ],
      "sent" : "2023-10-31T20:14:24.624+00:00",
      "recipient" : [ {
        "identifier" : {
          "system" : "https://gematik.de/fhir/sid/telematik-id",
          "value" : "1-2-ARZT-BerndClaudius01"
        }
      } ],
      "sender" : {
        "identifier" : {
          "system" : "http://fhir.de/sid/gkv/kvid-10",
          "value" : "X110498565"
        }
      },
      "payload" : [ {
        "extension" : [ {
          "url" : "https://gematik.de/fhir/erp/StructureDefinition/GEM_ERP_EX_InsuranceProvider",
          "valueIdentifier" : {
            "system" : "http://fhir.de/sid/arge-ik/iknr",
            "value" : "103526615"
          }
        }, {
          "url" : "https://gematik.de/fhir/erp/StructureDefinition/GEM_ERP_EX_SubstitutionAllowedType",
          "valueBoolean" : true
        }, {
          "url" : "https://gematik.de/fhir/erp/StructureDefinition/GEM_ERP_EX_PrescriptionType",
          "valueCoding" : {
            "system" : "https://gematik.de/fhir/erp/CodeSystem/GEM_ERP_CS_FlowType",
            "code" : "160",
            "display" : "Muster 16 (Apothekenpflichtige Arzneimittel)"
          }
        } ],
        "contentString" : "Life? Don't talk to me about life."
      } ]
    },
    "search" : {
      "mode" : "match"
    }
  }, {
    "fullUrl" : "https://erp-test.zentral.erp.splitdns.ti-dienste.de/Communication/01ebb2e0-97f3-d938-3332-8b86141aff83",
    "resource" : {
      "resourceType" : "Communication",
      "id" : "01ebb2e0-97f3-d938-3332-8b86141aff83",
      "meta" : {
        "profile" : [ "https://gematik.de/fhir/erp/StructureDefinition/GEM_ERP_PR_Communication_InfoReq|1.2" ]
      },
      "contained" : [ {
        "resourceType" : "Medication",
        "id" : "e85ef3f3-34bf-4e08-9486-d8d7215a715b",
        "meta" : {
          "profile" : [ "https://fhir.kbv.de/StructureDefinition/KBV_PR_ERP_Medication_PZN|1.1.0" ]
        },
        "extension" : [ {
          "url" : "https://fhir.kbv.de/StructureDefinition/KBV_EX_Base_Medication_Type",
          "valueCodeableConcept" : {
            "coding" : [ {
              "system" : "http://snomed.info/sct",
              "version" : "http://snomed.info/sct/900000000000207008/version/20220331",
              "code" : "763158003",
              "display" : "Medicinal product (product)"
            } ]
          }
        }, {
          "url" : "https://fhir.kbv.de/StructureDefinition/KBV_EX_ERP_Medication_Category",
          "valueCoding" : {
            "system" : "https://fhir.kbv.de/CodeSystem/KBV_CS_ERP_Medication_Category",
            "code" : "00"
          }
        }, {
          "url" : "https://fhir.kbv.de/StructureDefinition/KBV_EX_ERP_Medication_Vaccine",
          "valueBoolean" : false
        }, {
          "url" : "http://fhir.de/StructureDefinition/normgroesse",
          "valueCode" : "NB"
        } ],
        "code" : {
          "coding" : [ {
            "system" : "http://fhir.de/CodeSystem/ifa/pzn",
            "code" : "12345678"
          } ],
          "text" : "Schmerzmittel"
        },
        "form" : {
          "coding" : [ {
            "system" : "https://fhir.kbv.de/CodeSystem/KBV_CS_SFHIR_KBV_DARREICHUNGSFORM",
            "code" : "TAB"
          } ]
        },
        "amount" : {
          "numerator" : {
            "extension" : [ {
              "url" : "https://fhir.kbv.de/StructureDefinition/KBV_EX_ERP_Medication_PackagingSize",
              "valueString" : "1"
            } ],
            "unit" : "Stk"
          },
          "denominator" : {
            "value" : 1
          }
        }
      } ],
      "basedOn" : [ {
        "reference" : "Task/160.000.006.403.530.26"
      } ],
      "status" : "unknown",
      "about" : [ {
        "reference" : "#e85ef3f3-34bf-4e08-9486-d8d7215a715b"
      } ],
      "sent" : "2023-10-31T13:00:56.691+00:00",
      "recipient" : [ {
        "identifier" : {
          "system" : "https://gematik.de/fhir/sid/telematik-id",
          "value" : "1-2-ARZT-BerndClaudius01"
        }
      } ],
      "sender" : {
        "identifier" : {
          "system" : "http://fhir.de/sid/gkv/kvid-10",
          "value" : "X110498565"
        }
      },
      "payload" : [ {
        "extension" : [ {
          "url" : "https://gematik.de/fhir/erp/StructureDefinition/GEM_ERP_EX_InsuranceProvider",
          "valueIdentifier" : {
            "system" : "http://fhir.de/sid/arge-ik/iknr",
            "value" : "102131240"
          }
        }, {
          "url" : "https://gematik.de/fhir/erp/StructureDefinition/GEM_ERP_EX_SubstitutionAllowedType",
          "valueBoolean" : true
        }, {
          "url" : "https://gematik.de/fhir/erp/StructureDefinition/GEM_ERP_EX_PrescriptionType",
          "valueCoding" : {
            "system" : "https://gematik.de/fhir/erp/CodeSystem/GEM_ERP_CS_FlowType",
            "code" : "160",
            "display" : "Muster 16 (Apothekenpflichtige Arzneimittel)"
          }
        } ],
        "contentString" : "I think you ought to know I'm feeling very depressed."
      } ]
    },
    "search" : {
      "mode" : "match"
    }
  }, {
    "fullUrl" : "https://erp-test.zentral.erp.splitdns.ti-dienste.de/Communication/01ebb2e0-624c-9a90-2c19-3edf9233c98c",
    "resource" : {
      "resourceType" : "Communication",
      "id" : "01ebb2e0-624c-9a90-2c19-3edf9233c98c",
      "meta" : {
        "profile" : [ "https://gematik.de/fhir/erp/StructureDefinition/GEM_ERP_PR_Communication_InfoReq|1.2" ]
      },
      "contained" : [ {
        "resourceType" : "Medication",
        "id" : "6a77a8a2-3812-4b0f-a12a-9f3a062eec6e",
        "meta" : {
          "profile" : [ "https://fhir.kbv.de/StructureDefinition/KBV_PR_ERP_Medication_PZN|1.1.0" ]
        },
        "extension" : [ {
          "url" : "https://fhir.kbv.de/StructureDefinition/KBV_EX_Base_Medication_Type",
          "valueCodeableConcept" : {
            "coding" : [ {
              "system" : "http://snomed.info/sct",
              "version" : "http://snomed.info/sct/900000000000207008/version/20220331",
              "code" : "763158003",
              "display" : "Medicinal product (product)"
            } ]
          }
        }, {
          "url" : "https://fhir.kbv.de/StructureDefinition/KBV_EX_ERP_Medication_Category",
          "valueCoding" : {
            "system" : "https://fhir.kbv.de/CodeSystem/KBV_CS_ERP_Medication_Category",
            "code" : "00"
          }
        }, {
          "url" : "https://fhir.kbv.de/StructureDefinition/KBV_EX_ERP_Medication_Vaccine",
          "valueBoolean" : false
        }, {
          "url" : "http://fhir.de/StructureDefinition/normgroesse",
          "valueCode" : "NB"
        } ],
        "code" : {
          "coding" : [ {
            "system" : "http://fhir.de/CodeSystem/ifa/pzn",
            "code" : "12345678"
          } ],
          "text" : "Schmerzmittel"
        },
        "form" : {
          "coding" : [ {
            "system" : "https://fhir.kbv.de/CodeSystem/KBV_CS_SFHIR_KBV_DARREICHUNGSFORM",
            "code" : "TAB"
          } ]
        },
        "amount" : {
          "numerator" : {
            "extension" : [ {
              "url" : "https://fhir.kbv.de/StructureDefinition/KBV_EX_ERP_Medication_PackagingSize",
              "valueString" : "1"
            } ],
            "unit" : "Stk"
          },
          "denominator" : {
            "value" : 1
          }
        }
      } ],
      "basedOn" : [ {
        "reference" : "Task/160.000.006.403.443.93"
      } ],
      "status" : "unknown",
      "about" : [ {
        "reference" : "#6a77a8a2-3812-4b0f-a12a-9f3a062eec6e"
      } ],
      "sent" : "2023-10-31T12:45:56.538+00:00",
      "recipient" : [ {
        "identifier" : {
          "system" : "https://gematik.de/fhir/sid/telematik-id",
          "value" : "1-2-ARZT-BerndClaudius01"
        }
      } ],
      "sender" : {
        "identifier" : {
          "system" : "http://fhir.de/sid/gkv/kvid-10",
          "value" : "X110498565"
        }
      },
      "payload" : [ {
        "extension" : [ {
          "url" : "https://gematik.de/fhir/erp/StructureDefinition/GEM_ERP_EX_InsuranceProvider",
          "valueIdentifier" : {
            "system" : "http://fhir.de/sid/arge-ik/iknr",
            "value" : "104926494"
          }
        }, {
          "url" : "https://gematik.de/fhir/erp/StructureDefinition/GEM_ERP_EX_SubstitutionAllowedType",
          "valueBoolean" : true
        }, {
          "url" : "https://gematik.de/fhir/erp/StructureDefinition/GEM_ERP_EX_PrescriptionType",
          "valueCoding" : {
            "system" : "https://gematik.de/fhir/erp/CodeSystem/GEM_ERP_CS_FlowType",
            "code" : "160",
            "display" : "Muster 16 (Apothekenpflichtige Arzneimittel)"
          }
        } ],
        "contentString" : "And then of course I've got this terrible pain in all the diodes down my left side."
      } ]
    },
    "search" : {
      "mode" : "match"
    }
  }, {
    "fullUrl" : "https://erp-test.zentral.erp.splitdns.ti-dienste.de/Communication/01ebb2d2-82d6-ce60-e276-16b4625c6ec1",
    "resource" : {
      "resourceType" : "Communication",
      "id" : "01ebb2d2-82d6-ce60-e276-16b4625c6ec1",
      "meta" : {
        "profile" : [ "https://gematik.de/fhir/erp/StructureDefinition/GEM_ERP_PR_Communication_InfoReq|1.2" ]
      },
      "contained" : [ {
        "resourceType" : "Medication",
        "id" : "2e8432a0-0cf6-494d-801e-fa0f80a023b8",
        "meta" : {
          "profile" : [ "https://fhir.kbv.de/StructureDefinition/KBV_PR_ERP_Medication_PZN|1.1.0" ]
        },
        "extension" : [ {
          "url" : "https://fhir.kbv.de/StructureDefinition/KBV_EX_Base_Medication_Type",
          "valueCodeableConcept" : {
            "coding" : [ {
              "system" : "http://snomed.info/sct",
              "version" : "http://snomed.info/sct/900000000000207008/version/20220331",
              "code" : "763158003",
              "display" : "Medicinal product (product)"
            } ]
          }
        }, {
          "url" : "https://fhir.kbv.de/StructureDefinition/KBV_EX_ERP_Medication_Category",
          "valueCoding" : {
            "system" : "https://fhir.kbv.de/CodeSystem/KBV_CS_ERP_Medication_Category",
            "code" : "00"
          }
        }, {
          "url" : "https://fhir.kbv.de/StructureDefinition/KBV_EX_ERP_Medication_Vaccine",
          "valueBoolean" : false
        }, {
          "url" : "http://fhir.de/StructureDefinition/normgroesse",
          "valueCode" : "NB"
        } ],
        "code" : {
          "coding" : [ {
            "system" : "http://fhir.de/CodeSystem/ifa/pzn",
            "code" : "12345678"
          } ],
          "text" : "Schmerzmittel"
        },
        "form" : {
          "coding" : [ {
            "system" : "https://fhir.kbv.de/CodeSystem/KBV_CS_SFHIR_KBV_DARREICHUNGSFORM",
            "code" : "TAB"
          } ]
        },
        "amount" : {
          "numerator" : {
            "extension" : [ {
              "url" : "https://fhir.kbv.de/StructureDefinition/KBV_EX_ERP_Medication_PackagingSize",
              "valueString" : "1"
            } ],
            "unit" : "Stk"
          },
          "denominator" : {
            "value" : 1
          }
        }
      } ],
      "basedOn" : [ {
        "reference" : "Task/160.000.006.403.039.44"
      } ],
      "status" : "unknown",
      "about" : [ {
        "reference" : "#2e8432a0-0cf6-494d-801e-fa0f80a023b8"
      } ],
      "sent" : "2023-10-30T20:12:52.924+00:00",
      "recipient" : [ {
        "identifier" : {
          "system" : "https://gematik.de/fhir/sid/telematik-id",
          "value" : "1-2-ARZT-BerndClaudius01"
        }
      } ],
      "sender" : {
        "identifier" : {
          "system" : "http://fhir.de/sid/gkv/kvid-10",
          "value" : "X110498565"
        }
      },
      "payload" : [ {
        "extension" : [ {
          "url" : "https://gematik.de/fhir/erp/StructureDefinition/GEM_ERP_EX_InsuranceProvider",
          "valueIdentifier" : {
            "system" : "http://fhir.de/sid/arge-ik/iknr",
            "value" : "104212505"
          }
        }, {
          "url" : "https://gematik.de/fhir/erp/StructureDefinition/GEM_ERP_EX_SubstitutionAllowedType",
          "valueBoolean" : true
        }, {
          "url" : "https://gematik.de/fhir/erp/StructureDefinition/GEM_ERP_EX_PrescriptionType",
          "valueCoding" : {
            "system" : "https://gematik.de/fhir/erp/CodeSystem/GEM_ERP_CS_FlowType",
            "code" : "160",
            "display" : "Muster 16 (Apothekenpflichtige Arzneimittel)"
          }
        } ],
        "contentString" : "And then of course I've got this terrible pain in all the diodes down my left side."
      } ]
    },
    "search" : {
      "mode" : "match"
    }
  }, {
    "fullUrl" : "https://erp-test.zentral.erp.splitdns.ti-dienste.de/Communication/01ebb2be-5eb3-ef68-6a47-7f08603393d1",
    "resource" : {
      "resourceType" : "Communication",
      "id" : "01ebb2be-5eb3-ef68-6a47-7f08603393d1",
      "meta" : {
        "profile" : [ "https://gematik.de/fhir/erp/StructureDefinition/GEM_ERP_PR_Communication_InfoReq|1.2" ]
      },
      "contained" : [ {
        "resourceType" : "Medication",
        "id" : "85b9324e-fa13-40c5-8d83-204d71767b15",
        "meta" : {
          "profile" : [ "https://fhir.kbv.de/StructureDefinition/KBV_PR_ERP_Medication_PZN|1.1.0" ]
        },
        "extension" : [ {
          "url" : "https://fhir.kbv.de/StructureDefinition/KBV_EX_Base_Medication_Type",
          "valueCodeableConcept" : {
            "coding" : [ {
              "system" : "http://snomed.info/sct",
              "version" : "http://snomed.info/sct/900000000000207008/version/20220331",
              "code" : "763158003",
              "display" : "Medicinal product (product)"
            } ]
          }
        }, {
          "url" : "https://fhir.kbv.de/StructureDefinition/KBV_EX_ERP_Medication_Category",
          "valueCoding" : {
            "system" : "https://fhir.kbv.de/CodeSystem/KBV_CS_ERP_Medication_Category",
            "code" : "00"
          }
        }, {
          "url" : "https://fhir.kbv.de/StructureDefinition/KBV_EX_ERP_Medication_Vaccine",
          "valueBoolean" : false
        }, {
          "url" : "http://fhir.de/StructureDefinition/normgroesse",
          "valueCode" : "NB"
        } ],
        "code" : {
          "coding" : [ {
            "system" : "http://fhir.de/CodeSystem/ifa/pzn",
            "code" : "12345678"
          } ],
          "text" : "Schmerzmittel"
        },
        "form" : {
          "coding" : [ {
            "system" : "https://fhir.kbv.de/CodeSystem/KBV_CS_SFHIR_KBV_DARREICHUNGSFORM",
            "code" : "TAB"
          } ]
        },
        "amount" : {
          "numerator" : {
            "extension" : [ {
              "url" : "https://fhir.kbv.de/StructureDefinition/KBV_EX_ERP_Medication_PackagingSize",
              "valueString" : "1"
            } ],
            "unit" : "Stk"
          },
          "denominator" : {
            "value" : 1
          }
        }
      } ],
      "basedOn" : [ {
        "reference" : "Task/160.000.006.402.545.71"
      } ],
      "status" : "unknown",
      "about" : [ {
        "reference" : "#85b9324e-fa13-40c5-8d83-204d71767b15"
      } ],
      "sent" : "2023-10-29T20:11:07.313+00:00",
      "recipient" : [ {
        "identifier" : {
          "system" : "https://gematik.de/fhir/sid/telematik-id",
          "value" : "1-2-ARZT-BerndClaudius01"
        }
      } ],
      "sender" : {
        "identifier" : {
          "system" : "http://fhir.de/sid/gkv/kvid-10",
          "value" : "X110498565"
        }
      },
      "payload" : [ {
        "extension" : [ {
          "url" : "https://gematik.de/fhir/erp/StructureDefinition/GEM_ERP_EX_InsuranceProvider",
          "valueIdentifier" : {
            "system" : "http://fhir.de/sid/arge-ik/iknr",
            "value" : "101931440"
          }
        }, {
          "url" : "https://gematik.de/fhir/erp/StructureDefinition/GEM_ERP_EX_SubstitutionAllowedType",
          "valueBoolean" : true
        }, {
          "url" : "https://gematik.de/fhir/erp/StructureDefinition/GEM_ERP_EX_PrescriptionType",
          "valueCoding" : {
            "system" : "https://gematik.de/fhir/erp/CodeSystem/GEM_ERP_CS_FlowType",
            "code" : "160",
            "display" : "Muster 16 (Apothekenpflichtige Arzneimittel)"
          }
        } ],
        "contentString" : "I think you ought to know I'm feeling very depressed."
      } ]
    },
    "search" : {
      "mode" : "match"
    }
  }, {
    "fullUrl" : "https://erp-test.zentral.erp.splitdns.ti-dienste.de/Communication/01ebb2aa-431b-d4f0-a2be-976b8aec1d04",
    "resource" : {
      "resourceType" : "Communication",
      "id" : "01ebb2aa-431b-d4f0-a2be-976b8aec1d04",
      "meta" : {
        "profile" : [ "https://gematik.de/fhir/erp/StructureDefinition/GEM_ERP_PR_Communication_InfoReq|1.2" ]
      },
      "contained" : [ {
        "resourceType" : "Medication",
        "id" : "8d3fb4fa-785f-4cf0-ba96-e804b4def65e",
        "meta" : {
          "profile" : [ "https://fhir.kbv.de/StructureDefinition/KBV_PR_ERP_Medication_PZN|1.1.0" ]
        },
        "extension" : [ {
          "url" : "https://fhir.kbv.de/StructureDefinition/KBV_EX_Base_Medication_Type",
          "valueCodeableConcept" : {
            "coding" : [ {
              "system" : "http://snomed.info/sct",
              "version" : "http://snomed.info/sct/900000000000207008/version/20220331",
              "code" : "763158003",
              "display" : "Medicinal product (product)"
            } ]
          }
        }, {
          "url" : "https://fhir.kbv.de/StructureDefinition/KBV_EX_ERP_Medication_Category",
          "valueCoding" : {
            "system" : "https://fhir.kbv.de/CodeSystem/KBV_CS_ERP_Medication_Category",
            "code" : "00"
          }
        }, {
          "url" : "https://fhir.kbv.de/StructureDefinition/KBV_EX_ERP_Medication_Vaccine",
          "valueBoolean" : false
        }, {
          "url" : "http://fhir.de/StructureDefinition/normgroesse",
          "valueCode" : "NB"
        } ],
        "code" : {
          "coding" : [ {
            "system" : "http://fhir.de/CodeSystem/ifa/pzn",
            "code" : "12345678"
          } ],
          "text" : "Schmerzmittel"
        },
        "form" : {
          "coding" : [ {
            "system" : "https://fhir.kbv.de/CodeSystem/KBV_CS_SFHIR_KBV_DARREICHUNGSFORM",
            "code" : "TAB"
          } ]
        },
        "amount" : {
          "numerator" : {
            "extension" : [ {
              "url" : "https://fhir.kbv.de/StructureDefinition/KBV_EX_ERP_Medication_PackagingSize",
              "valueString" : "1"
            } ],
            "unit" : "Stk"
          },
          "denominator" : {
            "value" : 1
          }
        }
      } ],
      "basedOn" : [ {
        "reference" : "Task/160.000.006.402.150.92"
      } ],
      "status" : "unknown",
      "about" : [ {
        "reference" : "#8d3fb4fa-785f-4cf0-ba96-e804b4def65e"
      } ],
      "sent" : "2023-10-28T20:11:45.014+00:00",
      "recipient" : [ {
        "identifier" : {
          "system" : "https://gematik.de/fhir/sid/telematik-id",
          "value" : "1-2-ARZT-BerndClaudius01"
        }
      } ],
      "sender" : {
        "identifier" : {
          "system" : "http://fhir.de/sid/gkv/kvid-10",
          "value" : "X110498565"
        }
      },
      "payload" : [ {
        "extension" : [ {
          "url" : "https://gematik.de/fhir/erp/StructureDefinition/GEM_ERP_EX_InsuranceProvider",
          "valueIdentifier" : {
            "system" : "http://fhir.de/sid/arge-ik/iknr",
            "value" : "104239915"
          }
        }, {
          "url" : "https://gematik.de/fhir/erp/StructureDefinition/GEM_ERP_EX_SubstitutionAllowedType",
          "valueBoolean" : true
        }, {
          "url" : "https://gematik.de/fhir/erp/StructureDefinition/GEM_ERP_EX_PrescriptionType",
          "valueCoding" : {
            "system" : "https://gematik.de/fhir/erp/CodeSystem/GEM_ERP_CS_FlowType",
            "code" : "160",
            "display" : "Muster 16 (Apothekenpflichtige Arzneimittel)"
          }
        } ],
        "contentString" : "And then of course I've got this terrible pain in all the diodes down my left side."
      } ]
    },
    "search" : {
      "mode" : "match"
    }
  }, {
    "fullUrl" : "https://erp-test.zentral.erp.splitdns.ti-dienste.de/Communication/01ebb296-3652-c260-5117-2f18f4cf532e",
    "resource" : {
      "resourceType" : "Communication",
      "id" : "01ebb296-3652-c260-5117-2f18f4cf532e",
      "meta" : {
        "profile" : [ "https://gematik.de/fhir/erp/StructureDefinition/GEM_ERP_PR_Communication_InfoReq|1.2" ]
      },
      "contained" : [ {
        "resourceType" : "Medication",
        "id" : "e8c3285a-072d-4845-aa95-4d7cd816b16b",
        "meta" : {
          "profile" : [ "https://fhir.kbv.de/StructureDefinition/KBV_PR_ERP_Medication_PZN|1.1.0" ]
        },
        "extension" : [ {
          "url" : "https://fhir.kbv.de/StructureDefinition/KBV_EX_Base_Medication_Type",
          "valueCodeableConcept" : {
            "coding" : [ {
              "system" : "http://snomed.info/sct",
              "version" : "http://snomed.info/sct/900000000000207008/version/20220331",
              "code" : "763158003",
              "display" : "Medicinal product (product)"
            } ]
          }
        }, {
          "url" : "https://fhir.kbv.de/StructureDefinition/KBV_EX_ERP_Medication_Category",
          "valueCoding" : {
            "system" : "https://fhir.kbv.de/CodeSystem/KBV_CS_ERP_Medication_Category",
            "code" : "00"
          }
        }, {
          "url" : "https://fhir.kbv.de/StructureDefinition/KBV_EX_ERP_Medication_Vaccine",
          "valueBoolean" : false
        }, {
          "url" : "http://fhir.de/StructureDefinition/normgroesse",
          "valueCode" : "NB"
        } ],
        "code" : {
          "coding" : [ {
            "system" : "http://fhir.de/CodeSystem/ifa/pzn",
            "code" : "12345678"
          } ],
          "text" : "Schmerzmittel"
        },
        "form" : {
          "coding" : [ {
            "system" : "https://fhir.kbv.de/CodeSystem/KBV_CS_SFHIR_KBV_DARREICHUNGSFORM",
            "code" : "TAB"
          } ]
        },
        "amount" : {
          "numerator" : {
            "extension" : [ {
              "url" : "https://fhir.kbv.de/StructureDefinition/KBV_EX_ERP_Medication_PackagingSize",
              "valueString" : "1"
            } ],
            "unit" : "Stk"
          },
          "denominator" : {
            "value" : 1
          }
        }
      } ],
      "basedOn" : [ {
        "reference" : "Task/160.000.006.401.755.16"
      } ],
      "status" : "unknown",
      "about" : [ {
        "reference" : "#e8c3285a-072d-4845-aa95-4d7cd816b16b"
      } ],
      "sent" : "2023-10-27T20:16:31.164+00:00",
      "recipient" : [ {
        "identifier" : {
          "system" : "https://gematik.de/fhir/sid/telematik-id",
          "value" : "1-2-ARZT-BerndClaudius01"
        }
      } ],
      "sender" : {
        "identifier" : {
          "system" : "http://fhir.de/sid/gkv/kvid-10",
          "value" : "X110498565"
        }
      },
      "payload" : [ {
        "extension" : [ {
          "url" : "https://gematik.de/fhir/erp/StructureDefinition/GEM_ERP_EX_InsuranceProvider",
          "valueIdentifier" : {
            "system" : "http://fhir.de/sid/arge-ik/iknr",
            "value" : "104626889"
          }
        }, {
          "url" : "https://gematik.de/fhir/erp/StructureDefinition/GEM_ERP_EX_SubstitutionAllowedType",
          "valueBoolean" : true
        }, {
          "url" : "https://gematik.de/fhir/erp/StructureDefinition/GEM_ERP_EX_PrescriptionType",
          "valueCoding" : {
            "system" : "https://gematik.de/fhir/erp/CodeSystem/GEM_ERP_CS_FlowType",
            "code" : "160",
            "display" : "Muster 16 (Apothekenpflichtige Arzneimittel)"
          }
        } ],
        "contentString" : "Here I am, brain the size of a planet, and they tell me to take you up to the bridge. Call that job satisfaction? 'Cos I don't."
      } ]
    },
    "search" : {
      "mode" : "match"
    }
  }, {
    "fullUrl" : "https://erp-test.zentral.erp.splitdns.ti-dienste.de/Communication/01ebb28f-52fa-a6f0-70d9-3e3afa905eda",
    "resource" : {
      "resourceType" : "Communication",
      "id" : "01ebb28f-52fa-a6f0-70d9-3e3afa905eda",
      "meta" : {
        "profile" : [ "https://gematik.de/fhir/erp/StructureDefinition/GEM_ERP_PR_Communication_InfoReq|1.2" ]
      },
      "contained" : [ {
        "resourceType" : "Medication",
        "id" : "39c56734-1b40-415d-9296-b5ae9e8955a6",
        "meta" : {
          "profile" : [ "https://fhir.kbv.de/StructureDefinition/KBV_PR_ERP_Medication_PZN|1.1.0" ]
        },
        "extension" : [ {
          "url" : "https://fhir.kbv.de/StructureDefinition/KBV_EX_Base_Medication_Type",
          "valueCodeableConcept" : {
            "coding" : [ {
              "system" : "http://snomed.info/sct",
              "version" : "http://snomed.info/sct/900000000000207008/version/20220331",
              "code" : "763158003",
              "display" : "Medicinal product (product)"
            } ]
          }
        }, {
          "url" : "https://fhir.kbv.de/StructureDefinition/KBV_EX_ERP_Medication_Category",
          "valueCoding" : {
            "system" : "https://fhir.kbv.de/CodeSystem/KBV_CS_ERP_Medication_Category",
            "code" : "00"
          }
        }, {
          "url" : "https://fhir.kbv.de/StructureDefinition/KBV_EX_ERP_Medication_Vaccine",
          "valueBoolean" : false
        }, {
          "url" : "http://fhir.de/StructureDefinition/normgroesse",
          "valueCode" : "NB"
        } ],
        "code" : {
          "coding" : [ {
            "system" : "http://fhir.de/CodeSystem/ifa/pzn",
            "code" : "12345678"
          } ],
          "text" : "Schmerzmittel"
        },
        "form" : {
          "coding" : [ {
            "system" : "https://fhir.kbv.de/CodeSystem/KBV_CS_SFHIR_KBV_DARREICHUNGSFORM",
            "code" : "TAB"
          } ]
        },
        "amount" : {
          "numerator" : {
            "extension" : [ {
              "url" : "https://fhir.kbv.de/StructureDefinition/KBV_EX_ERP_Medication_PackagingSize",
              "valueString" : "1"
            } ],
            "unit" : "Stk"
          },
          "denominator" : {
            "value" : 1
          }
        }
      } ],
      "basedOn" : [ {
        "reference" : "Task/160.000.006.401.166.37"
      } ],
      "status" : "unknown",
      "about" : [ {
        "reference" : "#39c56734-1b40-415d-9296-b5ae9e8955a6"
      } ],
      "sent" : "2023-10-27T12:03:27.158+00:00",
      "recipient" : [ {
        "identifier" : {
          "system" : "https://gematik.de/fhir/sid/telematik-id",
          "value" : "1-2-ARZT-BerndClaudius01"
        }
      } ],
      "sender" : {
        "identifier" : {
          "system" : "http://fhir.de/sid/gkv/kvid-10",
          "value" : "X110498565"
        }
      },
      "payload" : [ {
        "extension" : [ {
          "url" : "https://gematik.de/fhir/erp/StructureDefinition/GEM_ERP_EX_InsuranceProvider",
          "valueIdentifier" : {
            "system" : "http://fhir.de/sid/arge-ik/iknr",
            "value" : "107829563"
          }
        }, {
          "url" : "https://gematik.de/fhir/erp/StructureDefinition/GEM_ERP_EX_SubstitutionAllowedType",
          "valueBoolean" : true
        }, {
          "url" : "https://gematik.de/fhir/erp/StructureDefinition/GEM_ERP_EX_PrescriptionType",
          "valueCoding" : {
            "system" : "https://gematik.de/fhir/erp/CodeSystem/GEM_ERP_CS_FlowType",
            "code" : "160",
            "display" : "Muster 16 (Apothekenpflichtige Arzneimittel)"
          }
        } ],
        "contentString" : "Life? Don't talk to me about life."
      } ]
    },
    "search" : {
      "mode" : "match"
    }
  }, {
    "fullUrl" : "https://erp-test.zentral.erp.splitdns.ti-dienste.de/Communication/01ebb26d-f38b-0dc0-4d03-80093c7abf16",
    "resource" : {
      "resourceType" : "Communication",
      "id" : "01ebb26d-f38b-0dc0-4d03-80093c7abf16",
      "meta" : {
        "profile" : [ "https://gematik.de/fhir/erp/StructureDefinition/GEM_ERP_PR_Communication_InfoReq|1.2" ]
      },
      "contained" : [ {
        "resourceType" : "Medication",
        "id" : "30851606-c935-4b0e-bb92-52387eb2df01",
        "meta" : {
          "profile" : [ "https://fhir.kbv.de/StructureDefinition/KBV_PR_ERP_Medication_PZN|1.1.0" ]
        },
        "extension" : [ {
          "url" : "https://fhir.kbv.de/StructureDefinition/KBV_EX_Base_Medication_Type",
          "valueCodeableConcept" : {
            "coding" : [ {
              "system" : "http://snomed.info/sct",
              "version" : "http://snomed.info/sct/900000000000207008/version/20220331",
              "code" : "763158003",
              "display" : "Medicinal product (product)"
            } ]
          }
        }, {
          "url" : "https://fhir.kbv.de/StructureDefinition/KBV_EX_ERP_Medication_Category",
          "valueCoding" : {
            "system" : "https://fhir.kbv.de/CodeSystem/KBV_CS_ERP_Medication_Category",
            "code" : "00"
          }
        }, {
          "url" : "https://fhir.kbv.de/StructureDefinition/KBV_EX_ERP_Medication_Vaccine",
          "valueBoolean" : false
        }, {
          "url" : "http://fhir.de/StructureDefinition/normgroesse",
          "valueCode" : "NB"
        } ],
        "code" : {
          "coding" : [ {
            "system" : "http://fhir.de/CodeSystem/ifa/pzn",
            "code" : "12345678"
          } ],
          "text" : "Schmerzmittel"
        },
        "form" : {
          "coding" : [ {
            "system" : "https://fhir.kbv.de/CodeSystem/KBV_CS_SFHIR_KBV_DARREICHUNGSFORM",
            "code" : "TAB"
          } ]
        },
        "amount" : {
          "numerator" : {
            "extension" : [ {
              "url" : "https://fhir.kbv.de/StructureDefinition/KBV_EX_ERP_Medication_PackagingSize",
              "valueString" : "1"
            } ],
            "unit" : "Stk"
          },
          "denominator" : {
            "value" : 1
          }
        }
      } ],
      "basedOn" : [ {
        "reference" : "Task/160.000.006.400.492.22"
      } ],
      "status" : "unknown",
      "about" : [ {
        "reference" : "#30851606-c935-4b0e-bb92-52387eb2df01"
      } ],
      "sent" : "2023-10-25T20:14:32.088+00:00",
      "recipient" : [ {
        "identifier" : {
          "system" : "https://gematik.de/fhir/sid/telematik-id",
          "value" : "1-2-ARZT-BerndClaudius01"
        }
      } ],
      "sender" : {
        "identifier" : {
          "system" : "http://fhir.de/sid/gkv/kvid-10",
          "value" : "X110498565"
        }
      },
      "payload" : [ {
        "extension" : [ {
          "url" : "https://gematik.de/fhir/erp/StructureDefinition/GEM_ERP_EX_InsuranceProvider",
          "valueIdentifier" : {
            "system" : "http://fhir.de/sid/arge-ik/iknr",
            "value" : "105330168"
          }
        }, {
          "url" : "https://gematik.de/fhir/erp/StructureDefinition/GEM_ERP_EX_SubstitutionAllowedType",
          "valueBoolean" : true
        }, {
          "url" : "https://gematik.de/fhir/erp/StructureDefinition/GEM_ERP_EX_PrescriptionType",
          "valueCoding" : {
            "system" : "https://gematik.de/fhir/erp/CodeSystem/GEM_ERP_CS_FlowType",
            "code" : "160",
            "display" : "Muster 16 (Apothekenpflichtige Arzneimittel)"
          }
        } ],
        "contentString" : "I wish you'd just tell me rather trying to engage my enthusiasm, because I haven't got one."
      } ]
    },
    "search" : {
      "mode" : "match"
    }
  }, {
    "fullUrl" : "https://erp-test.zentral.erp.splitdns.ti-dienste.de/Communication/01ebb259-cbb4-3718-21f0-d63640eb9161",
    "resource" : {
      "resourceType" : "Communication",
      "id" : "01ebb259-cbb4-3718-21f0-d63640eb9161",
      "meta" : {
        "profile" : [ "https://gematik.de/fhir/erp/StructureDefinition/GEM_ERP_PR_Communication_InfoReq|1.2" ]
      },
      "contained" : [ {
        "resourceType" : "Medication",
        "id" : "6356a4e1-d5a4-407b-94c4-5962c3a73d9f",
        "meta" : {
          "profile" : [ "https://fhir.kbv.de/StructureDefinition/KBV_PR_ERP_Medication_PZN|1.1.0" ]
        },
        "extension" : [ {
          "url" : "https://fhir.kbv.de/StructureDefinition/KBV_EX_Base_Medication_Type",
          "valueCodeableConcept" : {
            "coding" : [ {
              "system" : "http://snomed.info/sct",
              "version" : "http://snomed.info/sct/900000000000207008/version/20220331",
              "code" : "763158003",
              "display" : "Medicinal product (product)"
            } ]
          }
        }, {
          "url" : "https://fhir.kbv.de/StructureDefinition/KBV_EX_ERP_Medication_Category",
          "valueCoding" : {
            "system" : "https://fhir.kbv.de/CodeSystem/KBV_CS_ERP_Medication_Category",
            "code" : "00"
          }
        }, {
          "url" : "https://fhir.kbv.de/StructureDefinition/KBV_EX_ERP_Medication_Vaccine",
          "valueBoolean" : false
        }, {
          "url" : "http://fhir.de/StructureDefinition/normgroesse",
          "valueCode" : "NB"
        } ],
        "code" : {
          "coding" : [ {
            "system" : "http://fhir.de/CodeSystem/ifa/pzn",
            "code" : "12345678"
          } ],
          "text" : "Schmerzmittel"
        },
        "form" : {
          "coding" : [ {
            "system" : "https://fhir.kbv.de/CodeSystem/KBV_CS_SFHIR_KBV_DARREICHUNGSFORM",
            "code" : "TAB"
          } ]
        },
        "amount" : {
          "numerator" : {
            "extension" : [ {
              "url" : "https://fhir.kbv.de/StructureDefinition/KBV_EX_ERP_Medication_PackagingSize",
              "valueString" : "1"
            } ],
            "unit" : "Stk"
          },
          "denominator" : {
            "value" : 1
          }
        }
      } ],
      "basedOn" : [ {
        "reference" : "Task/160.000.006.400.100.34"
      } ],
      "status" : "unknown",
      "about" : [ {
        "reference" : "#6356a4e1-d5a4-407b-94c4-5962c3a73d9f"
      } ],
      "sent" : "2023-10-24T20:11:44.351+00:00",
      "recipient" : [ {
        "identifier" : {
          "system" : "https://gematik.de/fhir/sid/telematik-id",
          "value" : "1-2-ARZT-BerndClaudius01"
        }
      } ],
      "sender" : {
        "identifier" : {
          "system" : "http://fhir.de/sid/gkv/kvid-10",
          "value" : "X110498565"
        }
      },
      "payload" : [ {
        "extension" : [ {
          "url" : "https://gematik.de/fhir/erp/StructureDefinition/GEM_ERP_EX_InsuranceProvider",
          "valueIdentifier" : {
            "system" : "http://fhir.de/sid/arge-ik/iknr",
            "value" : "100602360"
          }
        }, {
          "url" : "https://gematik.de/fhir/erp/StructureDefinition/GEM_ERP_EX_SubstitutionAllowedType",
          "valueBoolean" : true
        }, {
          "url" : "https://gematik.de/fhir/erp/StructureDefinition/GEM_ERP_EX_PrescriptionType",
          "valueCoding" : {
            "system" : "https://gematik.de/fhir/erp/CodeSystem/GEM_ERP_CS_FlowType",
            "code" : "160",
            "display" : "Muster 16 (Apothekenpflichtige Arzneimittel)"
          }
        } ],
        "contentString" : "Life? Don't talk to me about life."
      } ]
    },
    "search" : {
      "mode" : "match"
    }
  }, {
    "fullUrl" : "https://erp-test.zentral.erp.splitdns.ti-dienste.de/Communication/01ebb245-89e4-6ba0-da9f-7d12c28ecd47",
    "resource" : {
      "resourceType" : "Communication",
      "id" : "01ebb245-89e4-6ba0-da9f-7d12c28ecd47",
      "meta" : {
        "profile" : [ "https://gematik.de/fhir/erp/StructureDefinition/GEM_ERP_PR_Communication_InfoReq|1.2" ]
      },
      "contained" : [ {
        "resourceType" : "Medication",
        "id" : "e8174c0f-9eb6-4c68-8e7c-7c25bf06902a",
        "meta" : {
          "profile" : [ "https://fhir.kbv.de/StructureDefinition/KBV_PR_ERP_Medication_PZN|1.1.0" ]
        },
        "extension" : [ {
          "url" : "https://fhir.kbv.de/StructureDefinition/KBV_EX_Base_Medication_Type",
          "valueCodeableConcept" : {
            "coding" : [ {
              "system" : "http://snomed.info/sct",
              "version" : "http://snomed.info/sct/900000000000207008/version/20220331",
              "code" : "763158003",
              "display" : "Medicinal product (product)"
            } ]
          }
        }, {
          "url" : "https://fhir.kbv.de/StructureDefinition/KBV_EX_ERP_Medication_Category",
          "valueCoding" : {
            "system" : "https://fhir.kbv.de/CodeSystem/KBV_CS_ERP_Medication_Category",
            "code" : "00"
          }
        }, {
          "url" : "https://fhir.kbv.de/StructureDefinition/KBV_EX_ERP_Medication_Vaccine",
          "valueBoolean" : false
        }, {
          "url" : "http://fhir.de/StructureDefinition/normgroesse",
          "valueCode" : "NB"
        } ],
        "code" : {
          "coding" : [ {
            "system" : "http://fhir.de/CodeSystem/ifa/pzn",
            "code" : "12345678"
          } ],
          "text" : "Schmerzmittel"
        },
        "form" : {
          "coding" : [ {
            "system" : "https://fhir.kbv.de/CodeSystem/KBV_CS_SFHIR_KBV_DARREICHUNGSFORM",
            "code" : "TAB"
          } ]
        },
        "amount" : {
          "numerator" : {
            "extension" : [ {
              "url" : "https://fhir.kbv.de/StructureDefinition/KBV_EX_ERP_Medication_PackagingSize",
              "valueString" : "1"
            } ],
            "unit" : "Stk"
          },
          "denominator" : {
            "value" : 1
          }
        }
      } ],
      "basedOn" : [ {
        "reference" : "Task/160.000.006.399.704.58"
      } ],
      "status" : "unknown",
      "about" : [ {
        "reference" : "#e8174c0f-9eb6-4c68-8e7c-7c25bf06902a"
      } ],
      "sent" : "2023-10-23T20:01:40.868+00:00",
      "recipient" : [ {
        "identifier" : {
          "system" : "https://gematik.de/fhir/sid/telematik-id",
          "value" : "1-2-ARZT-BerndClaudius01"
        }
      } ],
      "sender" : {
        "identifier" : {
          "system" : "http://fhir.de/sid/gkv/kvid-10",
          "value" : "X110498565"
        }
      },
      "payload" : [ {
        "extension" : [ {
          "url" : "https://gematik.de/fhir/erp/StructureDefinition/GEM_ERP_EX_InsuranceProvider",
          "valueIdentifier" : {
            "system" : "http://fhir.de/sid/arge-ik/iknr",
            "value" : "101520078"
          }
        }, {
          "url" : "https://gematik.de/fhir/erp/StructureDefinition/GEM_ERP_EX_SubstitutionAllowedType",
          "valueBoolean" : true
        }, {
          "url" : "https://gematik.de/fhir/erp/StructureDefinition/GEM_ERP_EX_PrescriptionType",
          "valueCoding" : {
            "system" : "https://gematik.de/fhir/erp/CodeSystem/GEM_ERP_CS_FlowType",
            "code" : "160",
            "display" : "Muster 16 (Apothekenpflichtige Arzneimittel)"
          }
        } ],
        "contentString" : "I think you ought to know I'm feeling very depressed."
      } ]
    },
    "search" : {
      "mode" : "match"
    }
  }, {
    "fullUrl" : "https://erp-test.zentral.erp.splitdns.ti-dienste.de/Communication/01ebb231-9619-d0e0-16f7-c8064b9d8c41",
    "resource" : {
      "resourceType" : "Communication",
      "id" : "01ebb231-9619-d0e0-16f7-c8064b9d8c41",
      "meta" : {
        "profile" : [ "https://gematik.de/fhir/erp/StructureDefinition/GEM_ERP_PR_Communication_InfoReq|1.2" ]
      },
      "contained" : [ {
        "resourceType" : "Medication",
        "id" : "8f9b9434-3266-49f4-9123-5e2c89475efe",
        "meta" : {
          "profile" : [ "https://fhir.kbv.de/StructureDefinition/KBV_PR_ERP_Medication_PZN|1.1.0" ]
        },
        "extension" : [ {
          "url" : "https://fhir.kbv.de/StructureDefinition/KBV_EX_Base_Medication_Type",
          "valueCodeableConcept" : {
            "coding" : [ {
              "system" : "http://snomed.info/sct",
              "version" : "http://snomed.info/sct/900000000000207008/version/20220331",
              "code" : "763158003",
              "display" : "Medicinal product (product)"
            } ]
          }
        }, {
          "url" : "https://fhir.kbv.de/StructureDefinition/KBV_EX_ERP_Medication_Category",
          "valueCoding" : {
            "system" : "https://fhir.kbv.de/CodeSystem/KBV_CS_ERP_Medication_Category",
            "code" : "00"
          }
        }, {
          "url" : "https://fhir.kbv.de/StructureDefinition/KBV_EX_ERP_Medication_Vaccine",
          "valueBoolean" : false
        }, {
          "url" : "http://fhir.de/StructureDefinition/normgroesse",
          "valueCode" : "NB"
        } ],
        "code" : {
          "coding" : [ {
            "system" : "http://fhir.de/CodeSystem/ifa/pzn",
            "code" : "12345678"
          } ],
          "text" : "Schmerzmittel"
        },
        "form" : {
          "coding" : [ {
            "system" : "https://fhir.kbv.de/CodeSystem/KBV_CS_SFHIR_KBV_DARREICHUNGSFORM",
            "code" : "TAB"
          } ]
        },
        "amount" : {
          "numerator" : {
            "extension" : [ {
              "url" : "https://fhir.kbv.de/StructureDefinition/KBV_EX_ERP_Medication_PackagingSize",
              "valueString" : "1"
            } ],
            "unit" : "Stk"
          },
          "denominator" : {
            "value" : 1
          }
        }
      } ],
      "basedOn" : [ {
        "reference" : "Task/160.000.006.399.308.82"
      } ],
      "status" : "unknown",
      "about" : [ {
        "reference" : "#8f9b9434-3266-49f4-9123-5e2c89475efe"
      } ],
      "sent" : "2023-10-22T20:13:26.348+00:00",
      "recipient" : [ {
        "identifier" : {
          "system" : "https://gematik.de/fhir/sid/telematik-id",
          "value" : "1-2-ARZT-BerndClaudius01"
        }
      } ],
      "sender" : {
        "identifier" : {
          "system" : "http://fhir.de/sid/gkv/kvid-10",
          "value" : "X110498565"
        }
      },
      "payload" : [ {
        "extension" : [ {
          "url" : "https://gematik.de/fhir/erp/StructureDefinition/GEM_ERP_EX_InsuranceProvider",
          "valueIdentifier" : {
            "system" : "http://fhir.de/sid/arge-ik/iknr",
            "value" : "105230076"
          }
        }, {
          "url" : "https://gematik.de/fhir/erp/StructureDefinition/GEM_ERP_EX_SubstitutionAllowedType",
          "valueBoolean" : true
        }, {
          "url" : "https://gematik.de/fhir/erp/StructureDefinition/GEM_ERP_EX_PrescriptionType",
          "valueCoding" : {
            "system" : "https://gematik.de/fhir/erp/CodeSystem/GEM_ERP_CS_FlowType",
            "code" : "160",
            "display" : "Muster 16 (Apothekenpflichtige Arzneimittel)"
          }
        } ],
        "contentString" : "I wish you'd just tell me rather trying to engage my enthusiasm, because I haven't got one."
      } ]
    },
    "search" : {
      "mode" : "match"
    }
  }, {
    "fullUrl" : "https://erp-test.zentral.erp.splitdns.ti-dienste.de/Communication/01ebb21d-746e-4ed0-4b31-dd838c875060",
    "resource" : {
      "resourceType" : "Communication",
      "id" : "01ebb21d-746e-4ed0-4b31-dd838c875060",
      "meta" : {
        "profile" : [ "https://gematik.de/fhir/erp/StructureDefinition/GEM_ERP_PR_Communication_InfoReq|1.2" ]
      },
      "contained" : [ {
        "resourceType" : "Medication",
        "id" : "fa18c7d3-3e11-449d-9685-59cc59a3ee16",
        "meta" : {
          "profile" : [ "https://fhir.kbv.de/StructureDefinition/KBV_PR_ERP_Medication_PZN|1.1.0" ]
        },
        "extension" : [ {
          "url" : "https://fhir.kbv.de/StructureDefinition/KBV_EX_Base_Medication_Type",
          "valueCodeableConcept" : {
            "coding" : [ {
              "system" : "http://snomed.info/sct",
              "version" : "http://snomed.info/sct/900000000000207008/version/20220331",
              "code" : "763158003",
              "display" : "Medicinal product (product)"
            } ]
          }
        }, {
          "url" : "https://fhir.kbv.de/StructureDefinition/KBV_EX_ERP_Medication_Category",
          "valueCoding" : {
            "system" : "https://fhir.kbv.de/CodeSystem/KBV_CS_ERP_Medication_Category",
            "code" : "00"
          }
        }, {
          "url" : "https://fhir.kbv.de/StructureDefinition/KBV_EX_ERP_Medication_Vaccine",
          "valueBoolean" : false
        }, {
          "url" : "http://fhir.de/StructureDefinition/normgroesse",
          "valueCode" : "NB"
        } ],
        "code" : {
          "coding" : [ {
            "system" : "http://fhir.de/CodeSystem/ifa/pzn",
            "code" : "12345678"
          } ],
          "text" : "Schmerzmittel"
        },
        "form" : {
          "coding" : [ {
            "system" : "https://fhir.kbv.de/CodeSystem/KBV_CS_SFHIR_KBV_DARREICHUNGSFORM",
            "code" : "TAB"
          } ]
        },
        "amount" : {
          "numerator" : {
            "extension" : [ {
              "url" : "https://fhir.kbv.de/StructureDefinition/KBV_EX_ERP_Medication_PackagingSize",
              "valueString" : "1"
            } ],
            "unit" : "Stk"
          },
          "denominator" : {
            "value" : 1
          }
        }
      } ],
      "basedOn" : [ {
        "reference" : "Task/160.000.006.398.914.03"
      } ],
      "status" : "unknown",
      "about" : [ {
        "reference" : "#fa18c7d3-3e11-449d-9685-59cc59a3ee16"
      } ],
      "sent" : "2023-10-21T20:12:22.114+00:00",
      "recipient" : [ {
        "identifier" : {
          "system" : "https://gematik.de/fhir/sid/telematik-id",
          "value" : "1-2-ARZT-BerndClaudius01"
        }
      } ],
      "sender" : {
        "identifier" : {
          "system" : "http://fhir.de/sid/gkv/kvid-10",
          "value" : "X110498565"
        }
      },
      "payload" : [ {
        "extension" : [ {
          "url" : "https://gematik.de/fhir/erp/StructureDefinition/GEM_ERP_EX_InsuranceProvider",
          "valueIdentifier" : {
            "system" : "http://fhir.de/sid/arge-ik/iknr",
            "value" : "108036577"
          }
        }, {
          "url" : "https://gematik.de/fhir/erp/StructureDefinition/GEM_ERP_EX_SubstitutionAllowedType",
          "valueBoolean" : true
        }, {
          "url" : "https://gematik.de/fhir/erp/StructureDefinition/GEM_ERP_EX_PrescriptionType",
          "valueCoding" : {
            "system" : "https://gematik.de/fhir/erp/CodeSystem/GEM_ERP_CS_FlowType",
            "code" : "160",
            "display" : "Muster 16 (Apothekenpflichtige Arzneimittel)"
          }
        } ],
        "contentString" : "There's only one life-form as intelligent as me within thirty parsecs of here and that's me."
      } ]
    },
    "search" : {
      "mode" : "match"
    }
  }, {
    "fullUrl" : "https://erp-test.zentral.erp.splitdns.ti-dienste.de/Communication/01ebb209-5d15-35c8-027e-1cb2aefdb709",
    "resource" : {
      "resourceType" : "Communication",
      "id" : "01ebb209-5d15-35c8-027e-1cb2aefdb709",
      "meta" : {
        "profile" : [ "https://gematik.de/fhir/erp/StructureDefinition/GEM_ERP_PR_Communication_InfoReq|1.2" ]
      },
      "contained" : [ {
        "resourceType" : "Medication",
        "id" : "b7e20567-b16d-431d-9e0a-9a05ec575c94",
        "meta" : {
          "profile" : [ "https://fhir.kbv.de/StructureDefinition/KBV_PR_ERP_Medication_PZN|1.1.0" ]
        },
        "extension" : [ {
          "url" : "https://fhir.kbv.de/StructureDefinition/KBV_EX_Base_Medication_Type",
          "valueCodeableConcept" : {
            "coding" : [ {
              "system" : "http://snomed.info/sct",
              "version" : "http://snomed.info/sct/900000000000207008/version/20220331",
              "code" : "763158003",
              "display" : "Medicinal product (product)"
            } ]
          }
        }, {
          "url" : "https://fhir.kbv.de/StructureDefinition/KBV_EX_ERP_Medication_Category",
          "valueCoding" : {
            "system" : "https://fhir.kbv.de/CodeSystem/KBV_CS_ERP_Medication_Category",
            "code" : "00"
          }
        }, {
          "url" : "https://fhir.kbv.de/StructureDefinition/KBV_EX_ERP_Medication_Vaccine",
          "valueBoolean" : false
        }, {
          "url" : "http://fhir.de/StructureDefinition/normgroesse",
          "valueCode" : "NB"
        } ],
        "code" : {
          "coding" : [ {
            "system" : "http://fhir.de/CodeSystem/ifa/pzn",
            "code" : "12345678"
          } ],
          "text" : "Schmerzmittel"
        },
        "form" : {
          "coding" : [ {
            "system" : "https://fhir.kbv.de/CodeSystem/KBV_CS_SFHIR_KBV_DARREICHUNGSFORM",
            "code" : "TAB"
          } ]
        },
        "amount" : {
          "numerator" : {
            "extension" : [ {
              "url" : "https://fhir.kbv.de/StructureDefinition/KBV_EX_ERP_Medication_PackagingSize",
              "valueString" : "1"
            } ],
            "unit" : "Stk"
          },
          "denominator" : {
            "value" : 1
          }
        }
      } ],
      "basedOn" : [ {
        "reference" : "Task/160.000.006.398.522.15"
      } ],
      "status" : "unknown",
      "about" : [ {
        "reference" : "#b7e20567-b16d-431d-9e0a-9a05ec575c94"
      } ],
      "sent" : "2023-10-20T20:14:11.053+00:00",
      "recipient" : [ {
        "identifier" : {
          "system" : "https://gematik.de/fhir/sid/telematik-id",
          "value" : "1-2-ARZT-BerndClaudius01"
        }
      } ],
      "sender" : {
        "identifier" : {
          "system" : "http://fhir.de/sid/gkv/kvid-10",
          "value" : "X110498565"
        }
      },
      "payload" : [ {
        "extension" : [ {
          "url" : "https://gematik.de/fhir/erp/StructureDefinition/GEM_ERP_EX_InsuranceProvider",
          "valueIdentifier" : {
            "system" : "http://fhir.de/sid/arge-ik/iknr",
            "value" : "105330168"
          }
        }, {
          "url" : "https://gematik.de/fhir/erp/StructureDefinition/GEM_ERP_EX_SubstitutionAllowedType",
          "valueBoolean" : true
        }, {
          "url" : "https://gematik.de/fhir/erp/StructureDefinition/GEM_ERP_EX_PrescriptionType",
          "valueCoding" : {
            "system" : "https://gematik.de/fhir/erp/CodeSystem/GEM_ERP_CS_FlowType",
            "code" : "160",
            "display" : "Muster 16 (Apothekenpflichtige Arzneimittel)"
          }
        } ],
        "contentString" : "I won't enjoy it."
      } ]
    },
    "search" : {
      "mode" : "match"
    }
  }, {
    "fullUrl" : "https://erp-test.zentral.erp.splitdns.ti-dienste.de/Communication/01ebb1f5-9204-efa8-ecf8-93a713cac807",
    "resource" : {
      "resourceType" : "Communication",
      "id" : "01ebb1f5-9204-efa8-ecf8-93a713cac807",
      "meta" : {
        "profile" : [ "https://gematik.de/fhir/erp/StructureDefinition/GEM_ERP_PR_Communication_InfoReq|1.2" ]
      },
      "contained" : [ {
        "resourceType" : "Medication",
        "id" : "b07e3c6f-a89d-40ee-9da3-deb75bb1e925",
        "meta" : {
          "profile" : [ "https://fhir.kbv.de/StructureDefinition/KBV_PR_ERP_Medication_PZN|1.1.0" ]
        },
        "extension" : [ {
          "url" : "https://fhir.kbv.de/StructureDefinition/KBV_EX_Base_Medication_Type",
          "valueCodeableConcept" : {
            "coding" : [ {
              "system" : "http://snomed.info/sct",
              "version" : "http://snomed.info/sct/900000000000207008/version/20220331",
              "code" : "763158003",
              "display" : "Medicinal product (product)"
            } ]
          }
        }, {
          "url" : "https://fhir.kbv.de/StructureDefinition/KBV_EX_ERP_Medication_Category",
          "valueCoding" : {
            "system" : "https://fhir.kbv.de/CodeSystem/KBV_CS_ERP_Medication_Category",
            "code" : "00"
          }
        }, {
          "url" : "https://fhir.kbv.de/StructureDefinition/KBV_EX_ERP_Medication_Vaccine",
          "valueBoolean" : false
        }, {
          "url" : "http://fhir.de/StructureDefinition/normgroesse",
          "valueCode" : "NB"
        } ],
        "code" : {
          "coding" : [ {
            "system" : "http://fhir.de/CodeSystem/ifa/pzn",
            "code" : "12345678"
          } ],
          "text" : "Schmerzmittel"
        },
        "form" : {
          "coding" : [ {
            "system" : "https://fhir.kbv.de/CodeSystem/KBV_CS_SFHIR_KBV_DARREICHUNGSFORM",
            "code" : "TAB"
          } ]
        },
        "amount" : {
          "numerator" : {
            "extension" : [ {
              "url" : "https://fhir.kbv.de/StructureDefinition/KBV_EX_ERP_Medication_PackagingSize",
              "valueString" : "1"
            } ],
            "unit" : "Stk"
          },
          "denominator" : {
            "value" : 1
          }
        }
      } ],
      "basedOn" : [ {
        "reference" : "Task/160.000.006.398.107.96"
      } ],
      "status" : "unknown",
      "about" : [ {
        "reference" : "#b07e3c6f-a89d-40ee-9da3-deb75bb1e925"
      } ],
      "sent" : "2023-10-19T20:37:19.833+00:00",
      "recipient" : [ {
        "identifier" : {
          "system" : "https://gematik.de/fhir/sid/telematik-id",
          "value" : "1-2-ARZT-BerndClaudius01"
        }
      } ],
      "sender" : {
        "identifier" : {
          "system" : "http://fhir.de/sid/gkv/kvid-10",
          "value" : "X110498565"
        }
      },
      "payload" : [ {
        "extension" : [ {
          "url" : "https://gematik.de/fhir/erp/StructureDefinition/GEM_ERP_EX_InsuranceProvider",
          "valueIdentifier" : {
            "system" : "http://fhir.de/sid/arge-ik/iknr",
            "value" : "105823040"
          }
        }, {
          "url" : "https://gematik.de/fhir/erp/StructureDefinition/GEM_ERP_EX_SubstitutionAllowedType",
          "valueBoolean" : true
        }, {
          "url" : "https://gematik.de/fhir/erp/StructureDefinition/GEM_ERP_EX_PrescriptionType",
          "valueCoding" : {
            "system" : "https://gematik.de/fhir/erp/CodeSystem/GEM_ERP_CS_FlowType",
            "code" : "160",
            "display" : "Muster 16 (Apothekenpflichtige Arzneimittel)"
          }
        } ],
        "contentString" : "Here I am, brain the size of a planet, and they tell me to take you up to the bridge. Call that job satisfaction? 'Cos I don't."
      } ]
    },
    "search" : {
      "mode" : "match"
    }
  }, {
    "fullUrl" : "https://erp-test.zentral.erp.splitdns.ti-dienste.de/Communication/01ebb1f1-9259-6190-a390-f88167331d90",
    "resource" : {
      "resourceType" : "Communication",
      "id" : "01ebb1f1-9259-6190-a390-f88167331d90",
      "meta" : {
        "profile" : [ "https://gematik.de/fhir/erp/StructureDefinition/GEM_ERP_PR_Communication_InfoReq|1.2" ]
      },
      "contained" : [ {
        "resourceType" : "Medication",
        "id" : "fb10e898-6565-4a96-ae70-a9229954a94e",
        "meta" : {
          "profile" : [ "https://fhir.kbv.de/StructureDefinition/KBV_PR_ERP_Medication_PZN|1.1.0" ]
        },
        "extension" : [ {
          "url" : "https://fhir.kbv.de/StructureDefinition/KBV_EX_Base_Medication_Type",
          "valueCodeableConcept" : {
            "coding" : [ {
              "system" : "http://snomed.info/sct",
              "version" : "http://snomed.info/sct/900000000000207008/version/20220331",
              "code" : "763158003",
              "display" : "Medicinal product (product)"
            } ]
          }
        }, {
          "url" : "https://fhir.kbv.de/StructureDefinition/KBV_EX_ERP_Medication_Category",
          "valueCoding" : {
            "system" : "https://fhir.kbv.de/CodeSystem/KBV_CS_ERP_Medication_Category",
            "code" : "00"
          }
        }, {
          "url" : "https://fhir.kbv.de/StructureDefinition/KBV_EX_ERP_Medication_Vaccine",
          "valueBoolean" : false
        }, {
          "url" : "http://fhir.de/StructureDefinition/normgroesse",
          "valueCode" : "NB"
        } ],
        "code" : {
          "coding" : [ {
            "system" : "http://fhir.de/CodeSystem/ifa/pzn",
            "code" : "12345678"
          } ],
          "text" : "Schmerzmittel"
        },
        "form" : {
          "coding" : [ {
            "system" : "https://fhir.kbv.de/CodeSystem/KBV_CS_SFHIR_KBV_DARREICHUNGSFORM",
            "code" : "TAB"
          } ]
        },
        "amount" : {
          "numerator" : {
            "extension" : [ {
              "url" : "https://fhir.kbv.de/StructureDefinition/KBV_EX_ERP_Medication_PackagingSize",
              "valueString" : "1"
            } ],
            "unit" : "Stk"
          },
          "denominator" : {
            "value" : 1
          }
        }
      } ],
      "basedOn" : [ {
        "reference" : "Task/160.000.006.397.991.56"
      } ],
      "status" : "unknown",
      "about" : [ {
        "reference" : "#fb10e898-6565-4a96-ae70-a9229954a94e"
      } ],
      "sent" : "2023-10-19T15:51:05.498+00:00",
      "recipient" : [ {
        "identifier" : {
          "system" : "https://gematik.de/fhir/sid/telematik-id",
          "value" : "1-2-ARZT-BerndClaudius01"
        }
      } ],
      "sender" : {
        "identifier" : {
          "system" : "http://fhir.de/sid/gkv/kvid-10",
          "value" : "X110498565"
        }
      },
      "payload" : [ {
        "extension" : [ {
          "url" : "https://gematik.de/fhir/erp/StructureDefinition/GEM_ERP_EX_InsuranceProvider",
          "valueIdentifier" : {
            "system" : "http://fhir.de/sid/arge-ik/iknr",
            "value" : "107836243"
          }
        }, {
          "url" : "https://gematik.de/fhir/erp/StructureDefinition/GEM_ERP_EX_SubstitutionAllowedType",
          "valueBoolean" : true
        }, {
          "url" : "https://gematik.de/fhir/erp/StructureDefinition/GEM_ERP_EX_PrescriptionType",
          "valueCoding" : {
            "system" : "https://gematik.de/fhir/erp/CodeSystem/GEM_ERP_CS_FlowType",
            "code" : "160",
            "display" : "Muster 16 (Apothekenpflichtige Arzneimittel)"
          }
        } ],
        "contentString" : "I think you ought to know I'm feeling very depressed."
      } ]
    },
    "search" : {
      "mode" : "match"
    }
  }, {
    "fullUrl" : "https://erp-test.zentral.erp.splitdns.ti-dienste.de/Communication/01ebb1ef-69a1-4990-a358-479dc03e6f31",
    "resource" : {
      "resourceType" : "Communication",
      "id" : "01ebb1ef-69a1-4990-a358-479dc03e6f31",
      "meta" : {
        "profile" : [ "https://gematik.de/fhir/erp/StructureDefinition/GEM_ERP_PR_Communication_InfoReq|1.2" ]
      },
      "contained" : [ {
        "resourceType" : "Medication",
        "id" : "db24d0af-bc1f-43ff-9151-dcca179f8ab3",
        "meta" : {
          "profile" : [ "https://fhir.kbv.de/StructureDefinition/KBV_PR_ERP_Medication_PZN|1.1.0" ]
        },
        "extension" : [ {
          "url" : "https://fhir.kbv.de/StructureDefinition/KBV_EX_Base_Medication_Type",
          "valueCodeableConcept" : {
            "coding" : [ {
              "system" : "http://snomed.info/sct",
              "version" : "http://snomed.info/sct/900000000000207008/version/20220331",
              "code" : "763158003",
              "display" : "Medicinal product (product)"
            } ]
          }
        }, {
          "url" : "https://fhir.kbv.de/StructureDefinition/KBV_EX_ERP_Medication_Category",
          "valueCoding" : {
            "system" : "https://fhir.kbv.de/CodeSystem/KBV_CS_ERP_Medication_Category",
            "code" : "00"
          }
        }, {
          "url" : "https://fhir.kbv.de/StructureDefinition/KBV_EX_ERP_Medication_Vaccine",
          "valueBoolean" : false
        }, {
          "url" : "http://fhir.de/StructureDefinition/normgroesse",
          "valueCode" : "NB"
        } ],
        "code" : {
          "coding" : [ {
            "system" : "http://fhir.de/CodeSystem/ifa/pzn",
            "code" : "12345678"
          } ],
          "text" : "Schmerzmittel"
        },
        "form" : {
          "coding" : [ {
            "system" : "https://fhir.kbv.de/CodeSystem/KBV_CS_SFHIR_KBV_DARREICHUNGSFORM",
            "code" : "TAB"
          } ]
        },
        "amount" : {
          "numerator" : {
            "extension" : [ {
              "url" : "https://fhir.kbv.de/StructureDefinition/KBV_EX_ERP_Medication_PackagingSize",
              "valueString" : "1"
            } ],
            "unit" : "Stk"
          },
          "denominator" : {
            "value" : 1
          }
        }
      } ],
      "basedOn" : [ {
        "reference" : "Task/160.000.006.397.906.20"
      } ],
      "status" : "unknown",
      "about" : [ {
        "reference" : "#db24d0af-bc1f-43ff-9151-dcca179f8ab3"
      } ],
      "sent" : "2023-10-19T13:16:32.410+00:00",
      "recipient" : [ {
        "identifier" : {
          "system" : "https://gematik.de/fhir/sid/telematik-id",
          "value" : "1-2-ARZT-BerndClaudius01"
        }
      } ],
      "sender" : {
        "identifier" : {
          "system" : "http://fhir.de/sid/gkv/kvid-10",
          "value" : "X110498565"
        }
      },
      "payload" : [ {
        "extension" : [ {
          "url" : "https://gematik.de/fhir/erp/StructureDefinition/GEM_ERP_EX_InsuranceProvider",
          "valueIdentifier" : {
            "system" : "http://fhir.de/sid/arge-ik/iknr",
            "value" : "108433099"
          }
        }, {
          "url" : "https://gematik.de/fhir/erp/StructureDefinition/GEM_ERP_EX_SubstitutionAllowedType",
          "valueBoolean" : true
        }, {
          "url" : "https://gematik.de/fhir/erp/StructureDefinition/GEM_ERP_EX_PrescriptionType",
          "valueCoding" : {
            "system" : "https://gematik.de/fhir/erp/CodeSystem/GEM_ERP_CS_FlowType",
            "code" : "160",
            "display" : "Muster 16 (Apothekenpflichtige Arzneimittel)"
          }
        } ],
        "contentString" : "I wish you'd just tell me rather trying to engage my enthusiasm, because I haven't got one."
      } ]
    },
    "search" : {
      "mode" : "match"
    }
  }, {
    "fullUrl" : "https://erp-test.zentral.erp.splitdns.ti-dienste.de/Communication/01ebb1ef-1426-f2a8-45d8-902a80c090b0",
    "resource" : {
      "resourceType" : "Communication",
      "id" : "01ebb1ef-1426-f2a8-45d8-902a80c090b0",
      "meta" : {
        "profile" : [ "https://gematik.de/fhir/StructureDefinition/ErxCommunicationInfoReq" ]
      },
      "contained" : [ {
        "resourceType" : "Medication",
        "id" : "d0264d33-23f7-4fc6-b7e2-07430142f956",
        "meta" : {
          "profile" : [ "https://fhir.kbv.de/StructureDefinition/KBV_PR_ERP_Medication_PZN|1.0.2" ]
        },
        "extension" : [ {
          "url" : "https://fhir.kbv.de/StructureDefinition/KBV_EX_ERP_Medication_Category",
          "valueCoding" : {
            "system" : "https://fhir.kbv.de/CodeSystem/KBV_CS_ERP_Medication_Category",
            "code" : "00"
          }
        }, {
          "url" : "https://fhir.kbv.de/StructureDefinition/KBV_EX_ERP_Medication_Vaccine",
          "valueBoolean" : false
        }, {
          "url" : "http://fhir.de/StructureDefinition/normgroesse",
          "valueCode" : "NB"
        } ],
        "code" : {
          "coding" : [ {
            "system" : "http://fhir.de/CodeSystem/ifa/pzn",
            "code" : "12345678"
          } ],
          "text" : "Schmerzmittel"
        },
        "form" : {
          "coding" : [ {
            "system" : "https://fhir.kbv.de/CodeSystem/KBV_CS_SFHIR_KBV_DARREICHUNGSFORM",
            "code" : "TAB"
          } ]
        },
        "amount" : {
          "numerator" : {
            "value" : 1,
            "unit" : "Stk"
          },
          "denominator" : {
            "value" : 1
          }
        }
      } ],
      "basedOn" : [ {
        "reference" : "Task/160.000.006.397.821.81"
      } ],
      "status" : "unknown",
      "about" : [ {
        "reference" : "#d0264d33-23f7-4fc6-b7e2-07430142f956"
      } ],
      "sent" : "2023-10-19T12:52:38.329+00:00",
      "recipient" : [ {
        "identifier" : {
          "system" : "https://gematik.de/fhir/NamingSystem/TelematikID",
          "value" : "1-2-ARZT-BerndClaudius01"
        }
      } ],
      "sender" : {
        "identifier" : {
          "system" : "http://fhir.de/NamingSystem/gkv/kvid-10",
          "value" : "X110498565"
        }
      },
      "payload" : [ {
        "extension" : [ {
          "url" : "https://gematik.de/fhir/StructureDefinition/InsuranceProvider",
          "valueIdentifier" : {
            "system" : "http://fhir.de/NamingSystem/arge-ik/iknr",
            "value" : "104229606"
          }
        }, {
          "url" : "https://gematik.de/fhir/StructureDefinition/SubstitutionAllowedType",
          "valueBoolean" : true
        }, {
          "url" : "https://gematik.de/fhir/StructureDefinition/PrescriptionType",
          "valueCoding" : {
            "system" : "https://gematik.de/fhir/CodeSystem/Flowtype",
            "code" : "160",
            "display" : "Muster 16 (Apothekenpflichtige Arzneimittel)"
          }
        } ],
        "contentString" : "I won't enjoy it."
      } ]
    },
    "search" : {
      "mode" : "match"
    }
  }, {
    "fullUrl" : "https://erp-test.zentral.erp.splitdns.ti-dienste.de/Communication/01ebb1ed-942f-33b8-aeac-6c0206451e67",
    "resource" : {
      "resourceType" : "Communication",
      "id" : "01ebb1ed-942f-33b8-aeac-6c0206451e67",
      "meta" : {
        "profile" : [ "https://gematik.de/fhir/erp/StructureDefinition/GEM_ERP_PR_Communication_InfoReq|1.2" ]
      },
      "contained" : [ {
        "resourceType" : "Medication",
        "id" : "7df261df-8b47-4e11-a3f4-22e415c098d2",
        "meta" : {
          "profile" : [ "https://fhir.kbv.de/StructureDefinition/KBV_PR_ERP_Medication_PZN|1.1.0" ]
        },
        "extension" : [ {
          "url" : "https://fhir.kbv.de/StructureDefinition/KBV_EX_Base_Medication_Type",
          "valueCodeableConcept" : {
            "coding" : [ {
              "system" : "http://snomed.info/sct",
              "version" : "http://snomed.info/sct/900000000000207008/version/20220331",
              "code" : "763158003",
              "display" : "Medicinal product (product)"
            } ]
          }
        }, {
          "url" : "https://fhir.kbv.de/StructureDefinition/KBV_EX_ERP_Medication_Category",
          "valueCoding" : {
            "system" : "https://fhir.kbv.de/CodeSystem/KBV_CS_ERP_Medication_Category",
            "code" : "00"
          }
        }, {
          "url" : "https://fhir.kbv.de/StructureDefinition/KBV_EX_ERP_Medication_Vaccine",
          "valueBoolean" : false
        }, {
          "url" : "http://fhir.de/StructureDefinition/normgroesse",
          "valueCode" : "NB"
        } ],
        "code" : {
          "coding" : [ {
            "system" : "http://fhir.de/CodeSystem/ifa/pzn",
            "code" : "12345678"
          } ],
          "text" : "Schmerzmittel"
        },
        "form" : {
          "coding" : [ {
            "system" : "https://fhir.kbv.de/CodeSystem/KBV_CS_SFHIR_KBV_DARREICHUNGSFORM",
            "code" : "TAB"
          } ]
        },
        "amount" : {
          "numerator" : {
            "extension" : [ {
              "url" : "https://fhir.kbv.de/StructureDefinition/KBV_EX_ERP_Medication_PackagingSize",
              "valueString" : "1"
            } ],
            "unit" : "Stk"
          },
          "denominator" : {
            "value" : 1
          }
        }
      } ],
      "basedOn" : [ {
        "reference" : "Task/160.000.006.397.736.45"
      } ],
      "status" : "unknown",
      "about" : [ {
        "reference" : "#7df261df-8b47-4e11-a3f4-22e415c098d2"
      } ],
      "sent" : "2023-10-19T11:05:16.419+00:00",
      "recipient" : [ {
        "identifier" : {
          "system" : "https://gematik.de/fhir/sid/telematik-id",
          "value" : "1-2-ARZT-BerndClaudius01"
        }
      } ],
      "sender" : {
        "identifier" : {
          "system" : "http://fhir.de/sid/gkv/kvid-10",
          "value" : "X110498565"
        }
      },
      "payload" : [ {
        "extension" : [ {
          "url" : "https://gematik.de/fhir/erp/StructureDefinition/GEM_ERP_EX_InsuranceProvider",
          "valueIdentifier" : {
            "system" : "http://fhir.de/sid/arge-ik/iknr",
            "value" : "103119199"
          }
        }, {
          "url" : "https://gematik.de/fhir/erp/StructureDefinition/GEM_ERP_EX_SubstitutionAllowedType",
          "valueBoolean" : true
        }, {
          "url" : "https://gematik.de/fhir/erp/StructureDefinition/GEM_ERP_EX_PrescriptionType",
          "valueCoding" : {
            "system" : "https://gematik.de/fhir/erp/CodeSystem/GEM_ERP_CS_FlowType",
            "code" : "160",
            "display" : "Muster 16 (Apothekenpflichtige Arzneimittel)"
          }
        } ],
        "contentString" : "You think you've got problems? What are you supposed to do if you are a manically depressed robot? No, don't try to answer that. I'm fifty thousand times more intelligent than you and even I don't know the answer. It gives me a headache just trying to think down to your level."
      } ]
    },
    "search" : {
      "mode" : "match"
    }
  }, {
    "fullUrl" : "https://erp-test.zentral.erp.splitdns.ti-dienste.de/Communication/01ebb1e4-4557-fc10-495c-955c91eee25e",
    "resource" : {
      "resourceType" : "Communication",
      "id" : "01ebb1e4-4557-fc10-495c-955c91eee25e",
      "meta" : {
        "profile" : [ "https://gematik.de/fhir/erp/StructureDefinition/GEM_ERP_PR_Communication_InfoReq|1.2" ]
      },
      "contained" : [ {
        "resourceType" : "Medication",
        "id" : "24215d30-4c62-456a-90e5-0069656b4c4c",
        "meta" : {
          "profile" : [ "https://fhir.kbv.de/StructureDefinition/KBV_PR_ERP_Medication_PZN|1.1.0" ]
        },
        "extension" : [ {
          "url" : "https://fhir.kbv.de/StructureDefinition/KBV_EX_Base_Medication_Type",
          "valueCodeableConcept" : {
            "coding" : [ {
              "system" : "http://snomed.info/sct",
              "version" : "http://snomed.info/sct/900000000000207008/version/20220331",
              "code" : "763158003",
              "display" : "Medicinal product (product)"
            } ]
          }
        }, {
          "url" : "https://fhir.kbv.de/StructureDefinition/KBV_EX_ERP_Medication_Category",
          "valueCoding" : {
            "system" : "https://fhir.kbv.de/CodeSystem/KBV_CS_ERP_Medication_Category",
            "code" : "00"
          }
        }, {
          "url" : "https://fhir.kbv.de/StructureDefinition/KBV_EX_ERP_Medication_Vaccine",
          "valueBoolean" : false
        }, {
          "url" : "http://fhir.de/StructureDefinition/normgroesse",
          "valueCode" : "NB"
        } ],
        "code" : {
          "coding" : [ {
            "system" : "http://fhir.de/CodeSystem/ifa/pzn",
            "code" : "12345678"
          } ],
          "text" : "Schmerzmittel"
        },
        "form" : {
          "coding" : [ {
            "system" : "https://fhir.kbv.de/CodeSystem/KBV_CS_SFHIR_KBV_DARREICHUNGSFORM",
            "code" : "TAB"
          } ]
        },
        "amount" : {
          "numerator" : {
            "extension" : [ {
              "url" : "https://fhir.kbv.de/StructureDefinition/KBV_EX_ERP_Medication_PackagingSize",
              "valueString" : "1"
            } ],
            "unit" : "Stk"
          },
          "denominator" : {
            "value" : 1
          }
        }
      } ],
      "basedOn" : [ {
        "reference" : "Task/160.000.006.397.386.28"
      } ],
      "status" : "unknown",
      "about" : [ {
        "reference" : "#24215d30-4c62-456a-90e5-0069656b4c4c"
      } ],
      "sent" : "2023-10-18T23:58:58.986+00:00",
      "recipient" : [ {
        "identifier" : {
          "system" : "https://gematik.de/fhir/sid/telematik-id",
          "value" : "1-2-ARZT-BerndClaudius01"
        }
      } ],
      "sender" : {
        "identifier" : {
          "system" : "http://fhir.de/sid/gkv/kvid-10",
          "value" : "X110498565"
        }
      },
      "payload" : [ {
        "extension" : [ {
          "url" : "https://gematik.de/fhir/erp/StructureDefinition/GEM_ERP_EX_InsuranceProvider",
          "valueIdentifier" : {
            "system" : "http://fhir.de/sid/arge-ik/iknr",
            "value" : "108018007"
          }
        }, {
          "url" : "https://gematik.de/fhir/erp/StructureDefinition/GEM_ERP_EX_SubstitutionAllowedType",
          "valueBoolean" : true
        }, {
          "url" : "https://gematik.de/fhir/erp/StructureDefinition/GEM_ERP_EX_PrescriptionType",
          "valueCoding" : {
            "system" : "https://gematik.de/fhir/erp/CodeSystem/GEM_ERP_CS_FlowType",
            "code" : "160",
            "display" : "Muster 16 (Apothekenpflichtige Arzneimittel)"
          }
        } ],
        "contentString" : "I think you ought to know I'm feeling very depressed."
      } ]
    },
    "search" : {
      "mode" : "match"
    }
  }, {
    "fullUrl" : "https://erp-test.zentral.erp.splitdns.ti-dienste.de/Communication/01ebb1dd-17db-0310-f492-bf661540ab00",
    "resource" : {
      "resourceType" : "Communication",
      "id" : "01ebb1dd-17db-0310-f492-bf661540ab00",
      "meta" : {
        "profile" : [ "https://gematik.de/fhir/erp/StructureDefinition/GEM_ERP_PR_Communication_InfoReq|1.2" ]
      },
      "contained" : [ {
        "resourceType" : "Medication",
        "id" : "855f747d-405d-4151-9ca3-a55cae5fe3cc",
        "meta" : {
          "profile" : [ "https://fhir.kbv.de/StructureDefinition/KBV_PR_ERP_Medication_PZN|1.1.0" ]
        },
        "extension" : [ {
          "url" : "https://fhir.kbv.de/StructureDefinition/KBV_EX_Base_Medication_Type",
          "valueCodeableConcept" : {
            "coding" : [ {
              "system" : "http://snomed.info/sct",
              "version" : "http://snomed.info/sct/900000000000207008/version/20220331",
              "code" : "763158003",
              "display" : "Medicinal product (product)"
            } ]
          }
        }, {
          "url" : "https://fhir.kbv.de/StructureDefinition/KBV_EX_ERP_Medication_Category",
          "valueCoding" : {
            "system" : "https://fhir.kbv.de/CodeSystem/KBV_CS_ERP_Medication_Category",
            "code" : "00"
          }
        }, {
          "url" : "https://fhir.kbv.de/StructureDefinition/KBV_EX_ERP_Medication_Vaccine",
          "valueBoolean" : false
        }, {
          "url" : "http://fhir.de/StructureDefinition/normgroesse",
          "valueCode" : "NB"
        } ],
        "code" : {
          "coding" : [ {
            "system" : "http://fhir.de/CodeSystem/ifa/pzn",
            "code" : "12345678"
          } ],
          "text" : "Schmerzmittel"
        },
        "form" : {
          "coding" : [ {
            "system" : "https://fhir.kbv.de/CodeSystem/KBV_CS_SFHIR_KBV_DARREICHUNGSFORM",
            "code" : "TAB"
          } ]
        },
        "amount" : {
          "numerator" : {
            "extension" : [ {
              "url" : "https://fhir.kbv.de/StructureDefinition/KBV_EX_ERP_Medication_PackagingSize",
              "valueString" : "1"
            } ],
            "unit" : "Stk"
          },
          "denominator" : {
            "value" : 1
          }
        }
      } ],
      "basedOn" : [ {
        "reference" : "Task/160.000.006.397.176.76"
      } ],
      "status" : "unknown",
      "about" : [ {
        "reference" : "#855f747d-405d-4151-9ca3-a55cae5fe3cc"
      } ],
      "sent" : "2023-10-18T15:25:11.050+00:00",
      "recipient" : [ {
        "identifier" : {
          "system" : "https://gematik.de/fhir/sid/telematik-id",
          "value" : "1-2-ARZT-BerndClaudius01"
        }
      } ],
      "sender" : {
        "identifier" : {
          "system" : "http://fhir.de/sid/gkv/kvid-10",
          "value" : "X110498565"
        }
      },
      "payload" : [ {
        "extension" : [ {
          "url" : "https://gematik.de/fhir/erp/StructureDefinition/GEM_ERP_EX_InsuranceProvider",
          "valueIdentifier" : {
            "system" : "http://fhir.de/sid/arge-ik/iknr",
            "value" : "105830539"
          }
        }, {
          "url" : "https://gematik.de/fhir/erp/StructureDefinition/GEM_ERP_EX_SubstitutionAllowedType",
          "valueBoolean" : true
        }, {
          "url" : "https://gematik.de/fhir/erp/StructureDefinition/GEM_ERP_EX_PrescriptionType",
          "valueCoding" : {
            "system" : "https://gematik.de/fhir/erp/CodeSystem/GEM_ERP_CS_FlowType",
            "code" : "160",
            "display" : "Muster 16 (Apothekenpflichtige Arzneimittel)"
          }
        } ],
        "contentString" : "I think you ought to know I'm feeling very depressed."
      } ]
    },
    "search" : {
      "mode" : "match"
    }
  }, {
    "fullUrl" : "https://erp-test.zentral.erp.splitdns.ti-dienste.de/Communication/01ebb1dc-694a-0ff8-4a87-764f4e181eb1",
    "resource" : {
      "resourceType" : "Communication",
      "id" : "01ebb1dc-694a-0ff8-4a87-764f4e181eb1",
      "meta" : {
        "profile" : [ "https://gematik.de/fhir/erp/StructureDefinition/GEM_ERP_PR_Communication_InfoReq|1.2" ]
      },
      "contained" : [ {
        "resourceType" : "Medication",
        "id" : "776b7c24-5c9d-41fd-9491-375f74cac2c4",
        "meta" : {
          "profile" : [ "https://fhir.kbv.de/StructureDefinition/KBV_PR_ERP_Medication_PZN|1.1.0" ]
        },
        "extension" : [ {
          "url" : "https://fhir.kbv.de/StructureDefinition/KBV_EX_Base_Medication_Type",
          "valueCodeableConcept" : {
            "coding" : [ {
              "system" : "http://snomed.info/sct",
              "version" : "http://snomed.info/sct/900000000000207008/version/20220331",
              "code" : "763158003",
              "display" : "Medicinal product (product)"
            } ]
          }
        }, {
          "url" : "https://fhir.kbv.de/StructureDefinition/KBV_EX_ERP_Medication_Category",
          "valueCoding" : {
            "system" : "https://fhir.kbv.de/CodeSystem/KBV_CS_ERP_Medication_Category",
            "code" : "00"
          }
        }, {
          "url" : "https://fhir.kbv.de/StructureDefinition/KBV_EX_ERP_Medication_Vaccine",
          "valueBoolean" : false
        }, {
          "url" : "http://fhir.de/StructureDefinition/normgroesse",
          "valueCode" : "NB"
        } ],
        "code" : {
          "coding" : [ {
            "system" : "http://fhir.de/CodeSystem/ifa/pzn",
            "code" : "12345678"
          } ],
          "text" : "Schmerzmittel"
        },
        "form" : {
          "coding" : [ {
            "system" : "https://fhir.kbv.de/CodeSystem/KBV_CS_SFHIR_KBV_DARREICHUNGSFORM",
            "code" : "TAB"
          } ]
        },
        "amount" : {
          "numerator" : {
            "extension" : [ {
              "url" : "https://fhir.kbv.de/StructureDefinition/KBV_EX_ERP_Medication_PackagingSize",
              "valueString" : "1"
            } ],
            "unit" : "Stk"
          },
          "denominator" : {
            "value" : 1
          }
        }
      } ],
      "basedOn" : [ {
        "reference" : "Task/160.000.006.397.027.38"
      } ],
      "status" : "unknown",
      "about" : [ {
        "reference" : "#776b7c24-5c9d-41fd-9491-375f74cac2c4"
      } ],
      "sent" : "2023-10-18T14:36:22.315+00:00",
      "recipient" : [ {
        "identifier" : {
          "system" : "https://gematik.de/fhir/sid/telematik-id",
          "value" : "1-2-ARZT-BerndClaudius01"
        }
      } ],
      "sender" : {
        "identifier" : {
          "system" : "http://fhir.de/sid/gkv/kvid-10",
          "value" : "X110498565"
        }
      },
      "payload" : [ {
        "extension" : [ {
          "url" : "https://gematik.de/fhir/erp/StructureDefinition/GEM_ERP_EX_InsuranceProvider",
          "valueIdentifier" : {
            "system" : "http://fhir.de/sid/arge-ik/iknr",
            "value" : "103724272"
          }
        }, {
          "url" : "https://gematik.de/fhir/erp/StructureDefinition/GEM_ERP_EX_SubstitutionAllowedType",
          "valueBoolean" : true
        }, {
          "url" : "https://gematik.de/fhir/erp/StructureDefinition/GEM_ERP_EX_PrescriptionType",
          "valueCoding" : {
            "system" : "https://gematik.de/fhir/erp/CodeSystem/GEM_ERP_CS_FlowType",
            "code" : "160",
            "display" : "Muster 16 (Apothekenpflichtige Arzneimittel)"
          }
        } ],
        "contentString" : "I wish you'd just tell me rather trying to engage my enthusiasm, because I haven't got one."
      } ]
    },
    "search" : {
      "mode" : "match"
    }
  }, {
    "fullUrl" : "https://erp-test.zentral.erp.splitdns.ti-dienste.de/Communication/01ebb1d0-569d-08d0-1bd2-c2f7269da3cc",
    "resource" : {
      "resourceType" : "Communication",
      "id" : "01ebb1d0-569d-08d0-1bd2-c2f7269da3cc",
      "meta" : {
        "profile" : [ "https://gematik.de/fhir/erp/StructureDefinition/GEM_ERP_PR_Communication_InfoReq|1.2" ]
      },
      "contained" : [ {
        "resourceType" : "Medication",
        "id" : "1116566e-845c-4ca2-8557-976129ed45c6",
        "meta" : {
          "profile" : [ "https://fhir.kbv.de/StructureDefinition/KBV_PR_ERP_Medication_PZN|1.1.0" ]
        },
        "extension" : [ {
          "url" : "https://fhir.kbv.de/StructureDefinition/KBV_EX_Base_Medication_Type",
          "valueCodeableConcept" : {
            "coding" : [ {
              "system" : "http://snomed.info/sct",
              "version" : "http://snomed.info/sct/900000000000207008/version/20220331",
              "code" : "763158003",
              "display" : "Medicinal product (product)"
            } ]
          }
        }, {
          "url" : "https://fhir.kbv.de/StructureDefinition/KBV_EX_ERP_Medication_Category",
          "valueCoding" : {
            "system" : "https://fhir.kbv.de/CodeSystem/KBV_CS_ERP_Medication_Category",
            "code" : "00"
          }
        }, {
          "url" : "https://fhir.kbv.de/StructureDefinition/KBV_EX_ERP_Medication_Vaccine",
          "valueBoolean" : false
        }, {
          "url" : "http://fhir.de/StructureDefinition/normgroesse",
          "valueCode" : "NB"
        } ],
        "code" : {
          "coding" : [ {
            "system" : "http://fhir.de/CodeSystem/ifa/pzn",
            "code" : "12345678"
          } ],
          "text" : "Schmerzmittel"
        },
        "form" : {
          "coding" : [ {
            "system" : "https://fhir.kbv.de/CodeSystem/KBV_CS_SFHIR_KBV_DARREICHUNGSFORM",
            "code" : "TAB"
          } ]
        },
        "amount" : {
          "numerator" : {
            "extension" : [ {
              "url" : "https://fhir.kbv.de/StructureDefinition/KBV_EX_ERP_Medication_PackagingSize",
              "valueString" : "1"
            } ],
            "unit" : "Stk"
          },
          "denominator" : {
            "value" : 1
          }
        }
      } ],
      "basedOn" : [ {
        "reference" : "Task/160.000.006.396.671.39"
      } ],
      "status" : "unknown",
      "about" : [ {
        "reference" : "#1116566e-845c-4ca2-8557-976129ed45c6"
      } ],
      "sent" : "2023-10-18T00:12:09.378+00:00",
      "recipient" : [ {
        "identifier" : {
          "system" : "https://gematik.de/fhir/sid/telematik-id",
          "value" : "1-2-ARZT-BerndClaudius01"
        }
      } ],
      "sender" : {
        "identifier" : {
          "system" : "http://fhir.de/sid/gkv/kvid-10",
          "value" : "X110498565"
        }
      },
      "payload" : [ {
        "extension" : [ {
          "url" : "https://gematik.de/fhir/erp/StructureDefinition/GEM_ERP_EX_InsuranceProvider",
          "valueIdentifier" : {
            "system" : "http://fhir.de/sid/arge-ik/iknr",
            "value" : "104127692"
          }
        }, {
          "url" : "https://gematik.de/fhir/erp/StructureDefinition/GEM_ERP_EX_SubstitutionAllowedType",
          "valueBoolean" : true
        }, {
          "url" : "https://gematik.de/fhir/erp/StructureDefinition/GEM_ERP_EX_PrescriptionType",
          "valueCoding" : {
            "system" : "https://gematik.de/fhir/erp/CodeSystem/GEM_ERP_CS_FlowType",
            "code" : "160",
            "display" : "Muster 16 (Apothekenpflichtige Arzneimittel)"
          }
        } ],
        "contentString" : "Life? Don't talk to me about life."
      } ]
    },
    "search" : {
      "mode" : "match"
    }
  }, {
    "fullUrl" : "https://erp-test.zentral.erp.splitdns.ti-dienste.de/Communication/01ebb1bc-41f2-8d38-2c6e-f7c327dedd19",
    "resource" : {
      "resourceType" : "Communication",
      "id" : "01ebb1bc-41f2-8d38-2c6e-f7c327dedd19",
      "meta" : {
        "profile" : [ "https://gematik.de/fhir/erp/StructureDefinition/GEM_ERP_PR_Communication_InfoReq|1.2" ]
      },
      "contained" : [ {
        "resourceType" : "Medication",
        "id" : "07842fb1-6472-4ad8-9aeb-d16c7eff6c26",
        "meta" : {
          "profile" : [ "https://fhir.kbv.de/StructureDefinition/KBV_PR_ERP_Medication_PZN|1.1.0" ]
        },
        "extension" : [ {
          "url" : "https://fhir.kbv.de/StructureDefinition/KBV_EX_Base_Medication_Type",
          "valueCodeableConcept" : {
            "coding" : [ {
              "system" : "http://snomed.info/sct",
              "version" : "http://snomed.info/sct/900000000000207008/version/20220331",
              "code" : "763158003",
              "display" : "Medicinal product (product)"
            } ]
          }
        }, {
          "url" : "https://fhir.kbv.de/StructureDefinition/KBV_EX_ERP_Medication_Category",
          "valueCoding" : {
            "system" : "https://fhir.kbv.de/CodeSystem/KBV_CS_ERP_Medication_Category",
            "code" : "00"
          }
        }, {
          "url" : "https://fhir.kbv.de/StructureDefinition/KBV_EX_ERP_Medication_Vaccine",
          "valueBoolean" : false
        }, {
          "url" : "http://fhir.de/StructureDefinition/normgroesse",
          "valueCode" : "NB"
        } ],
        "code" : {
          "coding" : [ {
            "system" : "http://fhir.de/CodeSystem/ifa/pzn",
            "code" : "12345678"
          } ],
          "text" : "Schmerzmittel"
        },
        "form" : {
          "coding" : [ {
            "system" : "https://fhir.kbv.de/CodeSystem/KBV_CS_SFHIR_KBV_DARREICHUNGSFORM",
            "code" : "TAB"
          } ]
        },
        "amount" : {
          "numerator" : {
            "extension" : [ {
              "url" : "https://fhir.kbv.de/StructureDefinition/KBV_EX_ERP_Medication_PackagingSize",
              "valueString" : "1"
            } ],
            "unit" : "Stk"
          },
          "denominator" : {
            "value" : 1
          }
        }
      } ],
      "basedOn" : [ {
        "reference" : "Task/160.000.006.396.209.67"
      } ],
      "status" : "unknown",
      "about" : [ {
        "reference" : "#07842fb1-6472-4ad8-9aeb-d16c7eff6c26"
      } ],
      "sent" : "2023-10-17T00:14:43.315+00:00",
      "recipient" : [ {
        "identifier" : {
          "system" : "https://gematik.de/fhir/sid/telematik-id",
          "value" : "1-2-ARZT-BerndClaudius01"
        }
      } ],
      "sender" : {
        "identifier" : {
          "system" : "http://fhir.de/sid/gkv/kvid-10",
          "value" : "X110498565"
        }
      },
      "payload" : [ {
        "extension" : [ {
          "url" : "https://gematik.de/fhir/erp/StructureDefinition/GEM_ERP_EX_InsuranceProvider",
          "valueIdentifier" : {
            "system" : "http://fhir.de/sid/arge-ik/iknr",
            "value" : "108030775"
          }
        }, {
          "url" : "https://gematik.de/fhir/erp/StructureDefinition/GEM_ERP_EX_SubstitutionAllowedType",
          "valueBoolean" : true
        }, {
          "url" : "https://gematik.de/fhir/erp/StructureDefinition/GEM_ERP_EX_PrescriptionType",
          "valueCoding" : {
            "system" : "https://gematik.de/fhir/erp/CodeSystem/GEM_ERP_CS_FlowType",
            "code" : "160",
            "display" : "Muster 16 (Apothekenpflichtige Arzneimittel)"
          }
        } ],
        "contentString" : "I won't enjoy it."
      } ]
    },
    "search" : {
      "mode" : "match"
    }
  }, {
    "fullUrl" : "https://erp-test.zentral.erp.splitdns.ti-dienste.de/Communication/01ebb1a8-68e2-c818-53ab-20110fe3f2a9",
    "resource" : {
      "resourceType" : "Communication",
      "id" : "01ebb1a8-68e2-c818-53ab-20110fe3f2a9",
      "meta" : {
        "profile" : [ "https://gematik.de/fhir/erp/StructureDefinition/GEM_ERP_PR_Communication_InfoReq|1.2" ]
      },
      "contained" : [ {
        "resourceType" : "Medication",
        "id" : "92b628b1-6184-4b99-bc3a-8831bad90e56",
        "meta" : {
          "profile" : [ "https://fhir.kbv.de/StructureDefinition/KBV_PR_ERP_Medication_PZN|1.1.0" ]
        },
        "extension" : [ {
          "url" : "https://fhir.kbv.de/StructureDefinition/KBV_EX_Base_Medication_Type",
          "valueCodeableConcept" : {
            "coding" : [ {
              "system" : "http://snomed.info/sct",
              "version" : "http://snomed.info/sct/900000000000207008/version/20220331",
              "code" : "763158003",
              "display" : "Medicinal product (product)"
            } ]
          }
        }, {
          "url" : "https://fhir.kbv.de/StructureDefinition/KBV_EX_ERP_Medication_Category",
          "valueCoding" : {
            "system" : "https://fhir.kbv.de/CodeSystem/KBV_CS_ERP_Medication_Category",
            "code" : "00"
          }
        }, {
          "url" : "https://fhir.kbv.de/StructureDefinition/KBV_EX_ERP_Medication_Vaccine",
          "valueBoolean" : false
        }, {
          "url" : "http://fhir.de/StructureDefinition/normgroesse",
          "valueCode" : "NB"
        } ],
        "code" : {
          "coding" : [ {
            "system" : "http://fhir.de/CodeSystem/ifa/pzn",
            "code" : "12345678"
          } ],
          "text" : "Schmerzmittel"
        },
        "form" : {
          "coding" : [ {
            "system" : "https://fhir.kbv.de/CodeSystem/KBV_CS_SFHIR_KBV_DARREICHUNGSFORM",
            "code" : "TAB"
          } ]
        },
        "amount" : {
          "numerator" : {
            "extension" : [ {
              "url" : "https://fhir.kbv.de/StructureDefinition/KBV_EX_ERP_Medication_PackagingSize",
              "valueString" : "1"
            } ],
            "unit" : "Stk"
          },
          "denominator" : {
            "value" : 1
          }
        }
      } ],
      "basedOn" : [ {
        "reference" : "Task/160.000.006.395.770.26"
      } ],
      "status" : "unknown",
      "about" : [ {
        "reference" : "#92b628b1-6184-4b99-bc3a-8831bad90e56"
      } ],
      "sent" : "2023-10-16T00:33:57.247+00:00",
      "recipient" : [ {
        "identifier" : {
          "system" : "https://gematik.de/fhir/sid/telematik-id",
          "value" : "1-2-ARZT-BerndClaudius01"
        }
      } ],
      "sender" : {
        "identifier" : {
          "system" : "http://fhir.de/sid/gkv/kvid-10",
          "value" : "X110498565"
        }
      },
      "payload" : [ {
        "extension" : [ {
          "url" : "https://gematik.de/fhir/erp/StructureDefinition/GEM_ERP_EX_InsuranceProvider",
          "valueIdentifier" : {
            "system" : "http://fhir.de/sid/arge-ik/iknr",
            "value" : "107536262"
          }
        }, {
          "url" : "https://gematik.de/fhir/erp/StructureDefinition/GEM_ERP_EX_SubstitutionAllowedType",
          "valueBoolean" : true
        }, {
          "url" : "https://gematik.de/fhir/erp/StructureDefinition/GEM_ERP_EX_PrescriptionType",
          "valueCoding" : {
            "system" : "https://gematik.de/fhir/erp/CodeSystem/GEM_ERP_CS_FlowType",
            "code" : "160",
            "display" : "Muster 16 (Apothekenpflichtige Arzneimittel)"
          }
        } ],
        "contentString" : "Pardon me for breathing, which I never do anyway so I don't know why I bother to say it, Oh God, I'm so depressed."
      } ]
    },
    "search" : {
      "mode" : "match"
    }
  }, {
    "fullUrl" : "https://erp-test.zentral.erp.splitdns.ti-dienste.de/Communication/01ebb193-0126-a1f0-8b91-9b7c8797363f",
    "resource" : {
      "resourceType" : "Communication",
      "id" : "01ebb193-0126-a1f0-8b91-9b7c8797363f",
      "meta" : {
        "profile" : [ "https://gematik.de/fhir/erp/StructureDefinition/GEM_ERP_PR_Communication_InfoReq|1.2" ]
      },
      "contained" : [ {
        "resourceType" : "Medication",
        "id" : "da987eec-f58a-4d0d-bb49-6a291f0fb5ce",
        "meta" : {
          "profile" : [ "https://fhir.kbv.de/StructureDefinition/KBV_PR_ERP_Medication_PZN|1.1.0" ]
        },
        "extension" : [ {
          "url" : "https://fhir.kbv.de/StructureDefinition/KBV_EX_Base_Medication_Type",
          "valueCodeableConcept" : {
            "coding" : [ {
              "system" : "http://snomed.info/sct",
              "version" : "http://snomed.info/sct/900000000000207008/version/20220331",
              "code" : "763158003",
              "display" : "Medicinal product (product)"
            } ]
          }
        }, {
          "url" : "https://fhir.kbv.de/StructureDefinition/KBV_EX_ERP_Medication_Category",
          "valueCoding" : {
            "system" : "https://fhir.kbv.de/CodeSystem/KBV_CS_ERP_Medication_Category",
            "code" : "00"
          }
        }, {
          "url" : "https://fhir.kbv.de/StructureDefinition/KBV_EX_ERP_Medication_Vaccine",
          "valueBoolean" : false
        }, {
          "url" : "http://fhir.de/StructureDefinition/normgroesse",
          "valueCode" : "NB"
        } ],
        "code" : {
          "coding" : [ {
            "system" : "http://fhir.de/CodeSystem/ifa/pzn",
            "code" : "12345678"
          } ],
          "text" : "Schmerzmittel"
        },
        "form" : {
          "coding" : [ {
            "system" : "https://fhir.kbv.de/CodeSystem/KBV_CS_SFHIR_KBV_DARREICHUNGSFORM",
            "code" : "TAB"
          } ]
        },
        "amount" : {
          "numerator" : {
            "extension" : [ {
              "url" : "https://fhir.kbv.de/StructureDefinition/KBV_EX_ERP_Medication_PackagingSize",
              "valueString" : "1"
            } ],
            "unit" : "Stk"
          },
          "denominator" : {
            "value" : 1
          }
        }
      } ],
      "basedOn" : [ {
        "reference" : "Task/160.000.006.395.383.23"
      } ],
      "status" : "unknown",
      "about" : [ {
        "reference" : "#da987eec-f58a-4d0d-bb49-6a291f0fb5ce"
      } ],
      "sent" : "2023-10-14T23:01:42.550+00:00",
      "recipient" : [ {
        "identifier" : {
          "system" : "https://gematik.de/fhir/sid/telematik-id",
          "value" : "1-2-ARZT-BerndClaudius01"
        }
      } ],
      "sender" : {
        "identifier" : {
          "system" : "http://fhir.de/sid/gkv/kvid-10",
          "value" : "X110498565"
        }
      },
      "payload" : [ {
        "extension" : [ {
          "url" : "https://gematik.de/fhir/erp/StructureDefinition/GEM_ERP_EX_InsuranceProvider",
          "valueIdentifier" : {
            "system" : "http://fhir.de/sid/arge-ik/iknr",
            "value" : "104626889"
          }
        }, {
          "url" : "https://gematik.de/fhir/erp/StructureDefinition/GEM_ERP_EX_SubstitutionAllowedType",
          "valueBoolean" : true
        }, {
          "url" : "https://gematik.de/fhir/erp/StructureDefinition/GEM_ERP_EX_PrescriptionType",
          "valueCoding" : {
            "system" : "https://gematik.de/fhir/erp/CodeSystem/GEM_ERP_CS_FlowType",
            "code" : "160",
            "display" : "Muster 16 (Apothekenpflichtige Arzneimittel)"
          }
        } ],
        "contentString" : "Here I am, brain the size of a planet, and they tell me to take you up to the bridge. Call that job satisfaction? 'Cos I don't."
      } ]
    },
    "search" : {
      "mode" : "match"
    }
  }, {
    "fullUrl" : "https://erp-test.zentral.erp.splitdns.ti-dienste.de/Communication/01ebb17e-df23-99a0-793c-cba297dd9911",
    "resource" : {
      "resourceType" : "Communication",
      "id" : "01ebb17e-df23-99a0-793c-cba297dd9911",
      "meta" : {
        "profile" : [ "https://gematik.de/fhir/erp/StructureDefinition/GEM_ERP_PR_Communication_InfoReq|1.2" ]
      },
      "contained" : [ {
        "resourceType" : "Medication",
        "id" : "e3c4b223-93a1-403f-8a27-5db74673a993",
        "meta" : {
          "profile" : [ "https://fhir.kbv.de/StructureDefinition/KBV_PR_ERP_Medication_PZN|1.1.0" ]
        },
        "extension" : [ {
          "url" : "https://fhir.kbv.de/StructureDefinition/KBV_EX_Base_Medication_Type",
          "valueCodeableConcept" : {
            "coding" : [ {
              "system" : "http://snomed.info/sct",
              "version" : "http://snomed.info/sct/900000000000207008/version/20220331",
              "code" : "763158003",
              "display" : "Medicinal product (product)"
            } ]
          }
        }, {
          "url" : "https://fhir.kbv.de/StructureDefinition/KBV_EX_ERP_Medication_Category",
          "valueCoding" : {
            "system" : "https://fhir.kbv.de/CodeSystem/KBV_CS_ERP_Medication_Category",
            "code" : "00"
          }
        }, {
          "url" : "https://fhir.kbv.de/StructureDefinition/KBV_EX_ERP_Medication_Vaccine",
          "valueBoolean" : false
        }, {
          "url" : "http://fhir.de/StructureDefinition/normgroesse",
          "valueCode" : "NB"
        } ],
        "code" : {
          "coding" : [ {
            "system" : "http://fhir.de/CodeSystem/ifa/pzn",
            "code" : "12345678"
          } ],
          "text" : "Schmerzmittel"
        },
        "form" : {
          "coding" : [ {
            "system" : "https://fhir.kbv.de/CodeSystem/KBV_CS_SFHIR_KBV_DARREICHUNGSFORM",
            "code" : "TAB"
          } ]
        },
        "amount" : {
          "numerator" : {
            "extension" : [ {
              "url" : "https://fhir.kbv.de/StructureDefinition/KBV_EX_ERP_Medication_PackagingSize",
              "valueString" : "1"
            } ],
            "unit" : "Stk"
          },
          "denominator" : {
            "value" : 1
          }
        }
      } ],
      "basedOn" : [ {
        "reference" : "Task/160.000.006.394.998.14"
      } ],
      "status" : "unknown",
      "about" : [ {
        "reference" : "#e3c4b223-93a1-403f-8a27-5db74673a993"
      } ],
      "sent" : "2023-10-13T23:00:32.580+00:00",
      "recipient" : [ {
        "identifier" : {
          "system" : "https://gematik.de/fhir/sid/telematik-id",
          "value" : "1-2-ARZT-BerndClaudius01"
        }
      } ],
      "sender" : {
        "identifier" : {
          "system" : "http://fhir.de/sid/gkv/kvid-10",
          "value" : "X110498565"
        }
      },
      "payload" : [ {
        "extension" : [ {
          "url" : "https://gematik.de/fhir/erp/StructureDefinition/GEM_ERP_EX_InsuranceProvider",
          "valueIdentifier" : {
            "system" : "http://fhir.de/sid/arge-ik/iknr",
            "value" : "104424830"
          }
        }, {
          "url" : "https://gematik.de/fhir/erp/StructureDefinition/GEM_ERP_EX_SubstitutionAllowedType",
          "valueBoolean" : true
        }, {
          "url" : "https://gematik.de/fhir/erp/StructureDefinition/GEM_ERP_EX_PrescriptionType",
          "valueCoding" : {
            "system" : "https://gematik.de/fhir/erp/CodeSystem/GEM_ERP_CS_FlowType",
            "code" : "160",
            "display" : "Muster 16 (Apothekenpflichtige Arzneimittel)"
          }
        } ],
        "contentString" : "I think you ought to know I'm feeling very depressed."
      } ]
    },
    "search" : {
      "mode" : "match"
    }
  }, {
    "fullUrl" : "https://erp-test.zentral.erp.splitdns.ti-dienste.de/Communication/01ebb16b-deb7-3de0-b5e7-a9fa04fd2b2b",
    "resource" : {
      "resourceType" : "Communication",
      "id" : "01ebb16b-deb7-3de0-b5e7-a9fa04fd2b2b",
      "meta" : {
        "profile" : [ "https://gematik.de/fhir/erp/StructureDefinition/GEM_ERP_PR_Communication_InfoReq|1.2" ]
      },
      "contained" : [ {
        "resourceType" : "Medication",
        "id" : "95f22f23-7069-45d9-838d-a3c1d5089cee",
        "meta" : {
          "profile" : [ "https://fhir.kbv.de/StructureDefinition/KBV_PR_ERP_Medication_PZN|1.1.0" ]
        },
        "extension" : [ {
          "url" : "https://fhir.kbv.de/StructureDefinition/KBV_EX_Base_Medication_Type",
          "valueCodeableConcept" : {
            "coding" : [ {
              "system" : "http://snomed.info/sct",
              "version" : "http://snomed.info/sct/900000000000207008/version/20220331",
              "code" : "763158003",
              "display" : "Medicinal product (product)"
            } ]
          }
        }, {
          "url" : "https://fhir.kbv.de/StructureDefinition/KBV_EX_ERP_Medication_Category",
          "valueCoding" : {
            "system" : "https://fhir.kbv.de/CodeSystem/KBV_CS_ERP_Medication_Category",
            "code" : "00"
          }
        }, {
          "url" : "https://fhir.kbv.de/StructureDefinition/KBV_EX_ERP_Medication_Vaccine",
          "valueBoolean" : false
        }, {
          "url" : "http://fhir.de/StructureDefinition/normgroesse",
          "valueCode" : "NB"
        } ],
        "code" : {
          "coding" : [ {
            "system" : "http://fhir.de/CodeSystem/ifa/pzn",
            "code" : "12345678"
          } ],
          "text" : "Schmerzmittel"
        },
        "form" : {
          "coding" : [ {
            "system" : "https://fhir.kbv.de/CodeSystem/KBV_CS_SFHIR_KBV_DARREICHUNGSFORM",
            "code" : "TAB"
          } ]
        },
        "amount" : {
          "numerator" : {
            "extension" : [ {
              "url" : "https://fhir.kbv.de/StructureDefinition/KBV_EX_ERP_Medication_PackagingSize",
              "valueString" : "1"
            } ],
            "unit" : "Stk"
          },
          "denominator" : {
            "value" : 1
          }
        }
      } ],
      "basedOn" : [ {
        "reference" : "Task/160.000.006.394.612.08"
      } ],
      "status" : "unknown",
      "about" : [ {
        "reference" : "#95f22f23-7069-45d9-838d-a3c1d5089cee"
      } ],
      "sent" : "2023-10-13T00:20:21.100+00:00",
      "recipient" : [ {
        "identifier" : {
          "system" : "https://gematik.de/fhir/sid/telematik-id",
          "value" : "1-2-ARZT-BerndClaudius01"
        }
      } ],
      "sender" : {
        "identifier" : {
          "system" : "http://fhir.de/sid/gkv/kvid-10",
          "value" : "X110498565"
        }
      },
      "payload" : [ {
        "extension" : [ {
          "url" : "https://gematik.de/fhir/erp/StructureDefinition/GEM_ERP_EX_InsuranceProvider",
          "valueIdentifier" : {
            "system" : "http://fhir.de/sid/arge-ik/iknr",
            "value" : "108433099"
          }
        }, {
          "url" : "https://gematik.de/fhir/erp/StructureDefinition/GEM_ERP_EX_SubstitutionAllowedType",
          "valueBoolean" : true
        }, {
          "url" : "https://gematik.de/fhir/erp/StructureDefinition/GEM_ERP_EX_PrescriptionType",
          "valueCoding" : {
            "system" : "https://gematik.de/fhir/erp/CodeSystem/GEM_ERP_CS_FlowType",
            "code" : "160",
            "display" : "Muster 16 (Apothekenpflichtige Arzneimittel)"
          }
        } ],
        "contentString" : "I won't enjoy it."
      } ]
    },
    "search" : {
      "mode" : "match"
    }
  }, {
    "fullUrl" : "https://erp-test.zentral.erp.splitdns.ti-dienste.de/Communication/01ebb157-b2be-38b0-4d1d-e9cfc21fb62f",
    "resource" : {
      "resourceType" : "Communication",
      "id" : "01ebb157-b2be-38b0-4d1d-e9cfc21fb62f",
      "meta" : {
        "profile" : [ "https://gematik.de/fhir/erp/StructureDefinition/GEM_ERP_PR_Communication_InfoReq|1.2" ]
      },
      "contained" : [ {
        "resourceType" : "Medication",
        "id" : "dff23011-b414-4335-823f-7a894b72d513",
        "meta" : {
          "profile" : [ "https://fhir.kbv.de/StructureDefinition/KBV_PR_ERP_Medication_PZN|1.1.0" ]
        },
        "extension" : [ {
          "url" : "https://fhir.kbv.de/StructureDefinition/KBV_EX_Base_Medication_Type",
          "valueCodeableConcept" : {
            "coding" : [ {
              "system" : "http://snomed.info/sct",
              "version" : "http://snomed.info/sct/900000000000207008/version/20220331",
              "code" : "763158003",
              "display" : "Medicinal product (product)"
            } ]
          }
        }, {
          "url" : "https://fhir.kbv.de/StructureDefinition/KBV_EX_ERP_Medication_Category",
          "valueCoding" : {
            "system" : "https://fhir.kbv.de/CodeSystem/KBV_CS_ERP_Medication_Category",
            "code" : "00"
          }
        }, {
          "url" : "https://fhir.kbv.de/StructureDefinition/KBV_EX_ERP_Medication_Vaccine",
          "valueBoolean" : false
        }, {
          "url" : "http://fhir.de/StructureDefinition/normgroesse",
          "valueCode" : "NB"
        } ],
        "code" : {
          "coding" : [ {
            "system" : "http://fhir.de/CodeSystem/ifa/pzn",
            "code" : "12345678"
          } ],
          "text" : "Schmerzmittel"
        },
        "form" : {
          "coding" : [ {
            "system" : "https://fhir.kbv.de/CodeSystem/KBV_CS_SFHIR_KBV_DARREICHUNGSFORM",
            "code" : "TAB"
          } ]
        },
        "amount" : {
          "numerator" : {
            "extension" : [ {
              "url" : "https://fhir.kbv.de/StructureDefinition/KBV_EX_ERP_Medication_PackagingSize",
              "valueString" : "1"
            } ],
            "unit" : "Stk"
          },
          "denominator" : {
            "value" : 1
          }
        }
      } ],
      "basedOn" : [ {
        "reference" : "Task/160.000.006.394.228.93"
      } ],
      "status" : "unknown",
      "about" : [ {
        "reference" : "#dff23011-b414-4335-823f-7a894b72d513"
      } ],
      "sent" : "2023-10-12T00:16:24.014+00:00",
      "recipient" : [ {
        "identifier" : {
          "system" : "https://gematik.de/fhir/sid/telematik-id",
          "value" : "1-2-ARZT-BerndClaudius01"
        }
      } ],
      "sender" : {
        "identifier" : {
          "system" : "http://fhir.de/sid/gkv/kvid-10",
          "value" : "X110498565"
        }
      },
      "payload" : [ {
        "extension" : [ {
          "url" : "https://gematik.de/fhir/erp/StructureDefinition/GEM_ERP_EX_InsuranceProvider",
          "valueIdentifier" : {
            "system" : "http://fhir.de/sid/arge-ik/iknr",
            "value" : "104424794"
          }
        }, {
          "url" : "https://gematik.de/fhir/erp/StructureDefinition/GEM_ERP_EX_SubstitutionAllowedType",
          "valueBoolean" : true
        }, {
          "url" : "https://gematik.de/fhir/erp/StructureDefinition/GEM_ERP_EX_PrescriptionType",
          "valueCoding" : {
            "system" : "https://gematik.de/fhir/erp/CodeSystem/GEM_ERP_CS_FlowType",
            "code" : "160",
            "display" : "Muster 16 (Apothekenpflichtige Arzneimittel)"
          }
        } ],
        "contentString" : "I wish you'd just tell me rather trying to engage my enthusiasm, because I haven't got one."
      } ]
    },
    "search" : {
      "mode" : "match"
    }
  }, {
    "fullUrl" : "https://erp-test.zentral.erp.splitdns.ti-dienste.de/Communication/01ebb143-98a1-aa48-cd78-8c39f1e59c1e",
    "resource" : {
      "resourceType" : "Communication",
      "id" : "01ebb143-98a1-aa48-cd78-8c39f1e59c1e",
      "meta" : {
        "profile" : [ "https://gematik.de/fhir/erp/StructureDefinition/GEM_ERP_PR_Communication_InfoReq|1.2" ]
      },
      "contained" : [ {
        "resourceType" : "Medication",
        "id" : "b8d8ba0c-6be5-4b74-bc7f-004e96d69188",
        "meta" : {
          "profile" : [ "https://fhir.kbv.de/StructureDefinition/KBV_PR_ERP_Medication_PZN|1.1.0" ]
        },
        "extension" : [ {
          "url" : "https://fhir.kbv.de/StructureDefinition/KBV_EX_Base_Medication_Type",
          "valueCodeableConcept" : {
            "coding" : [ {
              "system" : "http://snomed.info/sct",
              "version" : "http://snomed.info/sct/900000000000207008/version/20220331",
              "code" : "763158003",
              "display" : "Medicinal product (product)"
            } ]
          }
        }, {
          "url" : "https://fhir.kbv.de/StructureDefinition/KBV_EX_ERP_Medication_Category",
          "valueCoding" : {
            "system" : "https://fhir.kbv.de/CodeSystem/KBV_CS_ERP_Medication_Category",
            "code" : "00"
          }
        }, {
          "url" : "https://fhir.kbv.de/StructureDefinition/KBV_EX_ERP_Medication_Vaccine",
          "valueBoolean" : false
        }, {
          "url" : "http://fhir.de/StructureDefinition/normgroesse",
          "valueCode" : "NB"
        } ],
        "code" : {
          "coding" : [ {
            "system" : "http://fhir.de/CodeSystem/ifa/pzn",
            "code" : "12345678"
          } ],
          "text" : "Schmerzmittel"
        },
        "form" : {
          "coding" : [ {
            "system" : "https://fhir.kbv.de/CodeSystem/KBV_CS_SFHIR_KBV_DARREICHUNGSFORM",
            "code" : "TAB"
          } ]
        },
        "amount" : {
          "numerator" : {
            "extension" : [ {
              "url" : "https://fhir.kbv.de/StructureDefinition/KBV_EX_ERP_Medication_PackagingSize",
              "valueString" : "1"
            } ],
            "unit" : "Stk"
          },
          "denominator" : {
            "value" : 1
          }
        }
      } ],
      "basedOn" : [ {
        "reference" : "Task/160.000.006.393.818.62"
      } ],
      "status" : "unknown",
      "about" : [ {
        "reference" : "#b8d8ba0c-6be5-4b74-bc7f-004e96d69188"
      } ],
      "sent" : "2023-10-11T00:17:26.589+00:00",
      "recipient" : [ {
        "identifier" : {
          "system" : "https://gematik.de/fhir/sid/telematik-id",
          "value" : "1-2-ARZT-BerndClaudius01"
        }
      } ],
      "sender" : {
        "identifier" : {
          "system" : "http://fhir.de/sid/gkv/kvid-10",
          "value" : "X110498565"
        }
      },
      "payload" : [ {
        "extension" : [ {
          "url" : "https://gematik.de/fhir/erp/StructureDefinition/GEM_ERP_EX_InsuranceProvider",
          "valueIdentifier" : {
            "system" : "http://fhir.de/sid/arge-ik/iknr",
            "value" : "108036441"
          }
        }, {
          "url" : "https://gematik.de/fhir/erp/StructureDefinition/GEM_ERP_EX_SubstitutionAllowedType",
          "valueBoolean" : true
        }, {
          "url" : "https://gematik.de/fhir/erp/StructureDefinition/GEM_ERP_EX_PrescriptionType",
          "valueCoding" : {
            "system" : "https://gematik.de/fhir/erp/CodeSystem/GEM_ERP_CS_FlowType",
            "code" : "160",
            "display" : "Muster 16 (Apothekenpflichtige Arzneimittel)"
          }
        } ],
        "contentString" : "I won't enjoy it."
      } ]
    },
    "search" : {
      "mode" : "match"
    }
  }, {
    "fullUrl" : "https://erp-test.zentral.erp.splitdns.ti-dienste.de/Communication/01ebb12f-7e20-89c8-79e3-1fcb32ecbd37",
    "resource" : {
      "resourceType" : "Communication",
      "id" : "01ebb12f-7e20-89c8-79e3-1fcb32ecbd37",
      "meta" : {
        "profile" : [ "https://gematik.de/fhir/erp/StructureDefinition/GEM_ERP_PR_Communication_InfoReq|1.2" ]
      },
      "contained" : [ {
        "resourceType" : "Medication",
        "id" : "4eb5d160-46ef-4f0e-8dbe-8820fd12d027",
        "meta" : {
          "profile" : [ "https://fhir.kbv.de/StructureDefinition/KBV_PR_ERP_Medication_PZN|1.1.0" ]
        },
        "extension" : [ {
          "url" : "https://fhir.kbv.de/StructureDefinition/KBV_EX_Base_Medication_Type",
          "valueCodeableConcept" : {
            "coding" : [ {
              "system" : "http://snomed.info/sct",
              "version" : "http://snomed.info/sct/900000000000207008/version/20220331",
              "code" : "763158003",
              "display" : "Medicinal product (product)"
            } ]
          }
        }, {
          "url" : "https://fhir.kbv.de/StructureDefinition/KBV_EX_ERP_Medication_Category",
          "valueCoding" : {
            "system" : "https://fhir.kbv.de/CodeSystem/KBV_CS_ERP_Medication_Category",
            "code" : "00"
          }
        }, {
          "url" : "https://fhir.kbv.de/StructureDefinition/KBV_EX_ERP_Medication_Vaccine",
          "valueBoolean" : false
        }, {
          "url" : "http://fhir.de/StructureDefinition/normgroesse",
          "valueCode" : "NB"
        } ],
        "code" : {
          "coding" : [ {
            "system" : "http://fhir.de/CodeSystem/ifa/pzn",
            "code" : "12345678"
          } ],
          "text" : "Schmerzmittel"
        },
        "form" : {
          "coding" : [ {
            "system" : "https://fhir.kbv.de/CodeSystem/KBV_CS_SFHIR_KBV_DARREICHUNGSFORM",
            "code" : "TAB"
          } ]
        },
        "amount" : {
          "numerator" : {
            "extension" : [ {
              "url" : "https://fhir.kbv.de/StructureDefinition/KBV_EX_ERP_Medication_PackagingSize",
              "valueString" : "1"
            } ],
            "unit" : "Stk"
          },
          "denominator" : {
            "value" : 1
          }
        }
      } ],
      "basedOn" : [ {
        "reference" : "Task/160.000.006.393.432.56"
      } ],
      "status" : "unknown",
      "about" : [ {
        "reference" : "#4eb5d160-46ef-4f0e-8dbe-8820fd12d027"
      } ],
      "sent" : "2023-10-10T00:18:22.573+00:00",
      "recipient" : [ {
        "identifier" : {
          "system" : "https://gematik.de/fhir/sid/telematik-id",
          "value" : "1-2-ARZT-BerndClaudius01"
        }
      } ],
      "sender" : {
        "identifier" : {
          "system" : "http://fhir.de/sid/gkv/kvid-10",
          "value" : "X110498565"
        }
      },
      "payload" : [ {
        "extension" : [ {
          "url" : "https://gematik.de/fhir/erp/StructureDefinition/GEM_ERP_EX_InsuranceProvider",
          "valueIdentifier" : {
            "system" : "http://fhir.de/sid/arge-ik/iknr",
            "value" : "107536171"
          }
        }, {
          "url" : "https://gematik.de/fhir/erp/StructureDefinition/GEM_ERP_EX_SubstitutionAllowedType",
          "valueBoolean" : true
        }, {
          "url" : "https://gematik.de/fhir/erp/StructureDefinition/GEM_ERP_EX_PrescriptionType",
          "valueCoding" : {
            "system" : "https://gematik.de/fhir/erp/CodeSystem/GEM_ERP_CS_FlowType",
            "code" : "160",
            "display" : "Muster 16 (Apothekenpflichtige Arzneimittel)"
          }
        } ],
        "contentString" : "And then of course I've got this terrible pain in all the diodes down my left side."
      } ]
    },
    "search" : {
      "mode" : "match"
    }
  }, {
    "fullUrl" : "https://erp-test.zentral.erp.splitdns.ti-dienste.de/Communication/01ebb120-f81d-f5f8-86e2-943e9d0275af",
    "resource" : {
      "resourceType" : "Communication",
      "id" : "01ebb120-f81d-f5f8-86e2-943e9d0275af",
      "meta" : {
        "profile" : [ "https://gematik.de/fhir/erp/StructureDefinition/GEM_ERP_PR_Communication_InfoReq|1.2" ]
      },
      "contained" : [ {
        "resourceType" : "Medication",
        "id" : "9ba0ac2d-083d-45c5-a017-a681e731ccde",
        "meta" : {
          "profile" : [ "https://fhir.kbv.de/StructureDefinition/KBV_PR_ERP_Medication_PZN|1.1.0" ]
        },
        "extension" : [ {
          "url" : "https://fhir.kbv.de/StructureDefinition/KBV_EX_Base_Medication_Type",
          "valueCodeableConcept" : {
            "coding" : [ {
              "system" : "http://snomed.info/sct",
              "version" : "http://snomed.info/sct/900000000000207008/version/20220331",
              "code" : "763158003",
              "display" : "Medicinal product (product)"
            } ]
          }
        }, {
          "url" : "https://fhir.kbv.de/StructureDefinition/KBV_EX_ERP_Medication_Category",
          "valueCoding" : {
            "system" : "https://fhir.kbv.de/CodeSystem/KBV_CS_ERP_Medication_Category",
            "code" : "00"
          }
        }, {
          "url" : "https://fhir.kbv.de/StructureDefinition/KBV_EX_ERP_Medication_Vaccine",
          "valueBoolean" : false
        }, {
          "url" : "http://fhir.de/StructureDefinition/normgroesse",
          "valueCode" : "NB"
        } ],
        "code" : {
          "coding" : [ {
            "system" : "http://fhir.de/CodeSystem/ifa/pzn",
            "code" : "12345678"
          } ],
          "text" : "Schmerzmittel"
        },
        "form" : {
          "coding" : [ {
            "system" : "https://fhir.kbv.de/CodeSystem/KBV_CS_SFHIR_KBV_DARREICHUNGSFORM",
            "code" : "TAB"
          } ]
        },
        "amount" : {
          "numerator" : {
            "extension" : [ {
              "url" : "https://fhir.kbv.de/StructureDefinition/KBV_EX_ERP_Medication_PackagingSize",
              "valueString" : "1"
            } ],
            "unit" : "Stk"
          },
          "denominator" : {
            "value" : 1
          }
        }
      } ],
      "basedOn" : [ {
        "reference" : "Task/160.000.006.393.049.41"
      } ],
      "status" : "unknown",
      "about" : [ {
        "reference" : "#9ba0ac2d-083d-45c5-a017-a681e731ccde"
      } ],
      "sent" : "2023-10-09T06:58:44.715+00:00",
      "recipient" : [ {
        "identifier" : {
          "system" : "https://gematik.de/fhir/sid/telematik-id",
          "value" : "1-2-ARZT-BerndClaudius01"
        }
      } ],
      "sender" : {
        "identifier" : {
          "system" : "http://fhir.de/sid/gkv/kvid-10",
          "value" : "X110498565"
        }
      },
      "payload" : [ {
        "extension" : [ {
          "url" : "https://gematik.de/fhir/erp/StructureDefinition/GEM_ERP_EX_InsuranceProvider",
          "valueIdentifier" : {
            "system" : "http://fhir.de/sid/arge-ik/iknr",
            "value" : "108018007"
          }
        }, {
          "url" : "https://gematik.de/fhir/erp/StructureDefinition/GEM_ERP_EX_SubstitutionAllowedType",
          "valueBoolean" : true
        }, {
          "url" : "https://gematik.de/fhir/erp/StructureDefinition/GEM_ERP_EX_PrescriptionType",
          "valueCoding" : {
            "system" : "https://gematik.de/fhir/erp/CodeSystem/GEM_ERP_CS_FlowType",
            "code" : "160",
            "display" : "Muster 16 (Apothekenpflichtige Arzneimittel)"
          }
        } ],
        "contentString" : "You think you've got problems? What are you supposed to do if you are a manically depressed robot? No, don't try to answer that. I'm fifty thousand times more intelligent than you and even I don't know the answer. It gives me a headache just trying to think down to your level."
      } ]
    },
    "search" : {
      "mode" : "match"
    }
  }, {
    "fullUrl" : "https://erp-test.zentral.erp.splitdns.ti-dienste.de/Communication/01ebb11f-5def-7db8-6d4d-7e2512c5c3cf",
    "resource" : {
      "resourceType" : "Communication",
      "id" : "01ebb11f-5def-7db8-6d4d-7e2512c5c3cf",
      "meta" : {
        "profile" : [ "https://gematik.de/fhir/erp/StructureDefinition/GEM_ERP_PR_Communication_InfoReq|1.2" ]
      },
      "contained" : [ {
        "resourceType" : "Medication",
        "id" : "d4a699ae-d15e-4519-86cf-1c81dba223d2",
        "meta" : {
          "profile" : [ "https://fhir.kbv.de/StructureDefinition/KBV_PR_ERP_Medication_PZN|1.1.0" ]
        },
        "extension" : [ {
          "url" : "https://fhir.kbv.de/StructureDefinition/KBV_EX_Base_Medication_Type",
          "valueCodeableConcept" : {
            "coding" : [ {
              "system" : "http://snomed.info/sct",
              "version" : "http://snomed.info/sct/900000000000207008/version/20220331",
              "code" : "763158003",
              "display" : "Medicinal product (product)"
            } ]
          }
        }, {
          "url" : "https://fhir.kbv.de/StructureDefinition/KBV_EX_ERP_Medication_Category",
          "valueCoding" : {
            "system" : "https://fhir.kbv.de/CodeSystem/KBV_CS_ERP_Medication_Category",
            "code" : "00"
          }
        }, {
          "url" : "https://fhir.kbv.de/StructureDefinition/KBV_EX_ERP_Medication_Vaccine",
          "valueBoolean" : false
        }, {
          "url" : "http://fhir.de/StructureDefinition/normgroesse",
          "valueCode" : "NB"
        } ],
        "code" : {
          "coding" : [ {
            "system" : "http://fhir.de/CodeSystem/ifa/pzn",
            "code" : "12345678"
          } ],
          "text" : "Schmerzmittel"
        },
        "form" : {
          "coding" : [ {
            "system" : "https://fhir.kbv.de/CodeSystem/KBV_CS_SFHIR_KBV_DARREICHUNGSFORM",
            "code" : "TAB"
          } ]
        },
        "amount" : {
          "numerator" : {
            "extension" : [ {
              "url" : "https://fhir.kbv.de/StructureDefinition/KBV_EX_ERP_Medication_PackagingSize",
              "valueString" : "1"
            } ],
            "unit" : "Stk"
          },
          "denominator" : {
            "value" : 1
          }
        }
      } ],
      "basedOn" : [ {
        "reference" : "Task/160.000.006.392.712.82"
      } ],
      "status" : "unknown",
      "about" : [ {
        "reference" : "#d4a699ae-d15e-4519-86cf-1c81dba223d2"
      } ],
      "sent" : "2023-10-09T05:04:03.011+00:00",
      "recipient" : [ {
        "identifier" : {
          "system" : "https://gematik.de/fhir/sid/telematik-id",
          "value" : "1-2-ARZT-BerndClaudius01"
        }
      } ],
      "sender" : {
        "identifier" : {
          "system" : "http://fhir.de/sid/gkv/kvid-10",
          "value" : "X110498565"
        }
      },
      "payload" : [ {
        "extension" : [ {
          "url" : "https://gematik.de/fhir/erp/StructureDefinition/GEM_ERP_EX_InsuranceProvider",
          "valueIdentifier" : {
            "system" : "http://fhir.de/sid/arge-ik/iknr",
            "value" : "107536171"
          }
        }, {
          "url" : "https://gematik.de/fhir/erp/StructureDefinition/GEM_ERP_EX_SubstitutionAllowedType",
          "valueBoolean" : true
        }, {
          "url" : "https://gematik.de/fhir/erp/StructureDefinition/GEM_ERP_EX_PrescriptionType",
          "valueCoding" : {
            "system" : "https://gematik.de/fhir/erp/CodeSystem/GEM_ERP_CS_FlowType",
            "code" : "160",
            "display" : "Muster 16 (Apothekenpflichtige Arzneimittel)"
          }
        } ],
        "contentString" : "I wish you'd just tell me rather trying to engage my enthusiasm, because I haven't got one."
      } ]
    },
    "search" : {
      "mode" : "match"
    }
  }, {
    "fullUrl" : "https://erp-test.zentral.erp.splitdns.ti-dienste.de/Communication/01ebb107-3cae-7a18-8990-661d54ac082b",
    "resource" : {
      "resourceType" : "Communication",
      "id" : "01ebb107-3cae-7a18-8990-661d54ac082b",
      "meta" : {
        "profile" : [ "https://gematik.de/fhir/erp/StructureDefinition/GEM_ERP_PR_Communication_InfoReq|1.2" ]
      },
      "contained" : [ {
        "resourceType" : "Medication",
        "id" : "f556eee4-e975-4de5-a993-fdb2450dcb18",
        "meta" : {
          "profile" : [ "https://fhir.kbv.de/StructureDefinition/KBV_PR_ERP_Medication_PZN|1.1.0" ]
        },
        "extension" : [ {
          "url" : "https://fhir.kbv.de/StructureDefinition/KBV_EX_Base_Medication_Type",
          "valueCodeableConcept" : {
            "coding" : [ {
              "system" : "http://snomed.info/sct",
              "version" : "http://snomed.info/sct/900000000000207008/version/20220331",
              "code" : "763158003",
              "display" : "Medicinal product (product)"
            } ]
          }
        }, {
          "url" : "https://fhir.kbv.de/StructureDefinition/KBV_EX_ERP_Medication_Category",
          "valueCoding" : {
            "system" : "https://fhir.kbv.de/CodeSystem/KBV_CS_ERP_Medication_Category",
            "code" : "00"
          }
        }, {
          "url" : "https://fhir.kbv.de/StructureDefinition/KBV_EX_ERP_Medication_Vaccine",
          "valueBoolean" : false
        }, {
          "url" : "http://fhir.de/StructureDefinition/normgroesse",
          "valueCode" : "NB"
        } ],
        "code" : {
          "coding" : [ {
            "system" : "http://fhir.de/CodeSystem/ifa/pzn",
            "code" : "12345678"
          } ],
          "text" : "Schmerzmittel"
        },
        "form" : {
          "coding" : [ {
            "system" : "https://fhir.kbv.de/CodeSystem/KBV_CS_SFHIR_KBV_DARREICHUNGSFORM",
            "code" : "TAB"
          } ]
        },
        "amount" : {
          "numerator" : {
            "extension" : [ {
              "url" : "https://fhir.kbv.de/StructureDefinition/KBV_EX_ERP_Medication_PackagingSize",
              "valueString" : "1"
            } ],
            "unit" : "Stk"
          },
          "denominator" : {
            "value" : 1
          }
        }
      } ],
      "basedOn" : [ {
        "reference" : "Task/160.000.006.392.328.70"
      } ],
      "status" : "unknown",
      "about" : [ {
        "reference" : "#f556eee4-e975-4de5-a993-fdb2450dcb18"
      } ],
      "sent" : "2023-10-08T00:16:45.887+00:00",
      "recipient" : [ {
        "identifier" : {
          "system" : "https://gematik.de/fhir/sid/telematik-id",
          "value" : "1-2-ARZT-BerndClaudius01"
        }
      } ],
      "sender" : {
        "identifier" : {
          "system" : "http://fhir.de/sid/gkv/kvid-10",
          "value" : "X110498565"
        }
      },
      "payload" : [ {
        "extension" : [ {
          "url" : "https://gematik.de/fhir/erp/StructureDefinition/GEM_ERP_EX_InsuranceProvider",
          "valueIdentifier" : {
            "system" : "http://fhir.de/sid/arge-ik/iknr",
            "value" : "107531187"
          }
        }, {
          "url" : "https://gematik.de/fhir/erp/StructureDefinition/GEM_ERP_EX_SubstitutionAllowedType",
          "valueBoolean" : true
        }, {
          "url" : "https://gematik.de/fhir/erp/StructureDefinition/GEM_ERP_EX_PrescriptionType",
          "valueCoding" : {
            "system" : "https://gematik.de/fhir/erp/CodeSystem/GEM_ERP_CS_FlowType",
            "code" : "160",
            "display" : "Muster 16 (Apothekenpflichtige Arzneimittel)"
          }
        } ],
        "contentString" : "I won't enjoy it."
      } ]
    },
    "search" : {
      "mode" : "match"
    }
  }, {
    "fullUrl" : "https://erp-test.zentral.erp.splitdns.ti-dienste.de/Communication/01ebb0f3-2495-c648-3fef-e2e054c80c6b",
    "resource" : {
      "resourceType" : "Communication",
      "id" : "01ebb0f3-2495-c648-3fef-e2e054c80c6b",
      "meta" : {
        "profile" : [ "https://gematik.de/fhir/erp/StructureDefinition/GEM_ERP_PR_Communication_InfoReq|1.2" ]
      },
      "contained" : [ {
        "resourceType" : "Medication",
        "id" : "181ae520-64d3-44ef-bd98-d856cb85e0ea",
        "meta" : {
          "profile" : [ "https://fhir.kbv.de/StructureDefinition/KBV_PR_ERP_Medication_PZN|1.1.0" ]
        },
        "extension" : [ {
          "url" : "https://fhir.kbv.de/StructureDefinition/KBV_EX_Base_Medication_Type",
          "valueCodeableConcept" : {
            "coding" : [ {
              "system" : "http://snomed.info/sct",
              "version" : "http://snomed.info/sct/900000000000207008/version/20220331",
              "code" : "763158003",
              "display" : "Medicinal product (product)"
            } ]
          }
        }, {
          "url" : "https://fhir.kbv.de/StructureDefinition/KBV_EX_ERP_Medication_Category",
          "valueCoding" : {
            "system" : "https://fhir.kbv.de/CodeSystem/KBV_CS_ERP_Medication_Category",
            "code" : "00"
          }
        }, {
          "url" : "https://fhir.kbv.de/StructureDefinition/KBV_EX_ERP_Medication_Vaccine",
          "valueBoolean" : false
        }, {
          "url" : "http://fhir.de/StructureDefinition/normgroesse",
          "valueCode" : "NB"
        } ],
        "code" : {
          "coding" : [ {
            "system" : "http://fhir.de/CodeSystem/ifa/pzn",
            "code" : "12345678"
          } ],
          "text" : "Schmerzmittel"
        },
        "form" : {
          "coding" : [ {
            "system" : "https://fhir.kbv.de/CodeSystem/KBV_CS_SFHIR_KBV_DARREICHUNGSFORM",
            "code" : "TAB"
          } ]
        },
        "amount" : {
          "numerator" : {
            "extension" : [ {
              "url" : "https://fhir.kbv.de/StructureDefinition/KBV_EX_ERP_Medication_PackagingSize",
              "valueString" : "1"
            } ],
            "unit" : "Stk"
          },
          "denominator" : {
            "value" : 1
          }
        }
      } ],
      "basedOn" : [ {
        "reference" : "Task/160.000.006.391.945.55"
      } ],
      "status" : "unknown",
      "about" : [ {
        "reference" : "#181ae520-64d3-44ef-bd98-d856cb85e0ea"
      } ],
      "sent" : "2023-10-07T00:18:22.269+00:00",
      "recipient" : [ {
        "identifier" : {
          "system" : "https://gematik.de/fhir/sid/telematik-id",
          "value" : "1-2-ARZT-BerndClaudius01"
        }
      } ],
      "sender" : {
        "identifier" : {
          "system" : "http://fhir.de/sid/gkv/kvid-10",
          "value" : "X110498565"
        }
      },
      "payload" : [ {
        "extension" : [ {
          "url" : "https://gematik.de/fhir/erp/StructureDefinition/GEM_ERP_EX_InsuranceProvider",
          "valueIdentifier" : {
            "system" : "http://fhir.de/sid/arge-ik/iknr",
            "value" : "105723301"
          }
        }, {
          "url" : "https://gematik.de/fhir/erp/StructureDefinition/GEM_ERP_EX_SubstitutionAllowedType",
          "valueBoolean" : true
        }, {
          "url" : "https://gematik.de/fhir/erp/StructureDefinition/GEM_ERP_EX_PrescriptionType",
          "valueCoding" : {
            "system" : "https://gematik.de/fhir/erp/CodeSystem/GEM_ERP_CS_FlowType",
            "code" : "160",
            "display" : "Muster 16 (Apothekenpflichtige Arzneimittel)"
          }
        } ],
        "contentString" : "I think you ought to know I'm feeling very depressed."
      } ]
    },
    "search" : {
      "mode" : "match"
    }
  }, {
    "fullUrl" : "https://erp-test.zentral.erp.splitdns.ti-dienste.de/Communication/01ebb0df-0ac2-75e0-6305-968e5f32b83d",
    "resource" : {
      "resourceType" : "Communication",
      "id" : "01ebb0df-0ac2-75e0-6305-968e5f32b83d",
      "meta" : {
        "profile" : [ "https://gematik.de/fhir/erp/StructureDefinition/GEM_ERP_PR_Communication_InfoReq|1.2" ]
      },
      "contained" : [ {
        "resourceType" : "Medication",
        "id" : "d1ec0be4-6c3d-4d1f-bd01-35685ac72d43",
        "meta" : {
          "profile" : [ "https://fhir.kbv.de/StructureDefinition/KBV_PR_ERP_Medication_PZN|1.1.0" ]
        },
        "extension" : [ {
          "url" : "https://fhir.kbv.de/StructureDefinition/KBV_EX_Base_Medication_Type",
          "valueCodeableConcept" : {
            "coding" : [ {
              "system" : "http://snomed.info/sct",
              "version" : "http://snomed.info/sct/900000000000207008/version/20220331",
              "code" : "763158003",
              "display" : "Medicinal product (product)"
            } ]
          }
        }, {
          "url" : "https://fhir.kbv.de/StructureDefinition/KBV_EX_ERP_Medication_Category",
          "valueCoding" : {
            "system" : "https://fhir.kbv.de/CodeSystem/KBV_CS_ERP_Medication_Category",
            "code" : "00"
          }
        }, {
          "url" : "https://fhir.kbv.de/StructureDefinition/KBV_EX_ERP_Medication_Vaccine",
          "valueBoolean" : false
        }, {
          "url" : "http://fhir.de/StructureDefinition/normgroesse",
          "valueCode" : "NB"
        } ],
        "code" : {
          "coding" : [ {
            "system" : "http://fhir.de/CodeSystem/ifa/pzn",
            "code" : "12345678"
          } ],
          "text" : "Schmerzmittel"
        },
        "form" : {
          "coding" : [ {
            "system" : "https://fhir.kbv.de/CodeSystem/KBV_CS_SFHIR_KBV_DARREICHUNGSFORM",
            "code" : "TAB"
          } ]
        },
        "amount" : {
          "numerator" : {
            "extension" : [ {
              "url" : "https://fhir.kbv.de/StructureDefinition/KBV_EX_ERP_Medication_PackagingSize",
              "valueString" : "1"
            } ],
            "unit" : "Stk"
          },
          "denominator" : {
            "value" : 1
          }
        }
      } ],
      "basedOn" : [ {
        "reference" : "Task/160.000.006.391.557.55"
      } ],
      "status" : "unknown",
      "about" : [ {
        "reference" : "#d1ec0be4-6c3d-4d1f-bd01-35685ac72d43"
      } ],
      "sent" : "2023-10-06T00:19:29.644+00:00",
      "recipient" : [ {
        "identifier" : {
          "system" : "https://gematik.de/fhir/sid/telematik-id",
          "value" : "1-2-ARZT-BerndClaudius01"
        }
      } ],
      "sender" : {
        "identifier" : {
          "system" : "http://fhir.de/sid/gkv/kvid-10",
          "value" : "X110498565"
        }
      },
      "payload" : [ {
        "extension" : [ {
          "url" : "https://gematik.de/fhir/erp/StructureDefinition/GEM_ERP_EX_InsuranceProvider",
          "valueIdentifier" : {
            "system" : "http://fhir.de/sid/arge-ik/iknr",
            "value" : "101520078"
          }
        }, {
          "url" : "https://gematik.de/fhir/erp/StructureDefinition/GEM_ERP_EX_SubstitutionAllowedType",
          "valueBoolean" : true
        }, {
          "url" : "https://gematik.de/fhir/erp/StructureDefinition/GEM_ERP_EX_PrescriptionType",
          "valueCoding" : {
            "system" : "https://gematik.de/fhir/erp/CodeSystem/GEM_ERP_CS_FlowType",
            "code" : "160",
            "display" : "Muster 16 (Apothekenpflichtige Arzneimittel)"
          }
        } ],
        "contentString" : "Here I am, brain the size of a planet, and they tell me to take you up to the bridge. Call that job satisfaction? 'Cos I don't."
      } ]
    },
    "search" : {
      "mode" : "match"
    }
  }, {
    "fullUrl" : "https://erp-test.zentral.erp.splitdns.ti-dienste.de/Communication/01ebb0ca-e558-f9a0-931f-6acd6ea1975d",
    "resource" : {
      "resourceType" : "Communication",
      "id" : "01ebb0ca-e558-f9a0-931f-6acd6ea1975d",
      "meta" : {
        "profile" : [ "https://gematik.de/fhir/erp/StructureDefinition/GEM_ERP_PR_Communication_InfoReq|1.2" ]
      },
      "contained" : [ {
        "resourceType" : "Medication",
        "id" : "121663ea-1e97-4e25-8ae0-57470fffee34",
        "meta" : {
          "profile" : [ "https://fhir.kbv.de/StructureDefinition/KBV_PR_ERP_Medication_PZN|1.1.0" ]
        },
        "extension" : [ {
          "url" : "https://fhir.kbv.de/StructureDefinition/KBV_EX_Base_Medication_Type",
          "valueCodeableConcept" : {
            "coding" : [ {
              "system" : "http://snomed.info/sct",
              "version" : "http://snomed.info/sct/900000000000207008/version/20220331",
              "code" : "763158003",
              "display" : "Medicinal product (product)"
            } ]
          }
        }, {
          "url" : "https://fhir.kbv.de/StructureDefinition/KBV_EX_ERP_Medication_Category",
          "valueCoding" : {
            "system" : "https://fhir.kbv.de/CodeSystem/KBV_CS_ERP_Medication_Category",
            "code" : "00"
          }
        }, {
          "url" : "https://fhir.kbv.de/StructureDefinition/KBV_EX_ERP_Medication_Vaccine",
          "valueBoolean" : false
        }, {
          "url" : "http://fhir.de/StructureDefinition/normgroesse",
          "valueCode" : "NB"
        } ],
        "code" : {
          "coding" : [ {
            "system" : "http://fhir.de/CodeSystem/ifa/pzn",
            "code" : "12345678"
          } ],
          "text" : "Schmerzmittel"
        },
        "form" : {
          "coding" : [ {
            "system" : "https://fhir.kbv.de/CodeSystem/KBV_CS_SFHIR_KBV_DARREICHUNGSFORM",
            "code" : "TAB"
          } ]
        },
        "amount" : {
          "numerator" : {
            "extension" : [ {
              "url" : "https://fhir.kbv.de/StructureDefinition/KBV_EX_ERP_Medication_PackagingSize",
              "valueString" : "1"
            } ],
            "unit" : "Stk"
          },
          "denominator" : {
            "value" : 1
          }
        }
      } ],
      "basedOn" : [ {
        "reference" : "Task/160.000.006.391.171.49"
      } ],
      "status" : "unknown",
      "about" : [ {
        "reference" : "#121663ea-1e97-4e25-8ae0-57470fffee34"
      } ],
      "sent" : "2023-10-05T00:17:22.628+00:00",
      "recipient" : [ {
        "identifier" : {
          "system" : "https://gematik.de/fhir/sid/telematik-id",
          "value" : "1-2-ARZT-BerndClaudius01"
        }
      } ],
      "sender" : {
        "identifier" : {
          "system" : "http://fhir.de/sid/gkv/kvid-10",
          "value" : "X110498565"
        }
      },
      "payload" : [ {
        "extension" : [ {
          "url" : "https://gematik.de/fhir/erp/StructureDefinition/GEM_ERP_EX_InsuranceProvider",
          "valueIdentifier" : {
            "system" : "http://fhir.de/sid/arge-ik/iknr",
            "value" : "101320032"
          }
        }, {
          "url" : "https://gematik.de/fhir/erp/StructureDefinition/GEM_ERP_EX_SubstitutionAllowedType",
          "valueBoolean" : true
        }, {
          "url" : "https://gematik.de/fhir/erp/StructureDefinition/GEM_ERP_EX_PrescriptionType",
          "valueCoding" : {
            "system" : "https://gematik.de/fhir/erp/CodeSystem/GEM_ERP_CS_FlowType",
            "code" : "160",
            "display" : "Muster 16 (Apothekenpflichtige Arzneimittel)"
          }
        } ],
        "contentString" : "You think you've got problems? What are you supposed to do if you are a manically depressed robot? No, don't try to answer that. I'm fifty thousand times more intelligent than you and even I don't know the answer. It gives me a headache just trying to think down to your level."
      } ]
    },
    "search" : {
      "mode" : "match"
    }
  }, {
    "fullUrl" : "https://erp-test.zentral.erp.splitdns.ti-dienste.de/Communication/01ebb0b6-bf4e-5b60-4e4b-7d0bf07733fc",
    "resource" : {
      "resourceType" : "Communication",
      "id" : "01ebb0b6-bf4e-5b60-4e4b-7d0bf07733fc",
      "meta" : {
        "profile" : [ "https://gematik.de/fhir/erp/StructureDefinition/GEM_ERP_PR_Communication_InfoReq|1.2" ]
      },
      "contained" : [ {
        "resourceType" : "Medication",
        "id" : "d87be878-12ea-4f46-af3c-78682bcda888",
        "meta" : {
          "profile" : [ "https://fhir.kbv.de/StructureDefinition/KBV_PR_ERP_Medication_PZN|1.1.0" ]
        },
        "extension" : [ {
          "url" : "https://fhir.kbv.de/StructureDefinition/KBV_EX_Base_Medication_Type",
          "valueCodeableConcept" : {
            "coding" : [ {
              "system" : "http://snomed.info/sct",
              "version" : "http://snomed.info/sct/900000000000207008/version/20220331",
              "code" : "763158003",
              "display" : "Medicinal product (product)"
            } ]
          }
        }, {
          "url" : "https://fhir.kbv.de/StructureDefinition/KBV_EX_ERP_Medication_Category",
          "valueCoding" : {
            "system" : "https://fhir.kbv.de/CodeSystem/KBV_CS_ERP_Medication_Category",
            "code" : "00"
          }
        }, {
          "url" : "https://fhir.kbv.de/StructureDefinition/KBV_EX_ERP_Medication_Vaccine",
          "valueBoolean" : false
        }, {
          "url" : "http://fhir.de/StructureDefinition/normgroesse",
          "valueCode" : "NB"
        } ],
        "code" : {
          "coding" : [ {
            "system" : "http://fhir.de/CodeSystem/ifa/pzn",
            "code" : "12345678"
          } ],
          "text" : "Schmerzmittel"
        },
        "form" : {
          "coding" : [ {
            "system" : "https://fhir.kbv.de/CodeSystem/KBV_CS_SFHIR_KBV_DARREICHUNGSFORM",
            "code" : "TAB"
          } ]
        },
        "amount" : {
          "numerator" : {
            "extension" : [ {
              "url" : "https://fhir.kbv.de/StructureDefinition/KBV_EX_ERP_Medication_PackagingSize",
              "valueString" : "1"
            } ],
            "unit" : "Stk"
          },
          "denominator" : {
            "value" : 1
          }
        }
      } ],
      "basedOn" : [ {
        "reference" : "Task/160.000.006.390.388.70"
      } ],
      "status" : "unknown",
      "about" : [ {
        "reference" : "#d87be878-12ea-4f46-af3c-78682bcda888"
      } ],
      "sent" : "2023-10-04T00:15:05.052+00:00",
      "recipient" : [ {
        "identifier" : {
          "system" : "https://gematik.de/fhir/sid/telematik-id",
          "value" : "1-2-ARZT-BerndClaudius01"
        }
      } ],
      "sender" : {
        "identifier" : {
          "system" : "http://fhir.de/sid/gkv/kvid-10",
          "value" : "X110498565"
        }
      },
      "payload" : [ {
        "extension" : [ {
          "url" : "https://gematik.de/fhir/erp/StructureDefinition/GEM_ERP_EX_InsuranceProvider",
          "valueIdentifier" : {
            "system" : "http://fhir.de/sid/arge-ik/iknr",
            "value" : "105508787"
          }
        }, {
          "url" : "https://gematik.de/fhir/erp/StructureDefinition/GEM_ERP_EX_SubstitutionAllowedType",
          "valueBoolean" : true
        }, {
          "url" : "https://gematik.de/fhir/erp/StructureDefinition/GEM_ERP_EX_PrescriptionType",
          "valueCoding" : {
            "system" : "https://gematik.de/fhir/erp/CodeSystem/GEM_ERP_CS_FlowType",
            "code" : "160",
            "display" : "Muster 16 (Apothekenpflichtige Arzneimittel)"
          }
        } ],
        "contentString" : "There's only one life-form as intelligent as me within thirty parsecs of here and that's me."
      } ]
    },
    "search" : {
      "mode" : "match"
    }
  }, {
    "fullUrl" : "https://erp-test.zentral.erp.splitdns.ti-dienste.de/Communication/01ebb0a2-b10f-8920-6899-c1d22fd3d20f",
    "resource" : {
      "resourceType" : "Communication",
      "id" : "01ebb0a2-b10f-8920-6899-c1d22fd3d20f",
      "meta" : {
        "profile" : [ "https://gematik.de/fhir/erp/StructureDefinition/GEM_ERP_PR_Communication_InfoReq|1.2" ]
      },
      "contained" : [ {
        "resourceType" : "Medication",
        "id" : "63c0dd5a-5ace-4d50-968b-a08c564b898a",
        "meta" : {
          "profile" : [ "https://fhir.kbv.de/StructureDefinition/KBV_PR_ERP_Medication_PZN|1.1.0" ]
        },
        "extension" : [ {
          "url" : "https://fhir.kbv.de/StructureDefinition/KBV_EX_Base_Medication_Type",
          "valueCodeableConcept" : {
            "coding" : [ {
              "system" : "http://snomed.info/sct",
              "version" : "http://snomed.info/sct/900000000000207008/version/20220331",
              "code" : "763158003",
              "display" : "Medicinal product (product)"
            } ]
          }
        }, {
          "url" : "https://fhir.kbv.de/StructureDefinition/KBV_EX_ERP_Medication_Category",
          "valueCoding" : {
            "system" : "https://fhir.kbv.de/CodeSystem/KBV_CS_ERP_Medication_Category",
            "code" : "00"
          }
        }, {
          "url" : "https://fhir.kbv.de/StructureDefinition/KBV_EX_ERP_Medication_Vaccine",
          "valueBoolean" : false
        }, {
          "url" : "http://fhir.de/StructureDefinition/normgroesse",
          "valueCode" : "NB"
        } ],
        "code" : {
          "coding" : [ {
            "system" : "http://fhir.de/CodeSystem/ifa/pzn",
            "code" : "12345678"
          } ],
          "text" : "Schmerzmittel"
        },
        "form" : {
          "coding" : [ {
            "system" : "https://fhir.kbv.de/CodeSystem/KBV_CS_SFHIR_KBV_DARREICHUNGSFORM",
            "code" : "TAB"
          } ]
        },
        "amount" : {
          "numerator" : {
            "extension" : [ {
              "url" : "https://fhir.kbv.de/StructureDefinition/KBV_EX_ERP_Medication_PackagingSize",
              "valueString" : "1"
            } ],
            "unit" : "Stk"
          },
          "denominator" : {
            "value" : 1
          }
        }
      } ],
      "basedOn" : [ {
        "reference" : "Task/160.000.006.390.008.46"
      } ],
      "status" : "unknown",
      "about" : [ {
        "reference" : "#63c0dd5a-5ace-4d50-968b-a08c564b898a"
      } ],
      "sent" : "2023-10-03T00:19:26.708+00:00",
      "recipient" : [ {
        "identifier" : {
          "system" : "https://gematik.de/fhir/sid/telematik-id",
          "value" : "1-2-ARZT-BerndClaudius01"
        }
      } ],
      "sender" : {
        "identifier" : {
          "system" : "http://fhir.de/sid/gkv/kvid-10",
          "value" : "X110498565"
        }
      },
      "payload" : [ {
        "extension" : [ {
          "url" : "https://gematik.de/fhir/erp/StructureDefinition/GEM_ERP_EX_InsuranceProvider",
          "valueIdentifier" : {
            "system" : "http://fhir.de/sid/arge-ik/iknr",
            "value" : "102131240"
          }
        }, {
          "url" : "https://gematik.de/fhir/erp/StructureDefinition/GEM_ERP_EX_SubstitutionAllowedType",
          "valueBoolean" : true
        }, {
          "url" : "https://gematik.de/fhir/erp/StructureDefinition/GEM_ERP_EX_PrescriptionType",
          "valueCoding" : {
            "system" : "https://gematik.de/fhir/erp/CodeSystem/GEM_ERP_CS_FlowType",
            "code" : "160",
            "display" : "Muster 16 (Apothekenpflichtige Arzneimittel)"
          }
        } ],
        "contentString" : "There's only one life-form as intelligent as me within thirty parsecs of here and that's me."
      } ]
    },
    "search" : {
      "mode" : "match"
    }
  }, {
    "fullUrl" : "https://erp-test.zentral.erp.splitdns.ti-dienste.de/Communication/01ebb08e-8690-8578-8927-6d47f127e97f",
    "resource" : {
      "resourceType" : "Communication",
      "id" : "01ebb08e-8690-8578-8927-6d47f127e97f",
      "meta" : {
        "profile" : [ "https://gematik.de/fhir/erp/StructureDefinition/GEM_ERP_PR_Communication_InfoReq|1.2" ]
      },
      "contained" : [ {
        "resourceType" : "Medication",
        "id" : "7854caa2-bb5f-4c82-83f2-aeb27042c312",
        "meta" : {
          "profile" : [ "https://fhir.kbv.de/StructureDefinition/KBV_PR_ERP_Medication_PZN|1.1.0" ]
        },
        "extension" : [ {
          "url" : "https://fhir.kbv.de/StructureDefinition/KBV_EX_Base_Medication_Type",
          "valueCodeableConcept" : {
            "coding" : [ {
              "system" : "http://snomed.info/sct",
              "version" : "http://snomed.info/sct/900000000000207008/version/20220331",
              "code" : "763158003",
              "display" : "Medicinal product (product)"
            } ]
          }
        }, {
          "url" : "https://fhir.kbv.de/StructureDefinition/KBV_EX_ERP_Medication_Category",
          "valueCoding" : {
            "system" : "https://fhir.kbv.de/CodeSystem/KBV_CS_ERP_Medication_Category",
            "code" : "00"
          }
        }, {
          "url" : "https://fhir.kbv.de/StructureDefinition/KBV_EX_ERP_Medication_Vaccine",
          "valueBoolean" : false
        }, {
          "url" : "http://fhir.de/StructureDefinition/normgroesse",
          "valueCode" : "NB"
        } ],
        "code" : {
          "coding" : [ {
            "system" : "http://fhir.de/CodeSystem/ifa/pzn",
            "code" : "12345678"
          } ],
          "text" : "Schmerzmittel"
        },
        "form" : {
          "coding" : [ {
            "system" : "https://fhir.kbv.de/CodeSystem/KBV_CS_SFHIR_KBV_DARREICHUNGSFORM",
            "code" : "TAB"
          } ]
        },
        "amount" : {
          "numerator" : {
            "extension" : [ {
              "url" : "https://fhir.kbv.de/StructureDefinition/KBV_EX_ERP_Medication_PackagingSize",
              "valueString" : "1"
            } ],
            "unit" : "Stk"
          },
          "denominator" : {
            "value" : 1
          }
        }
      } ],
      "basedOn" : [ {
        "reference" : "Task/160.000.006.389.589.42"
      } ],
      "status" : "unknown",
      "about" : [ {
        "reference" : "#7854caa2-bb5f-4c82-83f2-aeb27042c312"
      } ],
      "sent" : "2023-10-02T00:15:54.395+00:00",
      "recipient" : [ {
        "identifier" : {
          "system" : "https://gematik.de/fhir/sid/telematik-id",
          "value" : "1-2-ARZT-BerndClaudius01"
        }
      } ],
      "sender" : {
        "identifier" : {
          "system" : "http://fhir.de/sid/gkv/kvid-10",
          "value" : "X110498565"
        }
      },
      "payload" : [ {
        "extension" : [ {
          "url" : "https://gematik.de/fhir/erp/StructureDefinition/GEM_ERP_EX_InsuranceProvider",
          "valueIdentifier" : {
            "system" : "http://fhir.de/sid/arge-ik/iknr",
            "value" : "100820488"
          }
        }, {
          "url" : "https://gematik.de/fhir/erp/StructureDefinition/GEM_ERP_EX_SubstitutionAllowedType",
          "valueBoolean" : true
        }, {
          "url" : "https://gematik.de/fhir/erp/StructureDefinition/GEM_ERP_EX_PrescriptionType",
          "valueCoding" : {
            "system" : "https://gematik.de/fhir/erp/CodeSystem/GEM_ERP_CS_FlowType",
            "code" : "160",
            "display" : "Muster 16 (Apothekenpflichtige Arzneimittel)"
          }
        } ],
        "contentString" : "I wish you'd just tell me rather trying to engage my enthusiasm, because I haven't got one."
      } ]
    },
    "search" : {
      "mode" : "match"
    }
  }, {
    "fullUrl" : "https://erp-test.zentral.erp.splitdns.ti-dienste.de/Communication/01ebb07a-6ad3-f6f8-a599-c3d8bffdd4dc",
    "resource" : {
      "resourceType" : "Communication",
      "id" : "01ebb07a-6ad3-f6f8-a599-c3d8bffdd4dc",
      "meta" : {
        "profile" : [ "https://gematik.de/fhir/erp/StructureDefinition/GEM_ERP_PR_Communication_InfoReq|1.2" ]
      },
      "contained" : [ {
        "resourceType" : "Medication",
        "id" : "2505c1ed-f7b4-4698-b074-4b96c06bc0a8",
        "meta" : {
          "profile" : [ "https://fhir.kbv.de/StructureDefinition/KBV_PR_ERP_Medication_PZN|1.1.0" ]
        },
        "extension" : [ {
          "url" : "https://fhir.kbv.de/StructureDefinition/KBV_EX_Base_Medication_Type",
          "valueCodeableConcept" : {
            "coding" : [ {
              "system" : "http://snomed.info/sct",
              "version" : "http://snomed.info/sct/900000000000207008/version/20220331",
              "code" : "763158003",
              "display" : "Medicinal product (product)"
            } ]
          }
        }, {
          "url" : "https://fhir.kbv.de/StructureDefinition/KBV_EX_ERP_Medication_Category",
          "valueCoding" : {
            "system" : "https://fhir.kbv.de/CodeSystem/KBV_CS_ERP_Medication_Category",
            "code" : "00"
          }
        }, {
          "url" : "https://fhir.kbv.de/StructureDefinition/KBV_EX_ERP_Medication_Vaccine",
          "valueBoolean" : false
        }, {
          "url" : "http://fhir.de/StructureDefinition/normgroesse",
          "valueCode" : "NB"
        } ],
        "code" : {
          "coding" : [ {
            "system" : "http://fhir.de/CodeSystem/ifa/pzn",
            "code" : "12345678"
          } ],
          "text" : "Schmerzmittel"
        },
        "form" : {
          "coding" : [ {
            "system" : "https://fhir.kbv.de/CodeSystem/KBV_CS_SFHIR_KBV_DARREICHUNGSFORM",
            "code" : "TAB"
          } ]
        },
        "amount" : {
          "numerator" : {
            "extension" : [ {
              "url" : "https://fhir.kbv.de/StructureDefinition/KBV_EX_ERP_Medication_PackagingSize",
              "valueString" : "1"
            } ],
            "unit" : "Stk"
          },
          "denominator" : {
            "value" : 1
          }
        }
      } ],
      "basedOn" : [ {
        "reference" : "Task/160.000.006.389.202.39"
      } ],
      "status" : "unknown",
      "about" : [ {
        "reference" : "#2505c1ed-f7b4-4698-b074-4b96c06bc0a8"
      } ],
      "sent" : "2023-10-01T00:16:29.707+00:00",
      "recipient" : [ {
        "identifier" : {
          "system" : "https://gematik.de/fhir/sid/telematik-id",
          "value" : "1-2-ARZT-BerndClaudius01"
        }
      } ],
      "sender" : {
        "identifier" : {
          "system" : "http://fhir.de/sid/gkv/kvid-10",
          "value" : "X110498565"
        }
      },
      "payload" : [ {
        "extension" : [ {
          "url" : "https://gematik.de/fhir/erp/StructureDefinition/GEM_ERP_EX_InsuranceProvider",
          "valueIdentifier" : {
            "system" : "http://fhir.de/sid/arge-ik/iknr",
            "value" : "107836243"
          }
        }, {
          "url" : "https://gematik.de/fhir/erp/StructureDefinition/GEM_ERP_EX_SubstitutionAllowedType",
          "valueBoolean" : true
        }, {
          "url" : "https://gematik.de/fhir/erp/StructureDefinition/GEM_ERP_EX_PrescriptionType",
          "valueCoding" : {
            "system" : "https://gematik.de/fhir/erp/CodeSystem/GEM_ERP_CS_FlowType",
            "code" : "160",
            "display" : "Muster 16 (Apothekenpflichtige Arzneimittel)"
          }
        } ],
        "contentString" : "I think you ought to know I'm feeling very depressed."
      } ]
    },
    "search" : {
      "mode" : "match"
    }
  }, {
    "fullUrl" : "https://erp-test.zentral.erp.splitdns.ti-dienste.de/Communication/01ebb066-5009-6998-54fa-bae23a490608",
    "resource" : {
      "resourceType" : "Communication",
      "id" : "01ebb066-5009-6998-54fa-bae23a490608",
      "meta" : {
        "profile" : [ "https://gematik.de/fhir/erp/StructureDefinition/GEM_ERP_PR_Communication_InfoReq|1.2" ]
      },
      "contained" : [ {
        "resourceType" : "Medication",
        "id" : "204423b2-70eb-43dc-8696-c9ab95358aea",
        "meta" : {
          "profile" : [ "https://fhir.kbv.de/StructureDefinition/KBV_PR_ERP_Medication_PZN|1.1.0" ]
        },
        "extension" : [ {
          "url" : "https://fhir.kbv.de/StructureDefinition/KBV_EX_Base_Medication_Type",
          "valueCodeableConcept" : {
            "coding" : [ {
              "system" : "http://snomed.info/sct",
              "version" : "http://snomed.info/sct/900000000000207008/version/20220331",
              "code" : "763158003",
              "display" : "Medicinal product (product)"
            } ]
          }
        }, {
          "url" : "https://fhir.kbv.de/StructureDefinition/KBV_EX_ERP_Medication_Category",
          "valueCoding" : {
            "system" : "https://fhir.kbv.de/CodeSystem/KBV_CS_ERP_Medication_Category",
            "code" : "00"
          }
        }, {
          "url" : "https://fhir.kbv.de/StructureDefinition/KBV_EX_ERP_Medication_Vaccine",
          "valueBoolean" : false
        }, {
          "url" : "http://fhir.de/StructureDefinition/normgroesse",
          "valueCode" : "NB"
        } ],
        "code" : {
          "coding" : [ {
            "system" : "http://fhir.de/CodeSystem/ifa/pzn",
            "code" : "12345678"
          } ],
          "text" : "Schmerzmittel"
        },
        "form" : {
          "coding" : [ {
            "system" : "https://fhir.kbv.de/CodeSystem/KBV_CS_SFHIR_KBV_DARREICHUNGSFORM",
            "code" : "TAB"
          } ]
        },
        "amount" : {
          "numerator" : {
            "extension" : [ {
              "url" : "https://fhir.kbv.de/StructureDefinition/KBV_EX_ERP_Medication_PackagingSize",
              "valueString" : "1"
            } ],
            "unit" : "Stk"
          },
          "denominator" : {
            "value" : 1
          }
        }
      } ],
      "basedOn" : [ {
        "reference" : "Task/160.000.006.388.816.33"
      } ],
      "status" : "unknown",
      "about" : [ {
        "reference" : "#204423b2-70eb-43dc-8696-c9ab95358aea"
      } ],
      "sent" : "2023-09-30T00:17:20.879+00:00",
      "recipient" : [ {
        "identifier" : {
          "system" : "https://gematik.de/fhir/sid/telematik-id",
          "value" : "1-2-ARZT-BerndClaudius01"
        }
      } ],
      "sender" : {
        "identifier" : {
          "system" : "http://fhir.de/sid/gkv/kvid-10",
          "value" : "X110498565"
        }
      },
      "payload" : [ {
        "extension" : [ {
          "url" : "https://gematik.de/fhir/erp/StructureDefinition/GEM_ERP_EX_InsuranceProvider",
          "valueIdentifier" : {
            "system" : "http://fhir.de/sid/arge-ik/iknr",
            "value" : "103525567"
          }
        }, {
          "url" : "https://gematik.de/fhir/erp/StructureDefinition/GEM_ERP_EX_SubstitutionAllowedType",
          "valueBoolean" : true
        }, {
          "url" : "https://gematik.de/fhir/erp/StructureDefinition/GEM_ERP_EX_PrescriptionType",
          "valueCoding" : {
            "system" : "https://gematik.de/fhir/erp/CodeSystem/GEM_ERP_CS_FlowType",
            "code" : "160",
            "display" : "Muster 16 (Apothekenpflichtige Arzneimittel)"
          }
        } ],
        "contentString" : "There's only one life-form as intelligent as me within thirty parsecs of here and that's me."
      } ]
    },
    "search" : {
      "mode" : "match"
    }
  }, {
    "fullUrl" : "https://erp-test.zentral.erp.splitdns.ti-dienste.de/Communication/01ebb052-2fd6-f6e0-f90f-ae7472d1659f",
    "resource" : {
      "resourceType" : "Communication",
      "id" : "01ebb052-2fd6-f6e0-f90f-ae7472d1659f",
      "meta" : {
        "profile" : [ "https://gematik.de/fhir/erp/StructureDefinition/GEM_ERP_PR_Communication_InfoReq|1.2" ]
      },
      "contained" : [ {
        "resourceType" : "Medication",
        "id" : "27dc8250-b013-420f-8049-c5498bb63e15",
        "meta" : {
          "profile" : [ "https://fhir.kbv.de/StructureDefinition/KBV_PR_ERP_Medication_PZN|1.1.0" ]
        },
        "extension" : [ {
          "url" : "https://fhir.kbv.de/StructureDefinition/KBV_EX_Base_Medication_Type",
          "valueCodeableConcept" : {
            "coding" : [ {
              "system" : "http://snomed.info/sct",
              "version" : "http://snomed.info/sct/900000000000207008/version/20220331",
              "code" : "763158003",
              "display" : "Medicinal product (product)"
            } ]
          }
        }, {
          "url" : "https://fhir.kbv.de/StructureDefinition/KBV_EX_ERP_Medication_Category",
          "valueCoding" : {
            "system" : "https://fhir.kbv.de/CodeSystem/KBV_CS_ERP_Medication_Category",
            "code" : "00"
          }
        }, {
          "url" : "https://fhir.kbv.de/StructureDefinition/KBV_EX_ERP_Medication_Vaccine",
          "valueBoolean" : false
        }, {
          "url" : "http://fhir.de/StructureDefinition/normgroesse",
          "valueCode" : "NB"
        } ],
        "code" : {
          "coding" : [ {
            "system" : "http://fhir.de/CodeSystem/ifa/pzn",
            "code" : "12345678"
          } ],
          "text" : "Schmerzmittel"
        },
        "form" : {
          "coding" : [ {
            "system" : "https://fhir.kbv.de/CodeSystem/KBV_CS_SFHIR_KBV_DARREICHUNGSFORM",
            "code" : "TAB"
          } ]
        },
        "amount" : {
          "numerator" : {
            "extension" : [ {
              "url" : "https://fhir.kbv.de/StructureDefinition/KBV_EX_ERP_Medication_PackagingSize",
              "valueString" : "1"
            } ],
            "unit" : "Stk"
          },
          "denominator" : {
            "value" : 1
          }
        }
      } ],
      "basedOn" : [ {
        "reference" : "Task/160.000.006.388.297.38"
      } ],
      "status" : "unknown",
      "about" : [ {
        "reference" : "#27dc8250-b013-420f-8049-c5498bb63e15"
      } ],
      "sent" : "2023-09-29T00:16:41.356+00:00",
      "recipient" : [ {
        "identifier" : {
          "system" : "https://gematik.de/fhir/sid/telematik-id",
          "value" : "1-2-ARZT-BerndClaudius01"
        }
      } ],
      "sender" : {
        "identifier" : {
          "system" : "http://fhir.de/sid/gkv/kvid-10",
          "value" : "X110498565"
        }
      },
      "payload" : [ {
        "extension" : [ {
          "url" : "https://gematik.de/fhir/erp/StructureDefinition/GEM_ERP_EX_InsuranceProvider",
          "valueIdentifier" : {
            "system" : "http://fhir.de/sid/arge-ik/iknr",
            "value" : "108036441"
          }
        }, {
          "url" : "https://gematik.de/fhir/erp/StructureDefinition/GEM_ERP_EX_SubstitutionAllowedType",
          "valueBoolean" : true
        }, {
          "url" : "https://gematik.de/fhir/erp/StructureDefinition/GEM_ERP_EX_PrescriptionType",
          "valueCoding" : {
            "system" : "https://gematik.de/fhir/erp/CodeSystem/GEM_ERP_CS_FlowType",
            "code" : "160",
            "display" : "Muster 16 (Apothekenpflichtige Arzneimittel)"
          }
        } ],
        "contentString" : "Pardon me for breathing, which I never do anyway so I don't know why I bother to say it, Oh God, I'm so depressed."
      } ]
    },
    "search" : {
      "mode" : "match"
    }
  }, {
    "fullUrl" : "https://erp-test.zentral.erp.splitdns.ti-dienste.de/Communication/01ebb03e-1163-a8e8-28e6-a214e4ed2899",
    "resource" : {
      "resourceType" : "Communication",
      "id" : "01ebb03e-1163-a8e8-28e6-a214e4ed2899",
      "meta" : {
        "profile" : [ "https://gematik.de/fhir/erp/StructureDefinition/GEM_ERP_PR_Communication_InfoReq|1.2" ]
      },
      "contained" : [ {
        "resourceType" : "Medication",
        "id" : "66bbe231-3f06-4a21-a7ce-a9839bca3df5",
        "meta" : {
          "profile" : [ "https://fhir.kbv.de/StructureDefinition/KBV_PR_ERP_Medication_PZN|1.1.0" ]
        },
        "extension" : [ {
          "url" : "https://fhir.kbv.de/StructureDefinition/KBV_EX_Base_Medication_Type",
          "valueCodeableConcept" : {
            "coding" : [ {
              "system" : "http://snomed.info/sct",
              "version" : "http://snomed.info/sct/900000000000207008/version/20220331",
              "code" : "763158003",
              "display" : "Medicinal product (product)"
            } ]
          }
        }, {
          "url" : "https://fhir.kbv.de/StructureDefinition/KBV_EX_ERP_Medication_Category",
          "valueCoding" : {
            "system" : "https://fhir.kbv.de/CodeSystem/KBV_CS_ERP_Medication_Category",
            "code" : "00"
          }
        }, {
          "url" : "https://fhir.kbv.de/StructureDefinition/KBV_EX_ERP_Medication_Vaccine",
          "valueBoolean" : false
        }, {
          "url" : "http://fhir.de/StructureDefinition/normgroesse",
          "valueCode" : "NB"
        } ],
        "code" : {
          "coding" : [ {
            "system" : "http://fhir.de/CodeSystem/ifa/pzn",
            "code" : "12345678"
          } ],
          "text" : "Schmerzmittel"
        },
        "form" : {
          "coding" : [ {
            "system" : "https://fhir.kbv.de/CodeSystem/KBV_CS_SFHIR_KBV_DARREICHUNGSFORM",
            "code" : "TAB"
          } ]
        },
        "amount" : {
          "numerator" : {
            "extension" : [ {
              "url" : "https://fhir.kbv.de/StructureDefinition/KBV_EX_ERP_Medication_PackagingSize",
              "valueString" : "1"
            } ],
            "unit" : "Stk"
          },
          "denominator" : {
            "value" : 1
          }
        }
      } ],
      "basedOn" : [ {
        "reference" : "Task/160.000.006.387.821.11"
      } ],
      "status" : "unknown",
      "about" : [ {
        "reference" : "#66bbe231-3f06-4a21-a7ce-a9839bca3df5"
      } ],
      "sent" : "2023-09-28T00:16:31.137+00:00",
      "recipient" : [ {
        "identifier" : {
          "system" : "https://gematik.de/fhir/sid/telematik-id",
          "value" : "1-2-ARZT-BerndClaudius01"
        }
      } ],
      "sender" : {
        "identifier" : {
          "system" : "http://fhir.de/sid/gkv/kvid-10",
          "value" : "X110498565"
        }
      },
      "payload" : [ {
        "extension" : [ {
          "url" : "https://gematik.de/fhir/erp/StructureDefinition/GEM_ERP_EX_InsuranceProvider",
          "valueIdentifier" : {
            "system" : "http://fhir.de/sid/arge-ik/iknr",
            "value" : "108035576"
          }
        }, {
          "url" : "https://gematik.de/fhir/erp/StructureDefinition/GEM_ERP_EX_SubstitutionAllowedType",
          "valueBoolean" : true
        }, {
          "url" : "https://gematik.de/fhir/erp/StructureDefinition/GEM_ERP_EX_PrescriptionType",
          "valueCoding" : {
            "system" : "https://gematik.de/fhir/erp/CodeSystem/GEM_ERP_CS_FlowType",
            "code" : "160",
            "display" : "Muster 16 (Apothekenpflichtige Arzneimittel)"
          }
        } ],
        "contentString" : "I wish you'd just tell me rather trying to engage my enthusiasm, because I haven't got one."
      } ]
    },
    "search" : {
      "mode" : "match"
    }
  }, {
    "fullUrl" : "https://erp-test.zentral.erp.splitdns.ti-dienste.de/Communication/01ebb029-f37d-54c8-7291-1a5794ea9eac",
    "resource" : {
      "resourceType" : "Communication",
      "id" : "01ebb029-f37d-54c8-7291-1a5794ea9eac",
      "meta" : {
        "profile" : [ "https://gematik.de/fhir/erp/StructureDefinition/GEM_ERP_PR_Communication_InfoReq|1.2" ]
      },
      "contained" : [ {
        "resourceType" : "Medication",
        "id" : "b67420f6-2dfd-45fc-9f5b-49d699a090dc",
        "meta" : {
          "profile" : [ "https://fhir.kbv.de/StructureDefinition/KBV_PR_ERP_Medication_PZN|1.1.0" ]
        },
        "extension" : [ {
          "url" : "https://fhir.kbv.de/StructureDefinition/KBV_EX_Base_Medication_Type",
          "valueCodeableConcept" : {
            "coding" : [ {
              "system" : "http://snomed.info/sct",
              "version" : "http://snomed.info/sct/900000000000207008/version/20220331",
              "code" : "763158003",
              "display" : "Medicinal product (product)"
            } ]
          }
        }, {
          "url" : "https://fhir.kbv.de/StructureDefinition/KBV_EX_ERP_Medication_Category",
          "valueCoding" : {
            "system" : "https://fhir.kbv.de/CodeSystem/KBV_CS_ERP_Medication_Category",
            "code" : "00"
          }
        }, {
          "url" : "https://fhir.kbv.de/StructureDefinition/KBV_EX_ERP_Medication_Vaccine",
          "valueBoolean" : false
        }, {
          "url" : "http://fhir.de/StructureDefinition/normgroesse",
          "valueCode" : "NB"
        } ],
        "code" : {
          "coding" : [ {
            "system" : "http://fhir.de/CodeSystem/ifa/pzn",
            "code" : "12345678"
          } ],
          "text" : "Schmerzmittel"
        },
        "form" : {
          "coding" : [ {
            "system" : "https://fhir.kbv.de/CodeSystem/KBV_CS_SFHIR_KBV_DARREICHUNGSFORM",
            "code" : "TAB"
          } ]
        },
        "amount" : {
          "numerator" : {
            "extension" : [ {
              "url" : "https://fhir.kbv.de/StructureDefinition/KBV_EX_ERP_Medication_PackagingSize",
              "valueString" : "1"
            } ],
            "unit" : "Stk"
          },
          "denominator" : {
            "value" : 1
          }
        }
      } ],
      "basedOn" : [ {
        "reference" : "Task/160.000.006.387.354.54"
      } ],
      "status" : "unknown",
      "about" : [ {
        "reference" : "#b67420f6-2dfd-45fc-9f5b-49d699a090dc"
      } ],
      "sent" : "2023-09-27T00:16:30.157+00:00",
      "recipient" : [ {
        "identifier" : {
          "system" : "https://gematik.de/fhir/sid/telematik-id",
          "value" : "1-2-ARZT-BerndClaudius01"
        }
      } ],
      "sender" : {
        "identifier" : {
          "system" : "http://fhir.de/sid/gkv/kvid-10",
          "value" : "X110498565"
        }
      },
      "payload" : [ {
        "extension" : [ {
          "url" : "https://gematik.de/fhir/erp/StructureDefinition/GEM_ERP_EX_InsuranceProvider",
          "valueIdentifier" : {
            "system" : "http://fhir.de/sid/arge-ik/iknr",
            "value" : "108591499"
          }
        }, {
          "url" : "https://gematik.de/fhir/erp/StructureDefinition/GEM_ERP_EX_SubstitutionAllowedType",
          "valueBoolean" : true
        }, {
          "url" : "https://gematik.de/fhir/erp/StructureDefinition/GEM_ERP_EX_PrescriptionType",
          "valueCoding" : {
            "system" : "https://gematik.de/fhir/erp/CodeSystem/GEM_ERP_CS_FlowType",
            "code" : "160",
            "display" : "Muster 16 (Apothekenpflichtige Arzneimittel)"
          }
        } ],
        "contentString" : "And then of course I've got this terrible pain in all the diodes down my left side."
      } ]
    },
    "search" : {
      "mode" : "match"
    }
  }, {
    "fullUrl" : "https://erp-test.zentral.erp.splitdns.ti-dienste.de/Communication/01ebb015-d1e7-3b30-ad6e-8c9f681daa11",
    "resource" : {
      "resourceType" : "Communication",
      "id" : "01ebb015-d1e7-3b30-ad6e-8c9f681daa11",
      "meta" : {
        "profile" : [ "https://gematik.de/fhir/erp/StructureDefinition/GEM_ERP_PR_Communication_InfoReq|1.2" ]
      },
      "contained" : [ {
        "resourceType" : "Medication",
        "id" : "be863d87-8eba-411c-a58f-8169d64dd9dc",
        "meta" : {
          "profile" : [ "https://fhir.kbv.de/StructureDefinition/KBV_PR_ERP_Medication_PZN|1.1.0" ]
        },
        "extension" : [ {
          "url" : "https://fhir.kbv.de/StructureDefinition/KBV_EX_Base_Medication_Type",
          "valueCodeableConcept" : {
            "coding" : [ {
              "system" : "http://snomed.info/sct",
              "version" : "http://snomed.info/sct/900000000000207008/version/20220331",
              "code" : "763158003",
              "display" : "Medicinal product (product)"
            } ]
          }
        }, {
          "url" : "https://fhir.kbv.de/StructureDefinition/KBV_EX_ERP_Medication_Category",
          "valueCoding" : {
            "system" : "https://fhir.kbv.de/CodeSystem/KBV_CS_ERP_Medication_Category",
            "code" : "00"
          }
        }, {
          "url" : "https://fhir.kbv.de/StructureDefinition/KBV_EX_ERP_Medication_Vaccine",
          "valueBoolean" : false
        }, {
          "url" : "http://fhir.de/StructureDefinition/normgroesse",
          "valueCode" : "NB"
        } ],
        "code" : {
          "coding" : [ {
            "system" : "http://fhir.de/CodeSystem/ifa/pzn",
            "code" : "12345678"
          } ],
          "text" : "Schmerzmittel"
        },
        "form" : {
          "coding" : [ {
            "system" : "https://fhir.kbv.de/CodeSystem/KBV_CS_SFHIR_KBV_DARREICHUNGSFORM",
            "code" : "TAB"
          } ]
        },
        "amount" : {
          "numerator" : {
            "extension" : [ {
              "url" : "https://fhir.kbv.de/StructureDefinition/KBV_EX_ERP_Medication_PackagingSize",
              "valueString" : "1"
            } ],
            "unit" : "Stk"
          },
          "denominator" : {
            "value" : 1
          }
        }
      } ],
      "basedOn" : [ {
        "reference" : "Task/160.000.006.386.918.04"
      } ],
      "status" : "unknown",
      "about" : [ {
        "reference" : "#be863d87-8eba-411c-a58f-8169d64dd9dc"
      } ],
      "sent" : "2023-09-26T00:15:27.326+00:00",
      "recipient" : [ {
        "identifier" : {
          "system" : "https://gematik.de/fhir/sid/telematik-id",
          "value" : "1-2-ARZT-BerndClaudius01"
        }
      } ],
      "sender" : {
        "identifier" : {
          "system" : "http://fhir.de/sid/gkv/kvid-10",
          "value" : "X110498565"
        }
      },
      "payload" : [ {
        "extension" : [ {
          "url" : "https://gematik.de/fhir/erp/StructureDefinition/GEM_ERP_EX_InsuranceProvider",
          "valueIdentifier" : {
            "system" : "http://fhir.de/sid/arge-ik/iknr",
            "value" : "108591499"
          }
        }, {
          "url" : "https://gematik.de/fhir/erp/StructureDefinition/GEM_ERP_EX_SubstitutionAllowedType",
          "valueBoolean" : true
        }, {
          "url" : "https://gematik.de/fhir/erp/StructureDefinition/GEM_ERP_EX_PrescriptionType",
          "valueCoding" : {
            "system" : "https://gematik.de/fhir/erp/CodeSystem/GEM_ERP_CS_FlowType",
            "code" : "160",
            "display" : "Muster 16 (Apothekenpflichtige Arzneimittel)"
          }
        } ],
        "contentString" : "You think you've got problems? What are you supposed to do if you are a manically depressed robot? No, don't try to answer that. I'm fifty thousand times more intelligent than you and even I don't know the answer. It gives me a headache just trying to think down to your level."
      } ]
    },
    "search" : {
      "mode" : "match"
    }
  }, {
    "fullUrl" : "https://erp-test.zentral.erp.splitdns.ti-dienste.de/Communication/01ebb001-c789-1dc0-9474-938eab4872d4",
    "resource" : {
      "resourceType" : "Communication",
      "id" : "01ebb001-c789-1dc0-9474-938eab4872d4",
      "meta" : {
        "profile" : [ "https://gematik.de/fhir/erp/StructureDefinition/GEM_ERP_PR_Communication_InfoReq|1.2" ]
      },
      "contained" : [ {
        "resourceType" : "Medication",
        "id" : "fa05995b-5d3e-4340-8e96-f51518d9e979",
        "meta" : {
          "profile" : [ "https://fhir.kbv.de/StructureDefinition/KBV_PR_ERP_Medication_PZN|1.1.0" ]
        },
        "extension" : [ {
          "url" : "https://fhir.kbv.de/StructureDefinition/KBV_EX_Base_Medication_Type",
          "valueCodeableConcept" : {
            "coding" : [ {
              "system" : "http://snomed.info/sct",
              "version" : "http://snomed.info/sct/900000000000207008/version/20220331",
              "code" : "763158003",
              "display" : "Medicinal product (product)"
            } ]
          }
        }, {
          "url" : "https://fhir.kbv.de/StructureDefinition/KBV_EX_ERP_Medication_Category",
          "valueCoding" : {
            "system" : "https://fhir.kbv.de/CodeSystem/KBV_CS_ERP_Medication_Category",
            "code" : "00"
          }
        }, {
          "url" : "https://fhir.kbv.de/StructureDefinition/KBV_EX_ERP_Medication_Vaccine",
          "valueBoolean" : false
        }, {
          "url" : "http://fhir.de/StructureDefinition/normgroesse",
          "valueCode" : "NB"
        } ],
        "code" : {
          "coding" : [ {
            "system" : "http://fhir.de/CodeSystem/ifa/pzn",
            "code" : "12345678"
          } ],
          "text" : "Schmerzmittel"
        },
        "form" : {
          "coding" : [ {
            "system" : "https://fhir.kbv.de/CodeSystem/KBV_CS_SFHIR_KBV_DARREICHUNGSFORM",
            "code" : "TAB"
          } ]
        },
        "amount" : {
          "numerator" : {
            "extension" : [ {
              "url" : "https://fhir.kbv.de/StructureDefinition/KBV_EX_ERP_Medication_PackagingSize",
              "valueString" : "1"
            } ],
            "unit" : "Stk"
          },
          "denominator" : {
            "value" : 1
          }
        }
      } ],
      "basedOn" : [ {
        "reference" : "Task/160.000.006.386.531.98"
      } ],
      "status" : "unknown",
      "about" : [ {
        "reference" : "#fa05995b-5d3e-4340-8e96-f51518d9e979"
      } ],
      "sent" : "2023-09-25T00:20:54.040+00:00",
      "recipient" : [ {
        "identifier" : {
          "system" : "https://gematik.de/fhir/sid/telematik-id",
          "value" : "1-2-ARZT-BerndClaudius01"
        }
      } ],
      "sender" : {
        "identifier" : {
          "system" : "http://fhir.de/sid/gkv/kvid-10",
          "value" : "X110498565"
        }
      },
      "payload" : [ {
        "extension" : [ {
          "url" : "https://gematik.de/fhir/erp/StructureDefinition/GEM_ERP_EX_InsuranceProvider",
          "valueIdentifier" : {
            "system" : "http://fhir.de/sid/arge-ik/iknr",
            "value" : "101520147"
          }
        }, {
          "url" : "https://gematik.de/fhir/erp/StructureDefinition/GEM_ERP_EX_SubstitutionAllowedType",
          "valueBoolean" : true
        }, {
          "url" : "https://gematik.de/fhir/erp/StructureDefinition/GEM_ERP_EX_PrescriptionType",
          "valueCoding" : {
            "system" : "https://gematik.de/fhir/erp/CodeSystem/GEM_ERP_CS_FlowType",
            "code" : "160",
            "display" : "Muster 16 (Apothekenpflichtige Arzneimittel)"
          }
        } ],
        "contentString" : "I won't enjoy it."
      } ]
    },
    "search" : {
      "mode" : "match"
    }
  }, {
    "fullUrl" : "https://erp-test.zentral.erp.splitdns.ti-dienste.de/Communication/01ebafed-b1ea-85f8-1ffd-7d43ad696853",
    "resource" : {
      "resourceType" : "Communication",
      "id" : "01ebafed-b1ea-85f8-1ffd-7d43ad696853",
      "meta" : {
        "profile" : [ "https://gematik.de/fhir/erp/StructureDefinition/GEM_ERP_PR_Communication_InfoReq|1.2" ]
      },
      "contained" : [ {
        "resourceType" : "Medication",
        "id" : "2f2ebd2b-f0c6-4d70-b61c-c208f9a556c0",
        "meta" : {
          "profile" : [ "https://fhir.kbv.de/StructureDefinition/KBV_PR_ERP_Medication_PZN|1.1.0" ]
        },
        "extension" : [ {
          "url" : "https://fhir.kbv.de/StructureDefinition/KBV_EX_Base_Medication_Type",
          "valueCodeableConcept" : {
            "coding" : [ {
              "system" : "http://snomed.info/sct",
              "version" : "http://snomed.info/sct/900000000000207008/version/20220331",
              "code" : "763158003",
              "display" : "Medicinal product (product)"
            } ]
          }
        }, {
          "url" : "https://fhir.kbv.de/StructureDefinition/KBV_EX_ERP_Medication_Category",
          "valueCoding" : {
            "system" : "https://fhir.kbv.de/CodeSystem/KBV_CS_ERP_Medication_Category",
            "code" : "00"
          }
        }, {
          "url" : "https://fhir.kbv.de/StructureDefinition/KBV_EX_ERP_Medication_Vaccine",
          "valueBoolean" : false
        }, {
          "url" : "http://fhir.de/StructureDefinition/normgroesse",
          "valueCode" : "NB"
        } ],
        "code" : {
          "coding" : [ {
            "system" : "http://fhir.de/CodeSystem/ifa/pzn",
            "code" : "12345678"
          } ],
          "text" : "Schmerzmittel"
        },
        "form" : {
          "coding" : [ {
            "system" : "https://fhir.kbv.de/CodeSystem/KBV_CS_SFHIR_KBV_DARREICHUNGSFORM",
            "code" : "TAB"
          } ]
        },
        "amount" : {
          "numerator" : {
            "extension" : [ {
              "url" : "https://fhir.kbv.de/StructureDefinition/KBV_EX_ERP_Medication_PackagingSize",
              "valueString" : "1"
            } ],
            "unit" : "Stk"
          },
          "denominator" : {
            "value" : 1
          }
        }
      } ],
      "basedOn" : [ {
        "reference" : "Task/160.000.006.386.152.71"
      } ],
      "status" : "unknown",
      "about" : [ {
        "reference" : "#2f2ebd2b-f0c6-4d70-b61c-c208f9a556c0"
      } ],
      "sent" : "2023-09-24T00:23:11.979+00:00",
      "recipient" : [ {
        "identifier" : {
          "system" : "https://gematik.de/fhir/sid/telematik-id",
          "value" : "1-2-ARZT-BerndClaudius01"
        }
      } ],
      "sender" : {
        "identifier" : {
          "system" : "http://fhir.de/sid/gkv/kvid-10",
          "value" : "X110498565"
        }
      },
      "payload" : [ {
        "extension" : [ {
          "url" : "https://gematik.de/fhir/erp/StructureDefinition/GEM_ERP_EX_InsuranceProvider",
          "valueIdentifier" : {
            "system" : "http://fhir.de/sid/arge-ik/iknr",
            "value" : "107536262"
          }
        }, {
          "url" : "https://gematik.de/fhir/erp/StructureDefinition/GEM_ERP_EX_SubstitutionAllowedType",
          "valueBoolean" : true
        }, {
          "url" : "https://gematik.de/fhir/erp/StructureDefinition/GEM_ERP_EX_PrescriptionType",
          "valueCoding" : {
            "system" : "https://gematik.de/fhir/erp/CodeSystem/GEM_ERP_CS_FlowType",
            "code" : "160",
            "display" : "Muster 16 (Apothekenpflichtige Arzneimittel)"
          }
        } ],
        "contentString" : "I think you ought to know I'm feeling very depressed."
      } ]
    },
    "search" : {
      "mode" : "match"
    }
  }, {
    "fullUrl" : "https://erp-test.zentral.erp.splitdns.ti-dienste.de/Communication/01ebafd9-9ad8-7488-3360-6e7883d01736",
    "resource" : {
      "resourceType" : "Communication",
      "id" : "01ebafd9-9ad8-7488-3360-6e7883d01736",
      "meta" : {
        "profile" : [ "https://gematik.de/fhir/erp/StructureDefinition/GEM_ERP_PR_Communication_InfoReq|1.2" ]
      },
      "contained" : [ {
        "resourceType" : "Medication",
        "id" : "5477b3f2-d916-47c8-a4e4-773d2eef56a6",
        "meta" : {
          "profile" : [ "https://fhir.kbv.de/StructureDefinition/KBV_PR_ERP_Medication_PZN|1.1.0" ]
        },
        "extension" : [ {
          "url" : "https://fhir.kbv.de/StructureDefinition/KBV_EX_Base_Medication_Type",
          "valueCodeableConcept" : {
            "coding" : [ {
              "system" : "http://snomed.info/sct",
              "version" : "http://snomed.info/sct/900000000000207008/version/20220331",
              "code" : "763158003",
              "display" : "Medicinal product (product)"
            } ]
          }
        }, {
          "url" : "https://fhir.kbv.de/StructureDefinition/KBV_EX_ERP_Medication_Category",
          "valueCoding" : {
            "system" : "https://fhir.kbv.de/CodeSystem/KBV_CS_ERP_Medication_Category",
            "code" : "00"
          }
        }, {
          "url" : "https://fhir.kbv.de/StructureDefinition/KBV_EX_ERP_Medication_Vaccine",
          "valueBoolean" : false
        }, {
          "url" : "http://fhir.de/StructureDefinition/normgroesse",
          "valueCode" : "NB"
        } ],
        "code" : {
          "coding" : [ {
            "system" : "http://fhir.de/CodeSystem/ifa/pzn",
            "code" : "12345678"
          } ],
          "text" : "Schmerzmittel"
        },
        "form" : {
          "coding" : [ {
            "system" : "https://fhir.kbv.de/CodeSystem/KBV_CS_SFHIR_KBV_DARREICHUNGSFORM",
            "code" : "TAB"
          } ]
        },
        "amount" : {
          "numerator" : {
            "extension" : [ {
              "url" : "https://fhir.kbv.de/StructureDefinition/KBV_EX_ERP_Medication_PackagingSize",
              "valueString" : "1"
            } ],
            "unit" : "Stk"
          },
          "denominator" : {
            "value" : 1
          }
        }
      } ],
      "basedOn" : [ {
        "reference" : "Task/160.000.006.385.771.50"
      } ],
      "status" : "unknown",
      "about" : [ {
        "reference" : "#5477b3f2-d916-47c8-a4e4-773d2eef56a6"
      } ],
      "sent" : "2023-09-23T00:25:05.573+00:00",
      "recipient" : [ {
        "identifier" : {
          "system" : "https://gematik.de/fhir/sid/telematik-id",
          "value" : "1-2-ARZT-BerndClaudius01"
        }
      } ],
      "sender" : {
        "identifier" : {
          "system" : "http://fhir.de/sid/gkv/kvid-10",
          "value" : "X110498565"
        }
      },
      "payload" : [ {
        "extension" : [ {
          "url" : "https://gematik.de/fhir/erp/StructureDefinition/GEM_ERP_EX_InsuranceProvider",
          "valueIdentifier" : {
            "system" : "http://fhir.de/sid/arge-ik/iknr",
            "value" : "102171012"
          }
        }, {
          "url" : "https://gematik.de/fhir/erp/StructureDefinition/GEM_ERP_EX_SubstitutionAllowedType",
          "valueBoolean" : true
        }, {
          "url" : "https://gematik.de/fhir/erp/StructureDefinition/GEM_ERP_EX_PrescriptionType",
          "valueCoding" : {
            "system" : "https://gematik.de/fhir/erp/CodeSystem/GEM_ERP_CS_FlowType",
            "code" : "160",
            "display" : "Muster 16 (Apothekenpflichtige Arzneimittel)"
          }
        } ],
        "contentString" : "I won't enjoy it."
      } ]
    },
    "search" : {
      "mode" : "match"
    }
  } ]
}