<Bundle xmlns="http://hl7.org/fhir"><id value="fd8e46b1-717d-4510-a543-ce590bbb629e"/><meta><lastUpdated value="2024-02-08T19:14:18.673+01:00"/><profile value="http://fhir.abda.de/eRezeptAbgabedaten/StructureDefinition/DAV-PKV-PR-ERP-AbgabedatenBundle|1.2"/></meta><identifier><system value="https://gematik.de/fhir/erp/NamingSystem/GEM_ERP_NS_PrescriptionId"/><value value="200.000.002.096.527.67"/></identifier><type value="document"/><timestamp value="2024-02-08T19:14:18.673+01:00"/><entry><fullUrl value="urn:uuid:8905db6c-a899-4d87-af0f-28a8f96c357f"/><resource><Composition xmlns="http://hl7.org/fhir"><id value="8905db6c-a899-4d87-af0f-28a8f96c357f"/><meta><profile value="http://fhir.abda.de/eRezeptAbgabedaten/StructureDefinition/DAV-PKV-PR-ERP-AbgabedatenComposition|1.2"/></meta><status value="final"/><type><coding><system value="http://fhir.abda.de/eRezeptAbgabedaten/CodeSystem/DAV-CS-ERP-CompositionTypes"/><code value="ERezeptAbgabedaten"/></coding></type><date value="2024-02-08T19:14:18+01:00"/><author><reference value="urn:uuid:3e9e29d0-0f8a-40fe-a4f5-f9207d04c4fd"/></author><title value="ERezeptAbgabedaten"/><section><title value="Apotheke"/><entry><reference value="urn:uuid:3e9e29d0-0f8a-40fe-a4f5-f9207d04c4fd"/></entry></section><section><title value="Abgabeinformationen"/><entry><reference value="urn:uuid:106f6c4c-2d3d-4107-a450-40ecce0d7b57"/></entry></section></Composition></resource></entry><entry><fullUrl value="urn:uuid:3e9e29d0-0f8a-40fe-a4f5-f9207d04c4fd"/><resource><Organization xmlns="http://hl7.org/fhir"><id value="3e9e29d0-0f8a-40fe-a4f5-f9207d04c4fd"/><meta><profile value="http://fhir.abda.de/eRezeptAbgabedaten/StructureDefinition/DAV-PKV-PR-ERP-Apotheke|1.2"/></meta><identifier><system value="http://fhir.de/sid/arge-ik/iknr"/><value value="791318301"/></identifier><name value="Apotheke Will Wynn"/><address><type value="physical"/><line value="Marienburger Str. 56"><extension url="http://hl7.org/fhir/StructureDefinition/iso21090-ADXP-houseNumber"><valueString value="56"/></extension><extension url="http://hl7.org/fhir/StructureDefinition/iso21090-ADXP-streetName"><valueString value="Marienburger Str."/></extension></line><city value="Mickbrunn"/><postalCode value="30977"/><country value="D"/></address></Organization></resource></entry><entry><fullUrl value="urn:uuid:c3fe0460-394f-4aa8-8d8b-062c8a4e85fe"/><resource><Invoice xmlns="http://hl7.org/fhir"><id value="c3fe0460-394f-4aa8-8d8b-062c8a4e85fe"/><meta><profile value="http://fhir.abda.de/eRezeptAbgabedaten/StructureDefinition/DAV-PKV-PR-ERP-Abrechnungszeilen|1.2"/></meta><status value="issued"/><type><coding><system value="http://fhir.abda.de/eRezeptAbgabedaten/CodeSystem/DAV-CS-ERP-InvoiceTyp"/><code value="Abrechnungszeilen"/></coding></type><lineItem><sequence value="1"/><chargeItemCodeableConcept><coding><system value="http://fhir.de/CodeSystem/ifa/pzn"/><code value="57049606"/></coding><text value="Amovomilpam"/></chargeItemCodeableConcept><priceComponent><extension url="http://fhir.abda.de/eRezeptAbgabedaten/StructureDefinition/DAV-EX-ERP-KostenVersicherter"><extension url="Kategorie"><valueCodeableConcept><coding><system value="http://fhir.abda.de/eRezeptAbgabedaten/CodeSystem/DAV-PKV-CS-ERP-KostenVersicherterKategorie"/><code value="0"/></coding></valueCodeableConcept></extension><extension url="Kostenbetrag"><valueMoney><value value="58.28"/><currency value="EUR"/></valueMoney></extension></extension><extension url="http://fhir.abda.de/eRezeptAbgabedaten/StructureDefinition/DAV-EX-ERP-MwStSatz"><valueDecimal value="27.29"/></extension><type value="informational"/><factor value="1"/><amount><value value="192.21"/><currency value="EUR"/></amount></priceComponent></lineItem><totalGross><extension url="http://fhir.abda.de/eRezeptAbgabedaten/StructureDefinition/DAV-EX-ERP-Gesamtzuzahlung"><valueMoney><value value="58.28"/><currency value="EUR"/></valueMoney></extension><value value="192.21"/><currency value="EUR"/></totalGross></Invoice></resource></entry><entry><fullUrl value="urn:uuid:106f6c4c-2d3d-4107-a450-40ecce0d7b57"/><resource><MedicationDispense xmlns="http://hl7.org/fhir"><id value="106f6c4c-2d3d-4107-a450-40ecce0d7b57"/><meta><profile value="http://fhir.abda.de/eRezeptAbgabedaten/StructureDefinition/DAV-PKV-PR-ERP-Abgabeinformationen|1.2"/></meta><extension url="http://fhir.abda.de/eRezeptAbgabedaten/StructureDefinition/DAV-PKV-EX-ERP-AbrechnungsTyp"><valueCodeableConcept><coding><system value="http://fhir.abda.de/eRezeptAbgabedaten/CodeSystem/DAV-PKV-CS-ERP-AbrechnungsTyp"/><code value="1"/></coding></valueCodeableConcept></extension><extension url="http://fhir.abda.de/eRezeptAbgabedaten/StructureDefinition/DAV-EX-ERP-Abrechnungszeilen"><valueReference><reference value="urn:uuid:c3fe0460-394f-4aa8-8d8b-062c8a4e85fe"/></valueReference></extension><status value="completed"/><medicationCodeableConcept><coding><system value="http://terminology.hl7.org/CodeSystem/data-absent-reason"/><code value="not-applicable"/></coding></medicationCodeableConcept><performer><actor><reference value="urn:uuid:3e9e29d0-0f8a-40fe-a4f5-f9207d04c4fd"/></actor></performer><authorizingPrescription><identifier><system value="https://gematik.de/fhir/erp/NamingSystem/GEM_ERP_NS_PrescriptionId"/><value value="200.000.002.096.527.67"/></identifier></authorizingPrescription><type><coding><system value="http://fhir.abda.de/eRezeptAbgabedaten/CodeSystem/DAV-CS-ERP-MedicationDispenseTyp"/><code value="Abgabeinformationen"/></coding></type><whenHandedOver value="2024-02-08"/></MedicationDispense></resource></entry></Bundle>