<Bundle xmlns="http://hl7.org/fhir"><id value="84d81f33-2631-402d-b20e-59d8d4371f15"/><meta><lastUpdated value="2023-11-27T08:36:17.944+01:00"/><profile value="http://fhir.abda.de/eRezeptAbgabedaten/StructureDefinition/DAV-PKV-PR-ERP-AbgabedatenBundle|1.2"/></meta><identifier><system value="https://gematik.de/fhir/erp/NamingSystem/GEM_ERP_NS_PrescriptionId"/><value value="200.000.000.042.777.71"/></identifier><type value="document"/><timestamp value="2023-11-27T08:36:17.944+01:00"/><entry><fullUrl value="urn:uuid:5792fd13-be62-4f01-a2b6-b8186e10e894"/><resource><Composition xmlns="http://hl7.org/fhir"><id value="5792fd13-be62-4f01-a2b6-b8186e10e894"/><meta><profile value="http://fhir.abda.de/eRezeptAbgabedaten/StructureDefinition/DAV-PKV-PR-ERP-AbgabedatenComposition|1.2"/></meta><status value="final"/><type><coding><system value="http://fhir.abda.de/eRezeptAbgabedaten/CodeSystem/DAV-CS-ERP-CompositionTypes"/><code value="ERezeptAbgabedaten"/></coding></type><date value="2023-11-27T08:36:17+01:00"/><author><reference value="urn:uuid:792d5438-f875-47d8-9d01-833d32075d6f"/></author><title value="ERezeptAbgabedaten"/><section><title value="Apotheke"/><entry><reference value="urn:uuid:792d5438-f875-47d8-9d01-833d32075d6f"/></entry></section><section><title value="Abgabeinformationen"/><entry><reference value="urn:uuid:58a77df1-2734-4be6-a7bf-e483492e58d3"/></entry></section></Composition></resource></entry><entry><fullUrl value="urn:uuid:792d5438-f875-47d8-9d01-833d32075d6f"/><resource><Organization xmlns="http://hl7.org/fhir"><id value="792d5438-f875-47d8-9d01-833d32075d6f"/><meta><profile value="http://fhir.abda.de/eRezeptAbgabedaten/StructureDefinition/DAV-PKV-PR-ERP-Apotheke|1.2"/></meta><identifier><system value="http://fhir.de/sid/arge-ik/iknr"/><value value="163646011"/></identifier><name value="Apotheke Owen Moore"/><address><type value="physical"/><line value="Halligstr. 27b"><extension url="http://hl7.org/fhir/StructureDefinition/iso21090-ADXP-houseNumber"><valueString value="27b"/></extension><extension url="http://hl7.org/fhir/StructureDefinition/iso21090-ADXP-streetName"><valueString value="Halligstr."/></extension></line><city value="Finlaybrunn"/><postalCode value="48744"/><country value="D"/></address></Organization></resource></entry><entry><fullUrl value="urn:uuid:0417e51a-855b-4a04-b3e9-54cc82150d69"/><resource><Invoice xmlns="http://hl7.org/fhir"><id value="0417e51a-855b-4a04-b3e9-54cc82150d69"/><meta><profile value="http://fhir.abda.de/eRezeptAbgabedaten/StructureDefinition/DAV-PKV-PR-ERP-Abrechnungszeilen|1.2"/></meta><status value="issued"/><type><coding><system value="http://fhir.abda.de/eRezeptAbgabedaten/CodeSystem/DAV-CS-ERP-InvoiceTyp"/><code value="Abrechnungszeilen"/></coding></type><lineItem><sequence value="1"/><chargeItemCodeableConcept><coding><system value="http://fhir.de/CodeSystem/ifa/pzn"/><code value="50103308"/></coding><text value="Fomameol"/></chargeItemCodeableConcept><priceComponent><extension url="http://fhir.abda.de/eRezeptAbgabedaten/StructureDefinition/DAV-EX-ERP-KostenVersicherter"><extension url="Kategorie"><valueCodeableConcept><coding><system value="http://fhir.abda.de/eRezeptAbgabedaten/CodeSystem/DAV-PKV-CS-ERP-KostenVersicherterKategorie"/><code value="0"/></coding></valueCodeableConcept></extension><extension url="Kostenbetrag"><valueMoney><value value="321.95"/><currency value="EUR"/></valueMoney></extension></extension><extension url="http://fhir.abda.de/eRezeptAbgabedaten/StructureDefinition/DAV-EX-ERP-MwStSatz"><valueDecimal value="28.27"/></extension><type value="informational"/><factor value="1"/><amount><value value="462.02"/><currency value="EUR"/></amount></priceComponent></lineItem><lineItem><sequence value="2"/><chargeItemCodeableConcept><coding><system value="http://fhir.de/CodeSystem/ifa/pzn"/><code value="64987972"/></coding><text value="Dexameat"/></chargeItemCodeableConcept><priceComponent><extension url="http://fhir.abda.de/eRezeptAbgabedaten/StructureDefinition/DAV-EX-ERP-KostenVersicherter"><extension url="Kategorie"><valueCodeableConcept><coding><system value="http://fhir.abda.de/eRezeptAbgabedaten/CodeSystem/DAV-PKV-CS-ERP-KostenVersicherterKategorie"/><code value="0"/></coding></valueCodeableConcept></extension><extension url="Kostenbetrag"><valueMoney><value value="59.05"/><currency value="EUR"/></valueMoney></extension></extension><extension url="http://fhir.abda.de/eRezeptAbgabedaten/StructureDefinition/DAV-EX-ERP-MwStSatz"><valueDecimal value="28.27"/></extension><type value="informational"/><factor value="1"/><amount><value value="63.98"/><currency value="EUR"/></amount></priceComponent></lineItem><totalGross><extension url="http://fhir.abda.de/eRezeptAbgabedaten/StructureDefinition/DAV-EX-ERP-Gesamtzuzahlung"><valueMoney><value value="381.00"/><currency value="EUR"/></valueMoney></extension><value value="526.00"/><currency value="EUR"/></totalGross></Invoice></resource></entry><entry><fullUrl value="urn:uuid:58a77df1-2734-4be6-a7bf-e483492e58d3"/><resource><MedicationDispense xmlns="http://hl7.org/fhir"><id value="58a77df1-2734-4be6-a7bf-e483492e58d3"/><meta><profile value="http://fhir.abda.de/eRezeptAbgabedaten/StructureDefinition/DAV-PKV-PR-ERP-Abgabeinformationen|1.2"/></meta><extension url="http://fhir.abda.de/eRezeptAbgabedaten/StructureDefinition/DAV-PKV-EX-ERP-AbrechnungsTyp"><valueCodeableConcept><coding><system value="http://fhir.abda.de/eRezeptAbgabedaten/CodeSystem/DAV-PKV-CS-ERP-AbrechnungsTyp"/><code value="1"/></coding></valueCodeableConcept></extension><extension url="http://fhir.abda.de/eRezeptAbgabedaten/StructureDefinition/DAV-EX-ERP-Abrechnungszeilen"><valueReference><reference value="urn:uuid:0417e51a-855b-4a04-b3e9-54cc82150d69"/></valueReference></extension><status value="completed"/><medicationCodeableConcept><coding><system value="http://terminology.hl7.org/CodeSystem/data-absent-reason"/><code value="not-applicable"/></coding></medicationCodeableConcept><performer><actor><reference value="urn:uuid:792d5438-f875-47d8-9d01-833d32075d6f"/></actor></performer><authorizingPrescription><identifier><system value="https://gematik.de/fhir/erp/NamingSystem/GEM_ERP_NS_PrescriptionId"/><value value="200.000.000.042.777.71"/></identifier></authorizingPrescription><type><coding><system value="http://fhir.abda.de/eRezeptAbgabedaten/CodeSystem/DAV-CS-ERP-MedicationDispenseTyp"/><code value="Abgabeinformationen"/></coding></type><whenHandedOver value="2023-11-27"/></MedicationDispense></resource></entry></Bundle>