<Bundle xmlns="http://hl7.org/fhir">
   <id value="c88efd1f-0000-0000-0003-000000000000"/>
   <meta>
      <profile value="https://gematik.de/fhir/erp/StructureDefinition/GEM_ERP_PR_Bundle|1.4"/>
   </meta>
   <identifier>
      <system value="https://gematik.de/fhir/erp/NamingSystem/GEM_ERP_NS_PrescriptionId"/>
      <value value="200.000.002.096.526.70"/>
   </identifier>
   <type value="document"/>
   <timestamp value="2024-02-08T18:14:00.861+00:00"/>
   <link>
      <relation value="self"/>
      <url value="https://erp-ref.zentral.erp.splitdns.ti-dienste.de/Task/200.000.002.096.526.70/$close/"/>
   </link>
   <entry>
      <fullUrl value="urn:uuid:94cd8300-3f75-493c-aacd-33d1ee641ba0"/>
      <resource>
         <Composition xmlns="http://hl7.org/fhir">
            <meta>
               <profile value="https://gematik.de/fhir/erp/StructureDefinition/GEM_ERP_PR_Composition|1.4"/>
            </meta>
            <extension url="https://gematik.de/fhir/erp/StructureDefinition/GEM_ERP_EX_Beneficiary">
               <valueIdentifier>
                  <system value="https://gematik.de/fhir/sid/telematik-id"/>
                  <value value="3-SMC-B-Testkarte-883110000116873"/>
               </valueIdentifier>
            </extension>
            <status value="final"/>
            <type>
               <coding>
                  <system value="https://gematik.de/fhir/erp/CodeSystem/GEM_ERP_CS_DocumentType"/>
                  <code value="3"/>
                  <display value="Receipt"/>
               </coding>
            </type>
            <date value="2024-02-08T18:14:00.857+00:00"/>
            <author>
               <reference value="urn:uuid:5d6335f8-f4be-4767-8ac6-20c7accad2ea"/>
            </author>
            <title value="Quittung"/>
            <event>
               <period>
                  <start value="2024-02-08T18:13:59.307+00:00"/>
                  <end value="2024-02-08T18:14:00.857+00:00"/>
               </period>
            </event>
            <section>
               <entry>
                  <reference value="urn:uuid:905641ae-cd0c-4d1f-a2b8-636996919fe8"/>
               </entry>
            </section>
         </Composition>
      </resource>
   </entry>
   <entry>
      <fullUrl value="urn:uuid:5d6335f8-f4be-4767-8ac6-20c7accad2ea"/>
      <resource>
         <Device xmlns="http://hl7.org/fhir">
            <id value="1"/>
            <meta>
               <profile value="https://gematik.de/fhir/erp/StructureDefinition/GEM_ERP_PR_Device|1.4"/>
            </meta>
            <status value="active"/>
            <serialNumber value="1.13.0"/>
            <deviceName>
               <name value="E-Rezept Fachdienst"/>
               <type value="user-friendly-name"/>
            </deviceName>
            <version>
               <value value="1.13.0"/>
            </version>
            <contact>
               <system value="email"/>
               <value value="betrieb@gematik.de"/>
            </contact>
         </Device>
      </resource>
   </entry>
   <entry>
      <fullUrl value="urn:uuid:905641ae-cd0c-4d1f-a2b8-636996919fe8"/>
      <resource>
         <Binary xmlns="http://hl7.org/fhir">
            <meta>
               <profile value="https://gematik.de/fhir/erp/StructureDefinition/GEM_ERP_PR_Digest|1.4"/>
            </meta>
            <contentType value="application/octet-stream"/>
            <data value="6bxU2eOj0Z/55zXOjc6Yv6AY3K/phbN3N3kiky962ww="/>
         </Binary>
      </resource>
   </entry>
   <signature>
      <type>
         <system value="urn:iso-astm:E1762-95:2013"/>
         <code value="1.2.840.10065.1.12.1.1"/>
      </type>
      <when value="2024-02-08T18:14:00.864+00:00"/>
      <who>
         <reference value="urn:uuid:5d6335f8-f4be-4767-8ac6-20c7accad2ea"/>
      </who>
      <sigFormat value="application/pkcs7-mime"/>
      <data value=""/>
   </signature>
</Bundle>