{
  "resourceType" : "Bundle",
  "id" : "b73212f1-cea2-4d4c-83a3-4aebfc514a06",
  "type" : "collection",
  "timestamp" : "2024-02-08T18:14:03.134+00:00",
  "entry" : [ {
    "fullUrl" : "https://erp-ref.zentral.erp.splitdns.ti-dienste.de/ChargeItem/200.000.002.096.526.70",
    "resource" : {
      "resourceType" : "ChargeItem",
      "id" : "200.000.002.096.526.70",
      "meta" : {
        "profile" : [ "https://gematik.de/fhir/erpchrg/StructureDefinition/GEM_ERPCHRG_PR_ChargeItem|1.0" ]
      },
      "identifier" : [ {
        "system" : "https://gematik.de/fhir/erp/NamingSystem/GEM_ERP_NS_AccessCode",
        "value" : "aa2f438286af3e14e2d6f8cd2cdf7c742fed3c91328099dbe7becf67aff1ec76"
      }, {
        "system" : "https://gematik.de/fhir/erp/NamingSystem/GEM_ERP_NS_PrescriptionId",
        "value" : "200.000.002.096.526.70"
      } ],
      "status" : "billable",
      "code" : {
        "coding" : [ {
          "system" : "http://terminology.hl7.org/CodeSystem/data-absent-reason",
          "code" : "not-applicable"
        } ]
      },
      "subject" : {
        "identifier" : {
          "system" : "http://fhir.de/sid/pkv/kvid-10",
          "value" : "X110465770"
        }
      },
      "enterer" : {
        "identifier" : {
          "system" : "https://gematik.de/fhir/sid/telematik-id",
          "value" : "3-SMC-B-Testkarte-883110000116873"
        }
      },
      "enteredDate" : "2024-02-08T18:14:02.588+00:00",
      "supportingInformation" : [ {
        "reference" : "urn:uuid:c88efd1f-0000-0000-0001-000000000000",
        "display" : "https://fhir.kbv.de/StructureDefinition/KBV_PR_ERP_Bundle"
      }, {
        "reference" : "urn:uuid:c88efd1f-0000-0000-0004-000000000000",
        "display" : "http://fhir.abda.de/eRezeptAbgabedaten/StructureDefinition/DAV-PKV-PR-ERP-AbgabedatenBundle"
      }, {
        "reference" : "urn:uuid:c88efd1f-0000-0000-0003-000000000000",
        "display" : "https://gematik.de/fhir/erp/StructureDefinition/GEM_ERP_PR_Bundle"
      } ]
    }
  }, {
    "fullUrl" : "urn:uuid:c88efd1f-0000-0000-0004-000000000000",
    "resource" : {
      "resourceType" : "Bundle",
      "id" : "59940d32-bb33-4834-95b4-f76217a3f5cd",
      "meta" : {
        "lastUpdated" : "2024-02-08T19:14:00.963+01:00",
        "profile" : [ "http://fhir.abda.de/eRezeptAbgabedaten/StructureDefinition/DAV-PKV-PR-ERP-AbgabedatenBundle|1.4" ]
      },
      "identifier" : {
        "system" : "https://gematik.de/fhir/erp/NamingSystem/GEM_ERP_NS_PrescriptionId",
        "value" : "200.000.002.096.526.70"
      },
      "type" : "document",
      "timestamp" : "2024-02-08T19:14:00.963+01:00",
      "entry" : [ {
        "fullUrl" : "urn:uuid:ce449009-4531-48b5-b3af-378560280f32",
        "resource" : {
          "resourceType" : "Composition",
          "meta" : {
            "profile" : [ "http://fhir.abda.de/eRezeptAbgabedaten/StructureDefinition/DAV-PKV-PR-ERP-AbgabedatenComposition|1.4" ]
          },
          "status" : "final",
          "type" : {
            "coding" : [ {
              "system" : "http://fhir.abda.de/eRezeptAbgabedaten/CodeSystem/DAV-CS-ERP-CompositionTypes",
              "code" : "ERezeptAbgabedaten"
            } ]
          },
          "date" : "2024-02-08T19:14:00+01:00",
          "author" : [ {
            "reference" : "urn:uuid:8a4128fa-69fa-4369-9e10-74a60362dc3c"
          } ],
          "title" : "ERezeptAbgabedaten",
          "section" : [ {
            "title" : "Apotheke",
            "entry" : [ {
              "reference" : "urn:uuid:8a4128fa-69fa-4369-9e10-74a60362dc3c"
            } ]
          }, {
            "title" : "Abgabeinformationen",
            "entry" : [ {
              "reference" : "urn:uuid:a14c1f59-e612-409a-a976-20d457a17a91"
            } ]
          } ]
        }
      }, {
        "fullUrl" : "urn:uuid:8a4128fa-69fa-4369-9e10-74a60362dc3c",
        "resource" : {
          "resourceType" : "Organization",
          "meta" : {
            "profile" : [ "http://fhir.abda.de/eRezeptAbgabedaten/StructureDefinition/DAV-PKV-PR-ERP-Apotheke|1.4" ]
          },
          "identifier" : [ {
            "system" : "http://fhir.de/sid/arge-ik/iknr",
            "value" : "670883188"
          } ],
          "name" : "Apotheke Dustin D. Furniture",
          "address" : [ {
            "type" : "physical",
            "line" : [ "Friedhofstr. 54a" ],
            "_line" : [ {
              "extension" : [ {
                "url" : "http://hl7.org/fhir/StructureDefinition/iso21090-ADXP-houseNumber",
                "valueString" : "54a"
              }, {
                "url" : "http://hl7.org/fhir/StructureDefinition/iso21090-ADXP-streetName",
                "valueString" : "Friedhofstr."
              } ]
            } ],
            "city" : "Weyelfeld",
            "postalCode" : "76845",
            "country" : "D"
          } ]
        }
      }, {
        "fullUrl" : "urn:uuid:6ff2d0f1-5da4-446d-89b4-07834047a28b",
        "resource" : {
          "resourceType" : "Invoice",
          "meta" : {
            "profile" : [ "http://fhir.abda.de/eRezeptAbgabedaten/StructureDefinition/DAV-PKV-PR-ERP-Abrechnungszeilen|1.4" ]
          },
          "status" : "issued",
          "type" : {
            "coding" : [ {
              "system" : "http://fhir.abda.de/eRezeptAbgabedaten/CodeSystem/DAV-CS-ERP-InvoiceTyp",
              "code" : "Abrechnungszeilen"
            } ]
          },
          "lineItem" : [ {
            "sequence" : 1,
            "chargeItemCodeableConcept" : {
              "coding" : [ {
                "system" : "http://fhir.de/CodeSystem/ifa/pzn",
                "code" : "25457373"
              } ],
              "text" : "Abaabraid"
            },
            "priceComponent" : [ {
              "extension" : [ {
                "url" : "http://fhir.abda.de/eRezeptAbgabedaten/StructureDefinition/DAV-EX-ERP-KostenVersicherter",
                "extension" : [ {
                  "url" : "Kategorie",
                  "valueCodeableConcept" : {
                    "coding" : [ {
                      "system" : "http://fhir.abda.de/eRezeptAbgabedaten/CodeSystem/DAV-PKV-CS-ERP-KostenVersicherterKategorie",
                      "code" : "0"
                    } ]
                  }
                }, {
                  "url" : "Kostenbetrag",
                  "valueMoney" : {
                    "value" : 60.91,
                    "currency" : "EUR"
                  }
                } ]
              }, {
                "url" : "http://fhir.abda.de/eRezeptAbgabedaten/StructureDefinition/DAV-EX-ERP-MwStSatz",
                "valueDecimal" : 11.83
              } ],
              "type" : "informational",
              "factor" : 1,
              "amount" : {
                "value" : 276.55,
                "currency" : "EUR"
              }
            } ]
          }, {
            "sequence" : 2,
            "chargeItemCodeableConcept" : {
              "coding" : [ {
                "system" : "http://fhir.de/CodeSystem/ifa/pzn",
                "code" : "85947787"
              } ],
              "text" : "Flurterol"
            },
            "priceComponent" : [ {
              "extension" : [ {
                "url" : "http://fhir.abda.de/eRezeptAbgabedaten/StructureDefinition/DAV-EX-ERP-KostenVersicherter",
                "extension" : [ {
                  "url" : "Kategorie",
                  "valueCodeableConcept" : {
                    "coding" : [ {
                      "system" : "http://fhir.abda.de/eRezeptAbgabedaten/CodeSystem/DAV-PKV-CS-ERP-KostenVersicherterKategorie",
                      "code" : "0"
                    } ]
                  }
                }, {
                  "url" : "Kostenbetrag",
                  "valueMoney" : {
                    "value" : 6.55,
                    "currency" : "EUR"
                  }
                } ]
              }, {
                "url" : "http://fhir.abda.de/eRezeptAbgabedaten/StructureDefinition/DAV-EX-ERP-MwStSatz",
                "valueDecimal" : 11.83
              } ],
              "type" : "informational",
              "factor" : 1,
              "amount" : {
                "value" : 7.80,
                "currency" : "EUR"
              }
            } ]
          }, {
            "sequence" : 3,
            "chargeItemCodeableConcept" : {
              "coding" : [ {
                "system" : "http://fhir.de/CodeSystem/ifa/pzn",
                "code" : "17615214"
              } ],
              "text" : "Hemvofloxmib"
            },
            "priceComponent" : [ {
              "extension" : [ {
                "url" : "http://fhir.abda.de/eRezeptAbgabedaten/StructureDefinition/DAV-EX-ERP-KostenVersicherter",
                "extension" : [ {
                  "url" : "Kategorie",
                  "valueCodeableConcept" : {
                    "coding" : [ {
                      "system" : "http://fhir.abda.de/eRezeptAbgabedaten/CodeSystem/DAV-PKV-CS-ERP-KostenVersicherterKategorie",
                      "code" : "0"
                    } ]
                  }
                }, {
                  "url" : "Kostenbetrag",
                  "valueMoney" : {
                    "value" : 40.48,
                    "currency" : "EUR"
                  }
                } ]
              }, {
                "url" : "http://fhir.abda.de/eRezeptAbgabedaten/StructureDefinition/DAV-EX-ERP-MwStSatz",
                "valueDecimal" : 11.83
              } ],
              "type" : "informational",
              "factor" : 1,
              "amount" : {
                "value" : 44.79,
                "currency" : "EUR"
              }
            } ]
          }, {
            "sequence" : 4,
            "chargeItemCodeableConcept" : {
              "coding" : [ {
                "system" : "http://fhir.de/CodeSystem/ifa/pzn",
                "code" : "77175129"
              } ],
              "text" : "Aciimoat"
            },
            "priceComponent" : [ {
              "extension" : [ {
                "url" : "http://fhir.abda.de/eRezeptAbgabedaten/StructureDefinition/DAV-EX-ERP-KostenVersicherter",
                "extension" : [ {
                  "url" : "Kategorie",
                  "valueCodeableConcept" : {
                    "coding" : [ {
                      "system" : "http://fhir.abda.de/eRezeptAbgabedaten/CodeSystem/DAV-PKV-CS-ERP-KostenVersicherterKategorie",
                      "code" : "0"
                    } ]
                  }
                }, {
                  "url" : "Kostenbetrag",
                  "valueMoney" : {
                    "value" : 34.91,
                    "currency" : "EUR"
                  }
                } ]
              }, {
                "url" : "http://fhir.abda.de/eRezeptAbgabedaten/StructureDefinition/DAV-EX-ERP-MwStSatz",
                "valueDecimal" : 11.83
              } ],
              "type" : "informational",
              "factor" : 1,
              "amount" : {
                "value" : 44.40,
                "currency" : "EUR"
              }
            } ]
          } ],
          "totalGross" : {
            "extension" : [ {
              "url" : "http://fhir.abda.de/eRezeptAbgabedaten/StructureDefinition/DAV-EX-ERP-Gesamtzuzahlung",
              "valueMoney" : {
                "value" : 142.85,
                "currency" : "EUR"
              }
            } ],
            "value" : 373.54,
            "currency" : "EUR"
          }
        }
      }, {
        "fullUrl" : "urn:uuid:a14c1f59-e612-409a-a976-20d457a17a91",
        "resource" : {
          "resourceType" : "MedicationDispense",
          "meta" : {
            "profile" : [ "http://fhir.abda.de/eRezeptAbgabedaten/StructureDefinition/DAV-PKV-PR-ERP-Abgabeinformationen|1.4" ]
          },
          "extension" : [ {
            "url" : "http://fhir.abda.de/eRezeptAbgabedaten/StructureDefinition/DAV-PKV-EX-ERP-AbrechnungsTyp",
            "valueCodeableConcept" : {
              "coding" : [ {
                "system" : "http://fhir.abda.de/eRezeptAbgabedaten/CodeSystem/DAV-PKV-CS-ERP-AbrechnungsTyp",
                "code" : "1"
              } ]
            }
          }, {
            "url" : "http://fhir.abda.de/eRezeptAbgabedaten/StructureDefinition/DAV-EX-ERP-Abrechnungszeilen",
            "valueReference" : {
              "reference" : "urn:uuid:6ff2d0f1-5da4-446d-89b4-07834047a28b"
            }
          } ],
          "status" : "completed",
          "medicationCodeableConcept" : {
            "coding" : [ {
              "system" : "http://terminology.hl7.org/CodeSystem/data-absent-reason",
              "code" : "not-applicable"
            } ]
          },
          "performer" : [ {
            "actor" : {
              "reference" : "urn:uuid:8a4128fa-69fa-4369-9e10-74a60362dc3c"
            }
          } ],
          "authorizingPrescription" : [ {
            "identifier" : {
              "system" : "https://gematik.de/fhir/erp/NamingSystem/GEM_ERP_NS_PrescriptionId",
              "value" : "200.000.002.096.526.70"
            }
          } ],
          "type" : {
            "coding" : [ {
              "system" : "http://fhir.abda.de/eRezeptAbgabedaten/CodeSystem/DAV-CS-ERP-MedicationDispenseTyp",
              "code" : "Abgabeinformationen"
            } ]
          },
          "whenHandedOver" : "2024-02-08"
        }
      } ],
      "signature" : {
        "type" : [ {
          "system" : "urn:iso-astm:E1762-95:2013",
          "code" : "1.2.840.10065.1.12.1.1"
        } ],
        "when" : "2024-02-08T18:14:03.160+00:00",
        "who" : {
          "reference" : "https://erp-ref.zentral.erp.splitdns.ti-dienste.de/Device/1"
        },
        "sigFormat" : "application/pkcs7-mime",
        "data" : ""
      }
    }
  }, {
    "fullUrl" : "urn:uuid:c88efd1f-0000-0000-0001-000000000000",
    "resource" : {
      "resourceType" : "Bundle",
      "id" : "9e9b3d77-4f67-4f1f-bde8-9b9c7160aa8e",
      "meta" : {
        "lastUpdated" : "2024-02-08T19:13:58.052+01:00",
        "profile" : [ "https://fhir.kbv.de/StructureDefinition/KBV_PR_ERP_Bundle|1.1.0" ]
      },
      "identifier" : {
        "system" : "https://gematik.de/fhir/erp/NamingSystem/GEM_ERP_NS_PrescriptionId",
        "value" : "200.000.002.096.526.70"
      },
      "type" : "document",
      "timestamp" : "2024-02-08T19:13:58.052+01:00",
      "entry" : [ {
        "fullUrl" : "https://pvs.gematik.de/fhir/Composition/eaedf95e-2ce4-4b9e-be17-73ea608526da",
        "resource" : {
          "resourceType" : "Composition",
          "id" : "eaedf95e-2ce4-4b9e-be17-73ea608526da",
          "meta" : {
            "profile" : [ "https://fhir.kbv.de/StructureDefinition/KBV_PR_ERP_Composition|1.1.0" ]
          },
          "extension" : [ {
            "url" : "https://fhir.kbv.de/StructureDefinition/KBV_EX_FOR_Legal_basis",
            "valueCoding" : {
              "system" : "https://fhir.kbv.de/CodeSystem/KBV_CS_SFHIR_KBV_STATUSKENNZEICHEN",
              "code" : "00"
            }
          } ],
          "status" : "final",
          "type" : {
            "coding" : [ {
              "system" : "https://fhir.kbv.de/CodeSystem/KBV_CS_SFHIR_KBV_FORMULAR_ART",
              "code" : "e16A"
            } ]
          },
          "subject" : {
            "reference" : "Patient/640c9ba3-2649-4faf-9a6b-93d25c7404f8"
          },
          "date" : "2024-02-08T19:13:58+01:00",
          "author" : [ {
            "reference" : "Practitioner/1988c2db-98d0-416e-b624-31c637af6ac4",
            "type" : "Practitioner"
          }, {
            "type" : "Device",
            "identifier" : {
              "system" : "https://fhir.kbv.de/NamingSystem/KBV_NS_FOR_Pruefnummer",
              "value" : "GEMATIK/410/2109/36/123"
            }
          } ],
          "title" : "elektronische Arzneimittelverordnung",
          "custodian" : {
            "reference" : "Organization/56cea22d-a1cc-4d26-862c-1449bf8984b8"
          },
          "section" : [ {
            "code" : {
              "coding" : [ {
                "system" : "https://fhir.kbv.de/CodeSystem/KBV_CS_ERP_Section_Type",
                "code" : "Coverage"
              } ]
            },
            "entry" : [ {
              "reference" : "Coverage/79441c9a-c7be-4f9a-a14a-6b890b73d9d2"
            } ]
          }, {
            "code" : {
              "coding" : [ {
                "system" : "https://fhir.kbv.de/CodeSystem/KBV_CS_ERP_Section_Type",
                "code" : "Prescription"
              } ]
            },
            "entry" : [ {
              "reference" : "MedicationRequest/67c52422-5216-4786-beca-f94baf2e43ad"
            } ]
          } ]
        }
      }, {
        "fullUrl" : "https://pvs.gematik.de/fhir/Medication/9c18ac42-2969-44aa-b951-c6bfa687b5bf",
        "resource" : {
          "resourceType" : "Medication",
          "id" : "9c18ac42-2969-44aa-b951-c6bfa687b5bf",
          "meta" : {
            "profile" : [ "https://fhir.kbv.de/StructureDefinition/KBV_PR_ERP_Medication_PZN|1.1.0" ]
          },
          "extension" : [ {
            "url" : "https://fhir.kbv.de/StructureDefinition/KBV_EX_Base_Medication_Type",
            "valueCodeableConcept" : {
              "coding" : [ {
                "system" : "http://snomed.info/sct",
                "version" : "http://snomed.info/sct/900000000000207008/version/20220331",
                "code" : "763158003",
                "display" : "Medicinal product (product)"
              } ]
            }
          }, {
            "url" : "https://fhir.kbv.de/StructureDefinition/KBV_EX_ERP_Medication_Category",
            "valueCoding" : {
              "system" : "https://fhir.kbv.de/CodeSystem/KBV_CS_ERP_Medication_Category",
              "code" : "00"
            }
          }, {
            "url" : "https://fhir.kbv.de/StructureDefinition/KBV_EX_ERP_Medication_Vaccine",
            "valueBoolean" : false
          }, {
            "url" : "http://fhir.de/StructureDefinition/normgroesse",
            "valueCode" : "NB"
          } ],
          "code" : {
            "coding" : [ {
              "system" : "http://fhir.de/CodeSystem/ifa/pzn",
              "code" : "10256692"
            } ],
            "text" : "Schmerzmittel"
          },
          "form" : {
            "coding" : [ {
              "system" : "https://fhir.kbv.de/CodeSystem/KBV_CS_SFHIR_KBV_DARREICHUNGSFORM",
              "code" : "TAB"
            } ]
          },
          "amount" : {
            "numerator" : {
              "extension" : [ {
                "url" : "https://fhir.kbv.de/StructureDefinition/KBV_EX_ERP_Medication_PackagingSize",
                "valueString" : "1"
              } ],
              "unit" : "Stk"
            },
            "denominator" : {
              "value" : 1
            }
          }
        }
      }, {
        "fullUrl" : "https://pvs.gematik.de/fhir/Patient/640c9ba3-2649-4faf-9a6b-93d25c7404f8",
        "resource" : {
          "resourceType" : "Patient",
          "id" : "640c9ba3-2649-4faf-9a6b-93d25c7404f8",
          "meta" : {
            "profile" : [ "https://fhir.kbv.de/StructureDefinition/KBV_PR_FOR_Patient|1.1.0" ]
          },
          "identifier" : [ {
            "type" : {
              "coding" : [ {
                "system" : "http://fhir.de/CodeSystem/identifier-type-de-basis",
                "code" : "PKV"
              } ]
            },
            "system" : "http://fhir.de/sid/pkv/kvid-10",
            "value" : "X110465770"
          } ],
          "name" : [ {
            "use" : "official",
            "family" : "Angermänn",
            "_family" : {
              "extension" : [ {
                "url" : "http://hl7.org/fhir/StructureDefinition/humanname-own-name",
                "valueString" : "Angermänn"
              } ]
            },
            "given" : [ "Günther" ]
          } ],
          "birthDate" : "1968-09-01",
          "address" : [ {
            "type" : "both",
            "line" : [ "Am Knechtsgraben 357" ],
            "_line" : [ {
              "extension" : [ {
                "url" : "http://hl7.org/fhir/StructureDefinition/iso21090-ADXP-houseNumber",
                "valueString" : "357"
              }, {
                "url" : "http://hl7.org/fhir/StructureDefinition/iso21090-ADXP-streetName",
                "valueString" : "Am Knechtsgraben"
              } ]
            } ],
            "city" : "Olbrichbrunn",
            "postalCode" : "68242",
            "country" : "D"
          } ]
        }
      }, {
        "fullUrl" : "https://pvs.gematik.de/fhir/Organization/56cea22d-a1cc-4d26-862c-1449bf8984b8",
        "resource" : {
          "resourceType" : "Organization",
          "id" : "56cea22d-a1cc-4d26-862c-1449bf8984b8",
          "meta" : {
            "profile" : [ "https://fhir.kbv.de/StructureDefinition/KBV_PR_FOR_Organization|1.1.0" ]
          },
          "identifier" : [ {
            "type" : {
              "coding" : [ {
                "system" : "http://terminology.hl7.org/CodeSystem/v2-0203",
                "code" : "BSNR"
              } ]
            },
            "system" : "https://fhir.kbv.de/NamingSystem/KBV_NS_Base_BSNR",
            "value" : "030858272"
          } ],
          "name" : "Arztpraxis Schraßer",
          "telecom" : [ {
            "system" : "phone",
            "value" : "+49-7111-25857900"
          }, {
            "system" : "email",
            "value" : "giuseppe.filipowski@rodowski.org"
          } ],
          "address" : [ {
            "type" : "both",
            "line" : [ "Gierener Weg 17" ],
            "_line" : [ {
              "extension" : [ {
                "url" : "http://hl7.org/fhir/StructureDefinition/iso21090-ADXP-houseNumber",
                "valueString" : "17"
              }, {
                "url" : "http://hl7.org/fhir/StructureDefinition/iso21090-ADXP-streetName",
                "valueString" : "Gierener Weg"
              } ]
            } ],
            "city" : "Franzisburg",
            "postalCode" : "48462",
            "country" : "D"
          } ]
        }
      }, {
        "fullUrl" : "https://pvs.gematik.de/fhir/Coverage/79441c9a-c7be-4f9a-a14a-6b890b73d9d2",
        "resource" : {
          "resourceType" : "Coverage",
          "id" : "79441c9a-c7be-4f9a-a14a-6b890b73d9d2",
          "meta" : {
            "profile" : [ "https://fhir.kbv.de/StructureDefinition/KBV_PR_FOR_Coverage|1.1.0" ]
          },
          "extension" : [ {
            "url" : "http://fhir.de/StructureDefinition/gkv/besondere-personengruppe",
            "valueCoding" : {
              "system" : "https://fhir.kbv.de/CodeSystem/KBV_CS_SFHIR_KBV_PERSONENGRUPPE",
              "code" : "00"
            }
          }, {
            "url" : "http://fhir.de/StructureDefinition/gkv/dmp-kennzeichen",
            "valueCoding" : {
              "system" : "https://fhir.kbv.de/CodeSystem/KBV_CS_SFHIR_KBV_DMP",
              "code" : "00"
            }
          }, {
            "url" : "http://fhir.de/StructureDefinition/gkv/wop",
            "valueCoding" : {
              "system" : "https://fhir.kbv.de/CodeSystem/KBV_CS_SFHIR_ITA_WOP",
              "code" : "48"
            }
          }, {
            "url" : "http://fhir.de/StructureDefinition/gkv/versichertenart",
            "valueCoding" : {
              "system" : "https://fhir.kbv.de/CodeSystem/KBV_CS_SFHIR_KBV_VERSICHERTENSTATUS",
              "code" : "1"
            }
          } ],
          "status" : "active",
          "type" : {
            "coding" : [ {
              "system" : "http://fhir.de/CodeSystem/versicherungsart-de-basis",
              "code" : "PKV"
            } ]
          },
          "beneficiary" : {
            "reference" : "Patient/93a9c42e-bbc9-4d2b-aba0-7459d32b1476"
          },
          "payor" : [ {
            "identifier" : {
              "system" : "http://fhir.de/sid/arge-ik/iknr",
              "value" : "168141198"
            },
            "display" : "Gothaer"
          } ]
        }
      }, {
        "fullUrl" : "https://pvs.gematik.de/fhir/Practitioner/1988c2db-98d0-416e-b624-31c637af6ac4",
        "resource" : {
          "resourceType" : "Practitioner",
          "id" : "1988c2db-98d0-416e-b624-31c637af6ac4",
          "meta" : {
            "profile" : [ "https://fhir.kbv.de/StructureDefinition/KBV_PR_FOR_Practitioner|1.1.0" ]
          },
          "identifier" : [ {
            "type" : {
              "coding" : [ {
                "system" : "http://terminology.hl7.org/CodeSystem/v2-0203",
                "code" : "LANR"
              } ]
            },
            "system" : "https://fhir.kbv.de/NamingSystem/KBV_NS_Base_ANR",
            "value" : "032950438"
          } ],
          "name" : [ {
            "use" : "official",
            "family" : "Schraßer",
            "_family" : {
              "extension" : [ {
                "url" : "http://hl7.org/fhir/StructureDefinition/humanname-own-name",
                "valueString" : "Schraßer"
              } ]
            },
            "given" : [ "Dr." ],
            "prefix" : [ "Dr." ],
            "_prefix" : [ {
              "extension" : [ {
                "url" : "http://hl7.org/fhir/StructureDefinition/iso21090-EN-qualifier",
                "valueCode" : "AC"
              } ]
            } ]
          } ],
          "qualification" : [ {
            "code" : {
              "coding" : [ {
                "system" : "https://fhir.kbv.de/CodeSystem/KBV_CS_FOR_Qualification_Type",
                "code" : "00"
              } ]
            }
          }, {
            "code" : {
              "coding" : [ {
                "system" : "https://fhir.kbv.de/CodeSystem/KBV_CS_FOR_Berufsbezeichnung",
                "code" : "Berufsbezeichnung"
              } ],
              "text" : "Super-Facharzt für alles Mögliche"
            }
          } ]
        }
      }, {
        "fullUrl" : "https://pvs.gematik.de/fhir/MedicationRequest/67c52422-5216-4786-beca-f94baf2e43ad",
        "resource" : {
          "resourceType" : "MedicationRequest",
          "id" : "67c52422-5216-4786-beca-f94baf2e43ad",
          "meta" : {
            "profile" : [ "https://fhir.kbv.de/StructureDefinition/KBV_PR_ERP_Prescription|1.1.0" ]
          },
          "extension" : [ {
            "url" : "https://fhir.kbv.de/StructureDefinition/KBV_EX_ERP_BVG",
            "valueBoolean" : false
          }, {
            "url" : "https://fhir.kbv.de/StructureDefinition/KBV_EX_ERP_EmergencyServicesFee",
            "valueBoolean" : false
          }, {
            "url" : "https://fhir.kbv.de/StructureDefinition/KBV_EX_ERP_Multiple_Prescription",
            "extension" : [ {
              "url" : "Kennzeichen",
              "valueBoolean" : false
            } ]
          }, {
            "url" : "https://fhir.kbv.de/StructureDefinition/KBV_EX_FOR_StatusCoPayment",
            "valueCoding" : {
              "system" : "https://fhir.kbv.de/CodeSystem/KBV_CS_FOR_StatusCoPayment",
              "code" : "1"
            }
          } ],
          "status" : "active",
          "intent" : "order",
          "medicationReference" : {
            "reference" : "Medication/9c18ac42-2969-44aa-b951-c6bfa687b5bf"
          },
          "subject" : {
            "reference" : "Patient/640c9ba3-2649-4faf-9a6b-93d25c7404f8"
          },
          "authoredOn" : "2024-02-08",
          "requester" : {
            "reference" : "Practitioner/1988c2db-98d0-416e-b624-31c637af6ac4"
          },
          "insurance" : [ {
            "reference" : "Coverage/79441c9a-c7be-4f9a-a14a-6b890b73d9d2"
          } ],
          "dispenseRequest" : {
            "quantity" : {
              "value" : 1,
              "system" : "http://unitsofmeasure.org",
              "code" : "{Package}"
            }
          },
          "substitution" : {
            "allowedBoolean" : false
          }
        }
      } ],
      "signature" : {
        "type" : [ {
          "system" : "urn:iso-astm:E1762-95:2013",
          "code" : "1.2.840.10065.1.12.1.1"
        } ],
        "when" : "2024-02-08T18:14:03.157+00:00",
        "who" : {
          "reference" : "https://erp-ref.zentral.erp.splitdns.ti-dienste.de/Device/1"
        },
        "sigFormat" : "application/pkcs7-mime",
        "data" : ""
      }
    }
  }, {
    "fullUrl" : "urn:uuid:c88efd1f-0000-0000-0003-000000000000",
    "resource" : {
      "resourceType" : "Bundle",
      "meta" : {
        "profile" : [ "https://gematik.de/fhir/erp/StructureDefinition/GEM_ERP_PR_Bundle|1.4" ]
      },
      "identifier" : {
        "system" : "https://gematik.de/fhir/erp/NamingSystem/GEM_ERP_NS_PrescriptionId",
        "value" : "200.000.002.096.526.70"
      },
      "type" : "document",
      "timestamp" : "2024-02-08T18:14:00.861+00:00",
      "link" : [ {
        "relation" : "self",
        "url" : "https://erp-ref.zentral.erp.splitdns.ti-dienste.de/Task/200.000.002.096.526.70/$close/"
      } ],
      "entry" : [ {
        "fullUrl" : "urn:uuid:94cd8300-3f75-493c-aacd-33d1ee641ba0",
        "resource" : {
          "resourceType" : "Composition",
          "id" : "94cd8300-3f75-493c-aacd-33d1ee641ba0",
          "meta" : {
            "profile" : [ "https://gematik.de/fhir/erp/StructureDefinition/GEM_ERP_PR_Composition|1.4" ]
          },
          "extension" : [ {
            "url" : "https://gematik.de/fhir/erp/StructureDefinition/GEM_ERP_EX_Beneficiary",
            "valueIdentifier" : {
              "system" : "https://gematik.de/fhir/sid/telematik-id",
              "value" : "3-SMC-B-Testkarte-883110000116873"
            }
          } ],
          "status" : "final",
          "type" : {
            "coding" : [ {
              "system" : "https://gematik.de/fhir/erp/CodeSystem/GEM_ERP_CS_DocumentType",
              "code" : "3",
              "display" : "Receipt"
            } ]
          },
          "date" : "2024-02-08T18:14:00.857+00:00",
          "author" : [ {
            "reference" : "urn:uuid:5d6335f8-f4be-4767-8ac6-20c7accad2ea"
          } ],
          "title" : "Quittung",
          "event" : [ {
            "period" : {
              "start" : "2024-02-08T18:13:59.307+00:00",
              "end" : "2024-02-08T18:14:00.857+00:00"
            }
          } ],
          "section" : [ {
            "entry" : [ {
              "reference" : "urn:uuid:905641ae-cd0c-4d1f-a2b8-636996919fe8"
            } ]
          } ]
        }
      }, {
        "fullUrl" : "urn:uuid:5d6335f8-f4be-4767-8ac6-20c7accad2ea",
        "resource" : {
          "resourceType" : "Device",
          "id" : "1",
          "meta" : {
            "profile" : [ "https://gematik.de/fhir/erp/StructureDefinition/GEM_ERP_PR_Device|1.4" ]
          },
          "status" : "active",
          "serialNumber" : "1.13.0",
          "deviceName" : [ {
            "name" : "E-Rezept Fachdienst",
            "type" : "user-friendly-name"
          } ],
          "version" : [ {
            "value" : "1.13.0"
          } ],
          "contact" : [ {
            "system" : "email",
            "value" : "betrieb@gematik.de"
          } ]
        }
      }, {
        "fullUrl" : "urn:uuid:905641ae-cd0c-4d1f-a2b8-636996919fe8",
        "resource" : {
          "resourceType" : "Binary",
          "id" : "905641ae-cd0c-4d1f-a2b8-636996919fe8",
          "meta" : {
            "profile" : [ "https://gematik.de/fhir/erp/StructureDefinition/GEM_ERP_PR_Digest|1.4" ]
          },
          "contentType" : "application/octet-stream",
          "data" : "6bxU2eOj0Z/55zXOjc6Yv6AY3K/phbN3N3kiky962ww="
        }
      } ],
      "signature" : {
        "type" : [ {
          "system" : "urn:iso-astm:E1762-95:2013",
          "code" : "1.2.840.10065.1.12.1.1"
        } ],
        "when" : "2024-02-08T18:14:03.159+00:00",
        "who" : {
          "reference" : "https://erp-ref.zentral.erp.splitdns.ti-dienste.de/Device/1"
        },
        "sigFormat" : "application/pkcs7-mime",
        "data" : ""
      }
    }
  } ]
}