{"resourceType":"Bundle","id":"c040d8ff-ffb3-1234-asdf-dec3de4f4ff3","meta":{"profile":["https://gematik.de/fhir/StructureDefinition/ErxReceipt|1.1.0"],"tag":[{"display":"Beispiel Quittung für erfolgreich durchlaufenen E-Rezept-Workflow = dispensiertes E-Rezept"}]},"identifier":{"system":"https://gematik.de/fhir/NamingSystem/PrescriptionID","value":"160.123.456.789.123.58"},"type":"document","timestamp":"2020-03-20T07:31:34.328+00:00","entry":[{"fullUrl":"https://erp.zentral.erp.splitdns.ti-dienste.de/Composition/2186f464-1f9c-11ec-9621-0242ac130002","resource":{"resourceType":"Composition","id":"2186f464-1f9c-11ec-9621-0242ac130002","meta":{"profile":["https://gematik.de/fhir/StructureDefinition/ErxComposition|1.1.0"]},"extension":[{"url":"https://gematik.de/fhir/StructureDefinition/BeneficiaryExtension","valueIdentifier":{"system":"https://gematik.de/fhir/NamingSystem/TelematikID","value":"3-abc-1234567890"}}],"status":"final","type":{"coding":[{"system":"https://gematik.de/fhir/CodeSystem/Documenttype","code":"3","display":"Receipt"}]},"date":"2020-03-20T07:31:34.328+00:00","author":[{"reference":"Device/1","type":"Device"}],"title":"Quittung","event":[{"period":{"start":"2020-03-20T07:23:34.328+00:00","end":"2020-03-20T07:31:34.328+00:00"}}],"section":[{"entry":[{"reference":"Binary/Prescription123","type":"Binary"}]}]}},{"fullUrl":"https://erp.zentral.erp.splitdns.ti-dienste.de/Device/1","resource":{"resourceType":"Device","id":"1","meta":{"profile":["https://gematik.de/fhir/StructureDefinition/ErxDevice|1.1.0"]},"status":"active","serialNumber":"1.0.0","deviceName":[{"name":"E-Rezept Fachdienst","type":"user-friendly-name"}],"version":[{"value":"1.0.0"}],"contact":[{"system":"email","value":"betrieb@gematik.de"}]}},{"fullUrl":"https://erp.zentral.erp.splitdns.ti-dienste.de/Binary/Prescription123","resource":{"resourceType":"Binary","id":"Prescription123","contentType":"application/octet-stream","data":"Y2RjMTVjNThkMzlkMjllNDdjMTk1MjIzNDlkODRjMThiNTliYTZkMGFhZmI5NGYyZjM2NDFkNGJiZTk1ODhiMQ=="}}],"signature":{"type":[{"system":"urn:iso-astm:E1762-95:2013","code":"1.2.840.10065.1.12.1.1"}],"when":"2020-03-20T07:31:34.328+00:00","who":{"reference":"https://erp-ref.zentral.erp.splitdns.ti-dienste.de/Device/1"},"sigFormat":"application/pkcs7-mime","data":"MIII FQYJ KoZI hvcN AQcC oIII BjCC CAIC AQEx DzAN Bglg hkgB ZQME AgEF ADAL"}}