{
  "resourceType" : "Bundle",
  "id" : "a0ead031-536c-4e65-bd77-ff9bcebcbf42",
  "type" : "collection",
  "timestamp" : "2023-11-27T07:42:09.193+00:00",
  "link" : [ {
    "relation" : "self",
    "url" : "https://erp-test.zentral.erp.splitdns.ti-dienste.de/Task/160.000.006.420.774.92"
  } ],
  "entry" : [ {
    "fullUrl" : "https://erp-test.zentral.erp.splitdns.ti-dienste.de/Task/160.000.006.420.774.92",
    "resource" : {
      "resourceType" : "Task",
      "id" : "160.000.006.420.774.92",
      "meta" : {
        "profile" : [ "https://gematik.de/fhir/erp/StructureDefinition/GEM_ERP_PR_Task|1.2" ]
      },
      "extension" : [ {
        "url" : "https://gematik.de/fhir/erp/StructureDefinition/GEM_ERP_EX_PrescriptionType",
        "valueCoding" : {
          "system" : "https://gematik.de/fhir/erp/CodeSystem/GEM_ERP_CS_FlowType",
          "code" : "160",
          "display" : "Muster 16 (Apothekenpflichtige Arzneimittel)"
        }
      }, {
        "url" : "https://gematik.de/fhir/erp/StructureDefinition/GEM_ERP_EX_ExpiryDate",
        "valueDate" : "2024-02-27"
      }, {
        "url" : "https://gematik.de/fhir/erp/StructureDefinition/GEM_ERP_EX_AcceptDate",
        "valueDate" : "2023-12-25"
      } ],
      "identifier" : [ {
        "use" : "official",
        "system" : "https://gematik.de/fhir/erp/NamingSystem/GEM_ERP_NS_PrescriptionId",
        "value" : "160.000.006.420.774.92"
      }, {
        "use" : "official",
        "system" : "https://gematik.de/fhir/erp/NamingSystem/GEM_ERP_NS_AccessCode",
        "value" : "3a5528a6961eade62ee4842321bcee16f18fa3066953f564d13f51ee8c47af96"
      } ],
      "status" : "ready",
      "intent" : "order",
      "for" : {
        "identifier" : {
          "system" : "http://fhir.de/sid/gkv/kvid-10",
          "value" : "X110498565"
        }
      },
      "authoredOn" : "2023-11-27T07:42:07.086+00:00",
      "lastModified" : "2023-11-27T07:42:07.502+00:00",
      "performerType" : [ {
        "coding" : [ {
          "system" : "https://gematik.de/fhir/erp/CodeSystem/GEM_ERP_CS_OrganizationType",
          "code" : "urn:oid:1.2.276.0.76.4.54",
          "display" : "Öffentliche Apotheke"
        } ],
        "text" : "Öffentliche Apotheke"
      } ],
      "input" : [ {
        "type" : {
          "coding" : [ {
            "system" : "https://gematik.de/fhir/erp/CodeSystem/GEM_ERP_CS_DocumentType",
            "code" : "2"
          } ]
        },
        "valueReference" : {
          "reference" : "a026f961-0000-0000-0002-000000000000"
        }
      } ]
    }
  }, {
    "fullUrl" : "urn:uuid:a026f961-0000-0000-0002-000000000000",
    "resource" : {
      "resourceType" : "Bundle",
      "meta" : {
        "lastUpdated" : "2023-11-27T08:42:07.191+01:00",
        "profile" : [ "https://fhir.kbv.de/StructureDefinition/KBV_PR_ERP_Bundle|1.1.0" ]
      },
      "identifier" : {
        "system" : "https://gematik.de/fhir/erp/NamingSystem/GEM_ERP_NS_PrescriptionId",
        "value" : "160.000.006.420.774.92"
      },
      "type" : "document",
      "timestamp" : "2023-11-27T08:42:07.191+01:00",
      "entry" : [ {
        "fullUrl" : "https://pvs.gematik.de/fhir/Composition/5ece2889-f74e-4bc6-bfbb-40060ee2187a",
        "resource" : {
          "resourceType" : "Composition",
          "id" : "5ece2889-f74e-4bc6-bfbb-40060ee2187a",
          "meta" : {
            "profile" : [ "https://fhir.kbv.de/StructureDefinition/KBV_PR_ERP_Composition|1.1.0" ]
          },
          "extension" : [ {
            "url" : "https://fhir.kbv.de/StructureDefinition/KBV_EX_FOR_Legal_basis",
            "valueCoding" : {
              "system" : "https://fhir.kbv.de/CodeSystem/KBV_CS_SFHIR_KBV_STATUSKENNZEICHEN",
              "code" : "00"
            }
          } ],
          "status" : "final",
          "type" : {
            "coding" : [ {
              "system" : "https://fhir.kbv.de/CodeSystem/KBV_CS_SFHIR_KBV_FORMULAR_ART",
              "code" : "e16A"
            } ]
          },
          "subject" : {
            "reference" : "Patient/d9e24f0c-22ea-4dca-9962-cbdebc51692b"
          },
          "date" : "2023-11-27T08:42:07+01:00",
          "author" : [ {
            "reference" : "Practitioner/8c9d7c44-466b-45f6-a8b1-8dd1413e64c8",
            "type" : "Practitioner"
          }, {
            "type" : "Device",
            "identifier" : {
              "system" : "https://fhir.kbv.de/NamingSystem/KBV_NS_FOR_Pruefnummer",
              "value" : "GEMATIK/410/2109/36/123"
            }
          } ],
          "title" : "elektronische Arzneimittelverordnung",
          "custodian" : {
            "reference" : "Organization/857483dc-f357-4092-aff6-3d22d91c61b6"
          },
          "section" : [ {
            "code" : {
              "coding" : [ {
                "system" : "https://fhir.kbv.de/CodeSystem/KBV_CS_ERP_Section_Type",
                "code" : "Coverage"
              } ]
            },
            "entry" : [ {
              "reference" : "Coverage/d4cc2a94-1f3a-4779-a999-4aeb8ac27a92"
            } ]
          }, {
            "code" : {
              "coding" : [ {
                "system" : "https://fhir.kbv.de/CodeSystem/KBV_CS_ERP_Section_Type",
                "code" : "Prescription"
              } ]
            },
            "entry" : [ {
              "reference" : "MedicationRequest/c74cdffd-5bc5-4401-b80a-a4246b2a57df"
            } ]
          } ]
        }
      }, {
        "fullUrl" : "https://pvs.gematik.de/fhir/Medication/98ab4ec1-43e6-4b72-948f-3465990ee65a",
        "resource" : {
          "resourceType" : "Medication",
          "id" : "98ab4ec1-43e6-4b72-948f-3465990ee65a",
          "meta" : {
            "profile" : [ "https://fhir.kbv.de/StructureDefinition/KBV_PR_ERP_Medication_PZN|1.1.0" ]
          },
          "extension" : [ {
            "url" : "https://fhir.kbv.de/StructureDefinition/KBV_EX_Base_Medication_Type",
            "valueCodeableConcept" : {
              "coding" : [ {
                "system" : "http://snomed.info/sct",
                "version" : "http://snomed.info/sct/900000000000207008/version/20220331",
                "code" : "763158003",
                "display" : "Medicinal product (product)"
              } ]
            }
          }, {
            "url" : "https://fhir.kbv.de/StructureDefinition/KBV_EX_ERP_Medication_Category",
            "valueCoding" : {
              "system" : "https://fhir.kbv.de/CodeSystem/KBV_CS_ERP_Medication_Category",
              "code" : "00"
            }
          }, {
            "url" : "https://fhir.kbv.de/StructureDefinition/KBV_EX_ERP_Medication_Vaccine",
            "valueBoolean" : false
          }, {
            "url" : "http://fhir.de/StructureDefinition/normgroesse",
            "valueCode" : "N1"
          } ],
          "code" : {
            "coding" : [ {
              "system" : "http://fhir.de/CodeSystem/ifa/pzn",
              "code" : "12345678"
            } ],
            "text" : "Schmerzmittel"
          },
          "form" : {
            "coding" : [ {
              "system" : "https://fhir.kbv.de/CodeSystem/KBV_CS_SFHIR_KBV_DARREICHUNGSFORM",
              "code" : "TAB"
            } ]
          },
          "amount" : {
            "numerator" : {
              "extension" : [ {
                "url" : "https://fhir.kbv.de/StructureDefinition/KBV_EX_ERP_Medication_PackagingSize",
                "valueString" : "1"
              } ],
              "unit" : "Stk"
            },
            "denominator" : {
              "value" : 1
            }
          }
        }
      }, {
        "fullUrl" : "https://pvs.gematik.de/fhir/Patient/d9e24f0c-22ea-4dca-9962-cbdebc51692b",
        "resource" : {
          "resourceType" : "Patient",
          "id" : "d9e24f0c-22ea-4dca-9962-cbdebc51692b",
          "meta" : {
            "profile" : [ "https://fhir.kbv.de/StructureDefinition/KBV_PR_FOR_Patient|1.1.0" ]
          },
          "identifier" : [ {
            "type" : {
              "coding" : [ {
                "system" : "http://fhir.de/CodeSystem/identifier-type-de-basis",
                "code" : "GKV"
              } ]
            },
            "system" : "http://fhir.de/sid/gkv/kvid-10",
            "value" : "X110498565"
          } ],
          "name" : [ {
            "use" : "official",
            "family" : "Hüllmann",
            "_family" : {
              "extension" : [ {
                "url" : "http://hl7.org/fhir/StructureDefinition/humanname-own-name",
                "valueString" : "Hüllmann"
              } ]
            },
            "given" : [ "Sina" ]
          } ],
          "birthDate" : "1986-03-28",
          "address" : [ {
            "type" : "both",
            "line" : [ "Benzstr. 208" ],
            "_line" : [ {
              "extension" : [ {
                "url" : "http://hl7.org/fhir/StructureDefinition/iso21090-ADXP-houseNumber",
                "valueString" : "208"
              }, {
                "url" : "http://hl7.org/fhir/StructureDefinition/iso21090-ADXP-streetName",
                "valueString" : "Benzstr."
              } ]
            } ],
            "city" : "Groß Sanja",
            "postalCode" : "65961",
            "country" : "D"
          } ]
        }
      }, {
        "fullUrl" : "https://pvs.gematik.de/fhir/Organization/857483dc-f357-4092-aff6-3d22d91c61b6",
        "resource" : {
          "resourceType" : "Organization",
          "id" : "857483dc-f357-4092-aff6-3d22d91c61b6",
          "meta" : {
            "profile" : [ "https://fhir.kbv.de/StructureDefinition/KBV_PR_FOR_Organization|1.1.0" ]
          },
          "identifier" : [ {
            "type" : {
              "coding" : [ {
                "system" : "http://terminology.hl7.org/CodeSystem/v2-0203",
                "code" : "BSNR"
              } ]
            },
            "system" : "https://fhir.kbv.de/NamingSystem/KBV_NS_Base_BSNR",
            "value" : "383179061"
          } ],
          "name" : "Arztpraxis Schraßer",
          "telecom" : [ {
            "system" : "phone",
            "value" : "+49-4998-71997811"
          }, {
            "system" : "email",
            "value" : "efe.howard@paschke.info"
          } ],
          "address" : [ {
            "type" : "both",
            "line" : [ "Goetheplatz 752" ],
            "_line" : [ {
              "extension" : [ {
                "url" : "http://hl7.org/fhir/StructureDefinition/iso21090-ADXP-houseNumber",
                "valueString" : "752"
              }, {
                "url" : "http://hl7.org/fhir/StructureDefinition/iso21090-ADXP-streetName",
                "valueString" : "Goetheplatz"
              } ]
            } ],
            "city" : "Bad Leonaburg",
            "postalCode" : "45364",
            "country" : "D"
          } ]
        }
      }, {
        "fullUrl" : "https://pvs.gematik.de/fhir/Coverage/d4cc2a94-1f3a-4779-a999-4aeb8ac27a92",
        "resource" : {
          "resourceType" : "Coverage",
          "id" : "d4cc2a94-1f3a-4779-a999-4aeb8ac27a92",
          "meta" : {
            "profile" : [ "https://fhir.kbv.de/StructureDefinition/KBV_PR_FOR_Coverage|1.1.0" ]
          },
          "extension" : [ {
            "url" : "http://fhir.de/StructureDefinition/gkv/besondere-personengruppe",
            "valueCoding" : {
              "system" : "https://fhir.kbv.de/CodeSystem/KBV_CS_SFHIR_KBV_PERSONENGRUPPE",
              "code" : "00"
            }
          }, {
            "url" : "http://fhir.de/StructureDefinition/gkv/dmp-kennzeichen",
            "valueCoding" : {
              "system" : "https://fhir.kbv.de/CodeSystem/KBV_CS_SFHIR_KBV_DMP",
              "code" : "00"
            }
          }, {
            "url" : "http://fhir.de/StructureDefinition/gkv/wop",
            "valueCoding" : {
              "system" : "https://fhir.kbv.de/CodeSystem/KBV_CS_SFHIR_ITA_WOP",
              "code" : "51"
            }
          }, {
            "url" : "http://fhir.de/StructureDefinition/gkv/versichertenart",
            "valueCoding" : {
              "system" : "https://fhir.kbv.de/CodeSystem/KBV_CS_SFHIR_KBV_VERSICHERTENSTATUS",
              "code" : "1"
            }
          } ],
          "status" : "active",
          "type" : {
            "coding" : [ {
              "system" : "http://fhir.de/CodeSystem/versicherungsart-de-basis",
              "code" : "GKV"
            } ]
          },
          "beneficiary" : {
            "reference" : "Patient/39ea5cf2-91c2-4055-a2d6-ba69c55c855a"
          },
          "payor" : [ {
            "identifier" : {
              "system" : "http://fhir.de/sid/arge-ik/iknr",
              "value" : "104229606"
            },
            "display" : "BKK VICTORIA ‐ D.A.S."
          } ]
        }
      }, {
        "fullUrl" : "https://pvs.gematik.de/fhir/Practitioner/8c9d7c44-466b-45f6-a8b1-8dd1413e64c8",
        "resource" : {
          "resourceType" : "Practitioner",
          "id" : "8c9d7c44-466b-45f6-a8b1-8dd1413e64c8",
          "meta" : {
            "profile" : [ "https://fhir.kbv.de/StructureDefinition/KBV_PR_FOR_Practitioner|1.1.0" ]
          },
          "identifier" : [ {
            "type" : {
              "coding" : [ {
                "system" : "http://terminology.hl7.org/CodeSystem/v2-0203",
                "code" : "LANR"
              } ]
            },
            "system" : "https://fhir.kbv.de/NamingSystem/KBV_NS_Base_ANR",
            "value" : "897741151"
          } ],
          "name" : [ {
            "use" : "official",
            "family" : "Schraßer",
            "_family" : {
              "extension" : [ {
                "url" : "http://hl7.org/fhir/StructureDefinition/humanname-own-name",
                "valueString" : "Schraßer"
              } ]
            },
            "given" : [ "Dr." ],
            "prefix" : [ "Dr." ],
            "_prefix" : [ {
              "extension" : [ {
                "url" : "http://hl7.org/fhir/StructureDefinition/iso21090-EN-qualifier",
                "valueCode" : "AC"
              } ]
            } ]
          } ],
          "qualification" : [ {
            "code" : {
              "coding" : [ {
                "system" : "https://fhir.kbv.de/CodeSystem/KBV_CS_FOR_Qualification_Type",
                "code" : "00"
              } ]
            }
          }, {
            "code" : {
              "coding" : [ {
                "system" : "https://fhir.kbv.de/CodeSystem/KBV_CS_FOR_Berufsbezeichnung",
                "code" : "Berufsbezeichnung"
              } ],
              "text" : "Super-Facharzt für alles Mögliche"
            }
          } ]
        }
      }, {
        "fullUrl" : "https://pvs.gematik.de/fhir/MedicationRequest/c74cdffd-5bc5-4401-b80a-a4246b2a57df",
        "resource" : {
          "resourceType" : "MedicationRequest",
          "id" : "c74cdffd-5bc5-4401-b80a-a4246b2a57df",
          "meta" : {
            "profile" : [ "https://fhir.kbv.de/StructureDefinition/KBV_PR_ERP_Prescription|1.1.0" ]
          },
          "extension" : [ {
            "url" : "https://fhir.kbv.de/StructureDefinition/KBV_EX_ERP_BVG",
            "valueBoolean" : false
          }, {
            "url" : "https://fhir.kbv.de/StructureDefinition/KBV_EX_ERP_EmergencyServicesFee",
            "valueBoolean" : false
          }, {
            "url" : "https://fhir.kbv.de/StructureDefinition/KBV_EX_ERP_Multiple_Prescription",
            "extension" : [ {
              "url" : "Kennzeichen",
              "valueBoolean" : false
            } ]
          }, {
            "url" : "https://fhir.kbv.de/StructureDefinition/KBV_EX_FOR_StatusCoPayment",
            "valueCoding" : {
              "system" : "https://fhir.kbv.de/CodeSystem/KBV_CS_FOR_StatusCoPayment",
              "code" : "0"
            }
          } ],
          "status" : "active",
          "intent" : "order",
          "medicationReference" : {
            "reference" : "Medication/98ab4ec1-43e6-4b72-948f-3465990ee65a"
          },
          "subject" : {
            "reference" : "Patient/d9e24f0c-22ea-4dca-9962-cbdebc51692b"
          },
          "authoredOn" : "2023-11-27",
          "requester" : {
            "reference" : "Practitioner/8c9d7c44-466b-45f6-a8b1-8dd1413e64c8"
          },
          "insurance" : [ {
            "reference" : "Coverage/d4cc2a94-1f3a-4779-a999-4aeb8ac27a92"
          } ],
          "dosageInstruction" : [ {
            "extension" : [ {
              "url" : "https://fhir.kbv.de/StructureDefinition/KBV_EX_ERP_DosageFlag",
              "valueBoolean" : true
            } ],
            "text" : "1-0-0-1"
          } ],
          "dispenseRequest" : {
            "quantity" : {
              "value" : 3,
              "system" : "http://unitsofmeasure.org",
              "code" : "{Package}"
            }
          },
          "substitution" : {
            "allowedBoolean" : false
          }
        }
      } ],
      "signature" : {
        "type" : [ {
          "system" : "urn:iso-astm:E1762-95:2013",
          "code" : "1.2.840.10065.1.12.1.5"
        } ],
        "when" : "2023-11-27T07:42:09.193+00:00",
        "who" : {
          "reference" : "https://erp-test.zentral.erp.splitdns.ti-dienste.de/Device/1"
        },
        "targetFormat" : "application/fhir+json",
        "sigFormat" : "application/jose",
        "data" : ""
      }
    }
  } ]
}