<Bundle xmlns="http://hl7.org/fhir"><id value="9fa31198-4199-4c1a-a5aa-16573208e353"/><meta><lastUpdated value="2023-04-18T08:42:43.047+02:00"/><profile value="http://fhir.abda.de/eRezeptAbgabedaten/StructureDefinition/DAV-PKV-PR-ERP-AbgabedatenBundle|1.1"/></meta><identifier><system value="https://gematik.de/fhir/erp/NamingSystem/GEM_ERP_NS_PrescriptionId"/><value value="200.000.001.943.764.31"/></identifier><type value="document"/><timestamp value="2023-04-18T08:42:43.047+02:00"/><entry><fullUrl value="urn:uuid:1d865c83-e854-4aa6-b66f-39fbd79a37ad"/><resource><Composition xmlns="http://hl7.org/fhir"><id value="1d865c83-e854-4aa6-b66f-39fbd79a37ad"/><meta><profile value="http://fhir.abda.de/eRezeptAbgabedaten/StructureDefinition/DAV-PKV-PR-ERP-AbgabedatenComposition|1.1"/></meta><status value="final"/><type><coding><system value="http://fhir.abda.de/eRezeptAbgabedaten/CodeSystem/DAV-CS-ERP-CompositionTypes"/><code value="ERezeptAbgabedaten"/></coding></type><date value="2023-04-18T08:42:43+02:00"/><author><reference value="urn:uuid:ca34745a-8af5-413e-88c2-c523d29e36f0"/></author><title value="ERezeptAbgabedaten"/><section><title value="Apotheke"/><entry><reference value="urn:uuid:ca34745a-8af5-413e-88c2-c523d29e36f0"/></entry></section><section><title value="Abgabeinformationen"/><entry><reference value="urn:uuid:358bc8b0-eae7-4f75-a5b8-b4c757741bf1"/></entry></section></Composition></resource></entry><entry><fullUrl value="urn:uuid:ca34745a-8af5-413e-88c2-c523d29e36f0"/><resource><Organization xmlns="http://hl7.org/fhir"><id value="ca34745a-8af5-413e-88c2-c523d29e36f0"/><meta><profile value="http://fhir.abda.de/eRezeptAbgabedaten/StructureDefinition/DAV-PKV-PR-ERP-Apotheke|1.1"/></meta><identifier><system value="http://fhir.de/sid/arge-ik/iknr"/><value value="777099885"/></identifier><name value="Apotheke Sandy C. Shore"/><address><type value="physical"/><line value="Neujudenhof 24"><extension url="http://hl7.org/fhir/StructureDefinition/iso21090-ADXP-houseNumber"><valueString value="24"/></extension><extension url="http://hl7.org/fhir/StructureDefinition/iso21090-ADXP-streetName"><valueString value="Neujudenhof"/></extension></line><city value="Giesastadt"/><postalCode value="53156"/><country value="D"/></address></Organization></resource></entry><entry><fullUrl value="urn:uuid:415b45ac-ac11-4859-b06b-5f4b590233a7"/><resource><Invoice xmlns="http://hl7.org/fhir"><id value="415b45ac-ac11-4859-b06b-5f4b590233a7"/><meta><profile value="http://fhir.abda.de/eRezeptAbgabedaten/StructureDefinition/DAV-PKV-PR-ERP-Abrechnungszeilen|1.1"/></meta><status value="issued"/><type><coding><system value="http://fhir.abda.de/eRezeptAbgabedaten/CodeSystem/DAV-CS-ERP-InvoiceTyp"/><code value="Abrechnungszeilen"/></coding></type><lineItem><sequence value="1"/><chargeItemCodeableConcept><coding><system value="http://fhir.de/CodeSystem/ifa/pzn"/><code value="43324951"/></coding></chargeItemCodeableConcept><priceComponent><extension url="http://fhir.abda.de/eRezeptAbgabedaten/StructureDefinition/DAV-EX-ERP-KostenVersicherter"><extension url="Kategorie"><valueCodeableConcept><coding><system value="http://fhir.abda.de/eRezeptAbgabedaten/CodeSystem/DAV-PKV-CS-ERP-KostenVersicherterKategorie"/><code value="0"/></coding></valueCodeableConcept></extension><extension url="Kostenbetrag"><valueMoney><value value="15.09"/><currency value="EUR"/></valueMoney></extension></extension><extension url="http://fhir.abda.de/eRezeptAbgabedaten/StructureDefinition/DAV-EX-ERP-MwStSatz"><valueDecimal value="22.70"/></extension><type value="informational"/><factor value="1"/><amount><value value="18.18"/><currency value="EUR"/></amount></priceComponent></lineItem><lineItem><sequence value="2"/><chargeItemCodeableConcept><coding><system value="http://fhir.de/CodeSystem/ifa/pzn"/><code value="00850559"/></coding></chargeItemCodeableConcept><priceComponent><extension url="http://fhir.abda.de/eRezeptAbgabedaten/StructureDefinition/DAV-EX-ERP-KostenVersicherter"><extension url="Kategorie"><valueCodeableConcept><coding><system value="http://fhir.abda.de/eRezeptAbgabedaten/CodeSystem/DAV-PKV-CS-ERP-KostenVersicherterKategorie"/><code value="0"/></coding></valueCodeableConcept></extension><extension url="Kostenbetrag"><valueMoney><value value="66.01"/><currency value="EUR"/></valueMoney></extension></extension><extension url="http://fhir.abda.de/eRezeptAbgabedaten/StructureDefinition/DAV-EX-ERP-MwStSatz"><valueDecimal value="22.70"/></extension><type value="informational"/><factor value="1"/><amount><value value="106.05"/><currency value="EUR"/></amount></priceComponent></lineItem><totalGross><extension url="http://fhir.abda.de/eRezeptAbgabedaten/StructureDefinition/DAV-EX-ERP-Gesamtzuzahlung"><valueMoney><value value="81.10"/><currency value="EUR"/></valueMoney></extension><value value="124.23"/><currency value="EUR"/></totalGross></Invoice></resource></entry><entry><fullUrl value="urn:uuid:358bc8b0-eae7-4f75-a5b8-b4c757741bf1"/><resource><MedicationDispense xmlns="http://hl7.org/fhir"><id value="358bc8b0-eae7-4f75-a5b8-b4c757741bf1"/><meta><profile value="http://fhir.abda.de/eRezeptAbgabedaten/StructureDefinition/DAV-PKV-PR-ERP-Abgabeinformationen|1.1"/></meta><extension url="http://fhir.abda.de/eRezeptAbgabedaten/StructureDefinition/DAV-PKV-EX-ERP-AbrechnungsTyp"><valueCodeableConcept><coding><system value="http://fhir.abda.de/eRezeptAbgabedaten/CodeSystem/DAV-PKV-CS-ERP-AbrechnungsTyp"/><code value="1"/></coding></valueCodeableConcept></extension><extension url="http://fhir.abda.de/eRezeptAbgabedaten/StructureDefinition/DAV-EX-ERP-Abrechnungszeilen"><valueReference><reference value="urn:uuid:415b45ac-ac11-4859-b06b-5f4b590233a7"/></valueReference></extension><status value="completed"/><medicationCodeableConcept><coding><system value="http://terminology.hl7.org/CodeSystem/data-absent-reason"/><code value="not-applicable"/></coding></medicationCodeableConcept><performer><actor><reference value="urn:uuid:ca34745a-8af5-413e-88c2-c523d29e36f0"/></actor></performer><authorizingPrescription><identifier><system value="https://gematik.de/fhir/erp/NamingSystem/GEM_ERP_NS_PrescriptionId"/><value value="200.000.001.943.764.31"/></identifier></authorizingPrescription><type><coding><system value="http://fhir.abda.de/eRezeptAbgabedaten/CodeSystem/DAV-CS-ERP-MedicationDispenseTyp"/><code value="Abgabeinformationen"/></coding></type><whenHandedOver value="2023-04-18"/></MedicationDispense></resource></entry></Bundle>