<Bundle xmlns="http://hl7.org/fhir"><id value="825d3669-e7e3-4421-a975-f482af2e4993"/><meta><lastUpdated value="2023-04-18T08:42:45.710+02:00"/><profile value="http://fhir.abda.de/eRezeptAbgabedaten/StructureDefinition/DAV-PKV-PR-ERP-AbgabedatenBundle|1.1"/></meta><identifier><system value="https://gematik.de/fhir/erp/NamingSystem/GEM_ERP_NS_PrescriptionId"/><value value="200.000.001.943.764.31"/></identifier><type value="document"/><timestamp value="2023-04-18T08:42:45.710+02:00"/><entry><fullUrl value="urn:uuid:a064601b-7ad6-4d67-80ce-f9e793dd7b31"/><resource><Composition xmlns="http://hl7.org/fhir"><id value="a064601b-7ad6-4d67-80ce-f9e793dd7b31"/><meta><profile value="http://fhir.abda.de/eRezeptAbgabedaten/StructureDefinition/DAV-PKV-PR-ERP-AbgabedatenComposition|1.1"/></meta><status value="final"/><type><coding><system value="http://fhir.abda.de/eRezeptAbgabedaten/CodeSystem/DAV-CS-ERP-CompositionTypes"/><code value="ERezeptAbgabedaten"/></coding></type><date value="2023-04-18T08:42:45+02:00"/><author><reference value="urn:uuid:f958c804-3bd5-4f87-99b0-e3c3ada96979"/></author><title value="ERezeptAbgabedaten"/><section><title value="Apotheke"/><entry><reference value="urn:uuid:f958c804-3bd5-4f87-99b0-e3c3ada96979"/></entry></section><section><title value="Abgabeinformationen"/><entry><reference value="urn:uuid:9718916a-1fe0-4b81-9a76-5a12bdefe921"/></entry></section></Composition></resource></entry><entry><fullUrl value="urn:uuid:f958c804-3bd5-4f87-99b0-e3c3ada96979"/><resource><Organization xmlns="http://hl7.org/fhir"><id value="f958c804-3bd5-4f87-99b0-e3c3ada96979"/><meta><profile value="http://fhir.abda.de/eRezeptAbgabedaten/StructureDefinition/DAV-PKV-PR-ERP-Apotheke|1.1"/></meta><identifier><system value="http://fhir.de/sid/arge-ik/iknr"/><value value="024663590"/></identifier><name value="Apotheke Di O'Bolic"/><address><type value="physical"/><line value="Wüstenhof 91c"><extension url="http://hl7.org/fhir/StructureDefinition/iso21090-ADXP-houseNumber"><valueString value="91c"/></extension><extension url="http://hl7.org/fhir/StructureDefinition/iso21090-ADXP-streetName"><valueString value="Wüstenhof"/></extension></line><city value="West Tino"/><postalCode value="28883"/><country value="D"/></address></Organization></resource></entry><entry><fullUrl value="urn:uuid:e9335b87-e51c-40d0-a099-dc6c0f6d10d9"/><resource><Invoice xmlns="http://hl7.org/fhir"><id value="e9335b87-e51c-40d0-a099-dc6c0f6d10d9"/><meta><profile value="http://fhir.abda.de/eRezeptAbgabedaten/StructureDefinition/DAV-PKV-PR-ERP-Abrechnungszeilen|1.1"/></meta><status value="issued"/><type><coding><system value="http://fhir.abda.de/eRezeptAbgabedaten/CodeSystem/DAV-CS-ERP-InvoiceTyp"/><code value="Abrechnungszeilen"/></coding></type><lineItem><sequence value="1"/><chargeItemCodeableConcept><coding><system value="http://fhir.de/CodeSystem/ifa/pzn"/><code value="97261733"/></coding></chargeItemCodeableConcept><priceComponent><extension url="http://fhir.abda.de/eRezeptAbgabedaten/StructureDefinition/DAV-EX-ERP-KostenVersicherter"><extension url="Kategorie"><valueCodeableConcept><coding><system value="http://fhir.abda.de/eRezeptAbgabedaten/CodeSystem/DAV-PKV-CS-ERP-KostenVersicherterKategorie"/><code value="0"/></coding></valueCodeableConcept></extension><extension url="Kostenbetrag"><valueMoney><value value="113.11"/><currency value="EUR"/></valueMoney></extension></extension><extension url="http://fhir.abda.de/eRezeptAbgabedaten/StructureDefinition/DAV-EX-ERP-MwStSatz"><valueDecimal value="26.03"/></extension><type value="informational"/><factor value="1"/><amount><value value="325.30"/><currency value="EUR"/></amount></priceComponent></lineItem><totalGross><extension url="http://fhir.abda.de/eRezeptAbgabedaten/StructureDefinition/DAV-EX-ERP-Gesamtzuzahlung"><valueMoney><value value="113.11"/><currency value="EUR"/></valueMoney></extension><value value="325.30"/><currency value="EUR"/></totalGross></Invoice></resource></entry><entry><fullUrl value="urn:uuid:9718916a-1fe0-4b81-9a76-5a12bdefe921"/><resource><MedicationDispense xmlns="http://hl7.org/fhir"><id value="9718916a-1fe0-4b81-9a76-5a12bdefe921"/><meta><profile value="http://fhir.abda.de/eRezeptAbgabedaten/StructureDefinition/DAV-PKV-PR-ERP-Abgabeinformationen|1.1"/></meta><extension url="http://fhir.abda.de/eRezeptAbgabedaten/StructureDefinition/DAV-PKV-EX-ERP-AbrechnungsTyp"><valueCodeableConcept><coding><system value="http://fhir.abda.de/eRezeptAbgabedaten/CodeSystem/DAV-PKV-CS-ERP-AbrechnungsTyp"/><code value="1"/></coding></valueCodeableConcept></extension><extension url="http://fhir.abda.de/eRezeptAbgabedaten/StructureDefinition/DAV-EX-ERP-Abrechnungszeilen"><valueReference><reference value="urn:uuid:e9335b87-e51c-40d0-a099-dc6c0f6d10d9"/></valueReference></extension><status value="completed"/><medicationCodeableConcept><coding><system value="http://terminology.hl7.org/CodeSystem/data-absent-reason"/><code value="not-applicable"/></coding></medicationCodeableConcept><performer><actor><reference value="urn:uuid:f958c804-3bd5-4f87-99b0-e3c3ada96979"/></actor></performer><authorizingPrescription><identifier><system value="https://gematik.de/fhir/erp/NamingSystem/GEM_ERP_NS_PrescriptionId"/><value value="200.000.001.943.764.31"/></identifier></authorizingPrescription><type><coding><system value="http://fhir.abda.de/eRezeptAbgabedaten/CodeSystem/DAV-CS-ERP-MedicationDispenseTyp"/><code value="Abgabeinformationen"/></coding></type><whenHandedOver value="2023-04-18"/></MedicationDispense></resource></entry></Bundle>