<Bundle xmlns="http://hl7.org/fhir"><id value="3362c903-8410-4221-82b3-bb56609ce127"/><meta><lastUpdated value="2023-04-21T09:13:08.401+02:00"/><profile value="http://fhir.abda.de/eRezeptAbgabedaten/StructureDefinition/DAV-PKV-PR-ERP-AbgabedatenBundle|1.1"/></meta><identifier><system value="https://gematik.de/fhir/erp/NamingSystem/GEM_ERP_NS_PrescriptionId"/><value value="200.000.001.944.095.08"/></identifier><type value="document"/><timestamp value="2023-04-21T09:13:08.401+02:00"/><entry><fullUrl value="urn:uuid:a5e3b4b8-033f-4708-8bcb-c75e349ab395"/><resource><Composition xmlns="http://hl7.org/fhir"><id value="a5e3b4b8-033f-4708-8bcb-c75e349ab395"/><meta><profile value="http://fhir.abda.de/eRezeptAbgabedaten/StructureDefinition/DAV-PKV-PR-ERP-AbgabedatenComposition|1.1"/></meta><status value="final"/><type><coding><system value="http://fhir.abda.de/eRezeptAbgabedaten/CodeSystem/DAV-CS-ERP-CompositionTypes"/><code value="ERezeptAbgabedaten"/></coding></type><date value="2023-04-21T09:13:08+02:00"/><author><reference value="urn:uuid:aa037677-2b4f-4f46-b52d-baaf3b960c6d"/></author><title value="ERezeptAbgabedaten"/><section><title value="Apotheke"/><entry><reference value="urn:uuid:aa037677-2b4f-4f46-b52d-baaf3b960c6d"/></entry></section><section><title value="Abgabeinformationen"/><entry><reference value="urn:uuid:8426707e-609e-4fe4-9949-96ee471dc94e"/></entry></section></Composition></resource></entry><entry><fullUrl value="urn:uuid:aa037677-2b4f-4f46-b52d-baaf3b960c6d"/><resource><Organization xmlns="http://hl7.org/fhir"><id value="aa037677-2b4f-4f46-b52d-baaf3b960c6d"/><meta><profile value="http://fhir.abda.de/eRezeptAbgabedaten/StructureDefinition/DAV-PKV-PR-ERP-Apotheke|1.1"/></meta><identifier><system value="http://fhir.de/sid/arge-ik/iknr"/><value value="120244063"/></identifier><name value="Apotheke Brandon Irons"/><address><type value="physical"/><line value="Berliner Str. 77c"><extension url="http://hl7.org/fhir/StructureDefinition/iso21090-ADXP-houseNumber"><valueString value="77c"/></extension><extension url="http://hl7.org/fhir/StructureDefinition/iso21090-ADXP-streetName"><valueString value="Berliner Str."/></extension></line><city value="Ost Alfredheim"/><postalCode value="11327"/><country value="D"/></address></Organization></resource></entry><entry><fullUrl value="urn:uuid:643459cf-3a83-4047-8360-787be9cce142"/><resource><Invoice xmlns="http://hl7.org/fhir"><id value="643459cf-3a83-4047-8360-787be9cce142"/><meta><profile value="http://fhir.abda.de/eRezeptAbgabedaten/StructureDefinition/DAV-PKV-PR-ERP-Abrechnungszeilen|1.1"/></meta><status value="issued"/><type><coding><system value="http://fhir.abda.de/eRezeptAbgabedaten/CodeSystem/DAV-CS-ERP-InvoiceTyp"/><code value="Abrechnungszeilen"/></coding></type><lineItem><sequence value="1"/><chargeItemCodeableConcept><coding><system value="http://fhir.de/CodeSystem/ifa/pzn"/><code value="53840407"/></coding></chargeItemCodeableConcept><priceComponent><extension url="http://fhir.abda.de/eRezeptAbgabedaten/StructureDefinition/DAV-EX-ERP-KostenVersicherter"><extension url="Kategorie"><valueCodeableConcept><coding><system value="http://fhir.abda.de/eRezeptAbgabedaten/CodeSystem/DAV-PKV-CS-ERP-KostenVersicherterKategorie"/><code value="0"/></coding></valueCodeableConcept></extension><extension url="Kostenbetrag"><valueMoney><value value="23.96"/><currency value="EUR"/></valueMoney></extension></extension><extension url="http://fhir.abda.de/eRezeptAbgabedaten/StructureDefinition/DAV-EX-ERP-MwStSatz"><valueDecimal value="14.83"/></extension><type value="informational"/><factor value="1"/><amount><value value="45.44"/><currency value="EUR"/></amount></priceComponent></lineItem><totalGross><extension url="http://fhir.abda.de/eRezeptAbgabedaten/StructureDefinition/DAV-EX-ERP-Gesamtzuzahlung"><valueMoney><value value="23.96"/><currency value="EUR"/></valueMoney></extension><value value="45.44"/><currency value="EUR"/></totalGross></Invoice></resource></entry><entry><fullUrl value="urn:uuid:8426707e-609e-4fe4-9949-96ee471dc94e"/><resource><MedicationDispense xmlns="http://hl7.org/fhir"><id value="8426707e-609e-4fe4-9949-96ee471dc94e"/><meta><profile value="http://fhir.abda.de/eRezeptAbgabedaten/StructureDefinition/DAV-PKV-PR-ERP-Abgabeinformationen|1.1"/></meta><extension url="http://fhir.abda.de/eRezeptAbgabedaten/StructureDefinition/DAV-PKV-EX-ERP-AbrechnungsTyp"><valueCodeableConcept><coding><system value="http://fhir.abda.de/eRezeptAbgabedaten/CodeSystem/DAV-PKV-CS-ERP-AbrechnungsTyp"/><code value="1"/></coding></valueCodeableConcept></extension><extension url="http://fhir.abda.de/eRezeptAbgabedaten/StructureDefinition/DAV-EX-ERP-Abrechnungszeilen"><valueReference><reference value="urn:uuid:643459cf-3a83-4047-8360-787be9cce142"/></valueReference></extension><status value="completed"/><medicationCodeableConcept><coding><system value="http://terminology.hl7.org/CodeSystem/data-absent-reason"/><code value="not-applicable"/></coding></medicationCodeableConcept><performer><actor><reference value="urn:uuid:aa037677-2b4f-4f46-b52d-baaf3b960c6d"/></actor></performer><authorizingPrescription><identifier><system value="https://gematik.de/fhir/erp/NamingSystem/GEM_ERP_NS_PrescriptionId"/><value value="200.000.001.944.095.08"/></identifier></authorizingPrescription><type><coding><system value="http://fhir.abda.de/eRezeptAbgabedaten/CodeSystem/DAV-CS-ERP-MedicationDispenseTyp"/><code value="Abgabeinformationen"/></coding></type><whenHandedOver value="2023-04-21"/></MedicationDispense></resource></entry></Bundle>