{
  "resourceType": "Bundle",
  "id": "604b83ec-4ad0-43c0-b115-e3ff41a78dab",
  "type": "searchset",
  "timestamp": "2023-04-18T06:34:27.589+00:00",
  "total": 330,
  "link": [
    {
      "relation": "next",
      "url": "https://erp-dev.zentral.erp.splitdns.ti-dienste.de/Communication?received=eqNULL&_count=50&__offset=50"
    },
    {
      "relation": "self",
      "url": "https://erp-dev.zentral.erp.splitdns.ti-dienste.de/Communication?received=eqNULL"
    }
  ],
  "entry": [
    {
      "fullUrl": "https://erp-dev.zentral.erp.splitdns.ti-dienste.de/Communication/01eb9e73-ab99-18a8-7bb1-41f6491bec3c",
      "resource": {
        "resourceType": "Communication",
        "id": "01eb9e73-ab99-18a8-7bb1-41f6491bec3c",
        "meta": {
          "profile": [
            "https://gematik.de/fhir/erp/StructureDefinition/GEM_ERP_PR_Communication_InfoReq|1.2"
          ]
        },
        "contained": [
          {
            "resourceType": "Medication",
            "id": "cca0522d-9884-4283-89e3-966c265cf326",
            "meta": {
              "profile": [
                "https://fhir.kbv.de/StructureDefinition/KBV_PR_ERP_Medication_PZN|1.1.0"
              ]
            },
            "extension": [
              {
                "url": "https://fhir.kbv.de/StructureDefinition/KBV_EX_Base_Medication_Type",
                "valueCodeableConcept": {
                  "coding": [
                    {
                      "system": "http://snomed.info/sct",
                      "version": "http://snomed.info/sct/900000000000207008/version/20220331",
                      "code": "763158003",
                      "display": "Medicinal product (product)"
                    }
                  ]
                }
              },
              {
                "url": "https://fhir.kbv.de/StructureDefinition/KBV_EX_ERP_Medication_Category",
                "valueCoding": {
                  "system": "https://fhir.kbv.de/CodeSystem/KBV_CS_ERP_Medication_Category",
                  "code": "00"
                }
              },
              {
                "url": "https://fhir.kbv.de/StructureDefinition/KBV_EX_ERP_Medication_Vaccine",
                "valueBoolean": false
              },
              {
                "url": "http://fhir.de/StructureDefinition/normgroesse",
                "valueCode": "NB"
              }
            ],
            "code": {
              "coding": [
                {
                  "system": "http://fhir.de/CodeSystem/ifa/pzn",
                  "code": "12345678"
                }
              ],
              "text": "Schmerzmittel"
            },
            "form": {
              "coding": [
                {
                  "system": "https://fhir.kbv.de/CodeSystem/KBV_CS_SFHIR_KBV_DARREICHUNGSFORM",
                  "code": "TAB"
                }
              ]
            },
            "amount": {
              "numerator": {
                "extension": [
                  {
                    "url": "https://fhir.kbv.de/StructureDefinition/KBV_EX_ERP_Medication_PackagingSize",
                    "valueString": "1"
                  }
                ],
                "unit": "Stk"
              },
              "denominator": {
                "value": 1
              }
            }
          }
        ],
        "basedOn": [
          {
            "reference": "Task/160.000.032.707.977.65"
          }
        ],
        "status": "unknown",
        "about": [
          {
            "reference": "#cca0522d-9884-4283-89e3-966c265cf326"
          }
        ],
        "sent": "2023-02-13T14:40:02.297+00:00",
        "recipient": [
          {
            "identifier": {
              "system": "https://gematik.de/fhir/sid/telematik-id",
              "value": "1-2-ARZT-BerndClaudius01"
            }
          }
        ],
        "sender": {
          "identifier": {
            "system": "http://fhir.de/sid/gkv/kvid-10",
            "value": "X110498565"
          }
        },
        "payload": [
          {
            "extension": [
              {
                "url": "https://gematik.de/fhir/erp/StructureDefinition/GEM_ERP_EX_InsuranceProvider",
                "valueIdentifier": {
                  "system": "http://fhir.de/sid/arge-ik/iknr",
                  "value": "663565517"
                }
              },
              {
                "url": "https://gematik.de/fhir/erp/StructureDefinition/GEM_ERP_EX_SubstitutionAllowedType",
                "valueBoolean": true
              },
              {
                "url": "https://gematik.de/fhir/erp/StructureDefinition/GEM_ERP_EX_PrescriptionType",
                "valueCoding": {
                  "system": "https://gematik.de/fhir/erp/CodeSystem/GEM_ERP_CS_FlowType",
                  "code": "160",
                  "display": "Muster 16 (Apothekenpflichtige Arzneimittel)"
                }
              }
            ],
            "contentString": "I think you ought to know I'm feeling very depressed."
          }
        ]
      },
      "search": {
        "mode": "match"
      }
    },
    {
      "fullUrl": "https://erp-dev.zentral.erp.splitdns.ti-dienste.de/Communication/01eb9fb6-4de0-8c70-a63a-1e5c3f9558d8",
      "resource": {
        "resourceType": "Communication",
        "id": "01eb9fb6-4de0-8c70-a63a-1e5c3f9558d8",
        "meta": {
          "profile": [
            "https://gematik.de/fhir/erp/StructureDefinition/GEM_ERP_PR_Communication_InfoReq|1.2"
          ]
        },
        "contained": [
          {
            "resourceType": "Medication",
            "id": "9623a3ab-2bf7-44f4-ac9f-10b80cbd29f9",
            "meta": {
              "profile": [
                "https://fhir.kbv.de/StructureDefinition/KBV_PR_ERP_Medication_PZN|1.1.0"
              ]
            },
            "extension": [
              {
                "url": "https://fhir.kbv.de/StructureDefinition/KBV_EX_Base_Medication_Type",
                "valueCodeableConcept": {
                  "coding": [
                    {
                      "system": "http://snomed.info/sct",
                      "version": "http://snomed.info/sct/900000000000207008/version/20220331",
                      "code": "763158003",
                      "display": "Medicinal product (product)"
                    }
                  ]
                }
              },
              {
                "url": "https://fhir.kbv.de/StructureDefinition/KBV_EX_ERP_Medication_Category",
                "valueCoding": {
                  "system": "https://fhir.kbv.de/CodeSystem/KBV_CS_ERP_Medication_Category",
                  "code": "00"
                }
              },
              {
                "url": "https://fhir.kbv.de/StructureDefinition/KBV_EX_ERP_Medication_Vaccine",
                "valueBoolean": false
              },
              {
                "url": "http://fhir.de/StructureDefinition/normgroesse",
                "valueCode": "NB"
              }
            ],
            "code": {
              "coding": [
                {
                  "system": "http://fhir.de/CodeSystem/ifa/pzn",
                  "code": "12345678"
                }
              ],
              "text": "Schmerzmittel"
            },
            "form": {
              "coding": [
                {
                  "system": "https://fhir.kbv.de/CodeSystem/KBV_CS_SFHIR_KBV_DARREICHUNGSFORM",
                  "code": "TAB"
                }
              ]
            },
            "amount": {
              "numerator": {
                "extension": [
                  {
                    "url": "https://fhir.kbv.de/StructureDefinition/KBV_EX_ERP_Medication_PackagingSize",
                    "valueString": "1"
                  }
                ],
                "unit": "Stk"
              },
              "denominator": {
                "value": 1
              }
            }
          }
        ],
        "basedOn": [
          {
            "reference": "Task/160.000.032.724.338.64"
          }
        ],
        "status": "unknown",
        "about": [
          {
            "reference": "#9623a3ab-2bf7-44f4-ac9f-10b80cbd29f9"
          }
        ],
        "sent": "2023-03-01T15:35:04.358+00:00",
        "recipient": [
          {
            "identifier": {
              "system": "https://gematik.de/fhir/sid/telematik-id",
              "value": "1-2-ARZT-BerndClaudius01"
            }
          }
        ],
        "sender": {
          "identifier": {
            "system": "http://fhir.de/sid/gkv/kvid-10",
            "value": "X110498565"
          }
        },
        "payload": [
          {
            "extension": [
              {
                "url": "https://gematik.de/fhir/erp/StructureDefinition/GEM_ERP_EX_InsuranceProvider",
                "valueIdentifier": {
                  "system": "http://fhir.de/sid/arge-ik/iknr",
                  "value": "411170364"
                }
              },
              {
                "url": "https://gematik.de/fhir/erp/StructureDefinition/GEM_ERP_EX_SubstitutionAllowedType",
                "valueBoolean": true
              },
              {
                "url": "https://gematik.de/fhir/erp/StructureDefinition/GEM_ERP_EX_PrescriptionType",
                "valueCoding": {
                  "system": "https://gematik.de/fhir/erp/CodeSystem/GEM_ERP_CS_FlowType",
                  "code": "160",
                  "display": "Muster 16 (Apothekenpflichtige Arzneimittel)"
                }
              }
            ],
            "contentString": "Pardon me for breathing, which I never do anyway so I don't know why I bother to say it, Oh God, I'm so depressed."
          }
        ]
      },
      "search": {
        "mode": "match"
      }
    },
    {
      "fullUrl": "https://erp-dev.zentral.erp.splitdns.ti-dienste.de/Communication/01eb9df0-ecd8-4768-f4d4-2a959f13f7de",
      "resource": {
        "resourceType": "Communication",
        "id": "01eb9df0-ecd8-4768-f4d4-2a959f13f7de",
        "meta": {
          "profile": [
            "https://gematik.de/fhir/erp/StructureDefinition/GEM_ERP_PR_Communication_InfoReq|1.2"
          ]
        },
        "contained": [
          {
            "resourceType": "Medication",
            "id": "ebf4b8f9-4a18-414a-9b4e-5dbed9cbe32a",
            "meta": {
              "profile": [
                "https://fhir.kbv.de/StructureDefinition/KBV_PR_ERP_Medication_PZN|1.1.0"
              ]
            },
            "extension": [
              {
                "url": "https://fhir.kbv.de/StructureDefinition/KBV_EX_Base_Medication_Type",
                "valueCodeableConcept": {
                  "coding": [
                    {
                      "system": "http://snomed.info/sct",
                      "version": "http://snomed.info/sct/900000000000207008/version/20220331",
                      "code": "763158003",
                      "display": "Medicinal product (product)"
                    }
                  ]
                }
              },
              {
                "url": "https://fhir.kbv.de/StructureDefinition/KBV_EX_ERP_Medication_Category",
                "valueCoding": {
                  "system": "https://fhir.kbv.de/CodeSystem/KBV_CS_ERP_Medication_Category",
                  "code": "00"
                }
              },
              {
                "url": "https://fhir.kbv.de/StructureDefinition/KBV_EX_ERP_Medication_Vaccine",
                "valueBoolean": false
              },
              {
                "url": "http://fhir.de/StructureDefinition/normgroesse",
                "valueCode": "NB"
              }
            ],
            "code": {
              "coding": [
                {
                  "system": "http://fhir.de/CodeSystem/ifa/pzn",
                  "code": "12345678"
                }
              ],
              "text": "Schmerzmittel"
            },
            "form": {
              "coding": [
                {
                  "system": "https://fhir.kbv.de/CodeSystem/KBV_CS_SFHIR_KBV_DARREICHUNGSFORM",
                  "code": "TAB"
                }
              ]
            },
            "amount": {
              "numerator": {
                "extension": [
                  {
                    "url": "https://fhir.kbv.de/StructureDefinition/KBV_EX_ERP_Medication_PackagingSize",
                    "valueString": "1"
                  }
                ],
                "unit": "Stk"
              },
              "denominator": {
                "value": 1
              }
            }
          }
        ],
        "basedOn": [
          {
            "reference": "Task/160.000.031.350.489.81"
          }
        ],
        "status": "unknown",
        "about": [
          {
            "reference": "#ebf4b8f9-4a18-414a-9b4e-5dbed9cbe32a"
          }
        ],
        "sent": "2023-02-07T02:40:56.241+00:00",
        "recipient": [
          {
            "identifier": {
              "system": "https://gematik.de/fhir/sid/telematik-id",
              "value": "1-2-ARZT-DamianClaudius01"
            }
          }
        ],
        "sender": {
          "identifier": {
            "system": "http://fhir.de/sid/gkv/kvid-10",
            "value": "X110498565"
          }
        },
        "payload": [
          {
            "extension": [
              {
                "url": "https://gematik.de/fhir/erp/StructureDefinition/GEM_ERP_EX_InsuranceProvider",
                "valueIdentifier": {
                  "system": "http://fhir.de/sid/arge-ik/iknr",
                  "value": "966288847"
                }
              },
              {
                "url": "https://gematik.de/fhir/erp/StructureDefinition/GEM_ERP_EX_SubstitutionAllowedType",
                "valueBoolean": true
              },
              {
                "url": "https://gematik.de/fhir/erp/StructureDefinition/GEM_ERP_EX_PrescriptionType",
                "valueCoding": {
                  "system": "https://gematik.de/fhir/erp/CodeSystem/GEM_ERP_CS_FlowType",
                  "code": "160",
                  "display": "Muster 16 (Apothekenpflichtige Arzneimittel)"
                }
              }
            ],
            "contentString": "You think you've got problems? What are you supposed to do if you are a manically depressed robot? No, don't try to answer that. I'm fifty thousand times more intelligent than you and even I don't know the answer. It gives me a headache just trying to think down to your level."
          }
        ]
      },
      "search": {
        "mode": "match"
      }
    },
    {
      "fullUrl": "https://erp-dev.zentral.erp.splitdns.ti-dienste.de/Communication/01eb9d98-12f8-0108-50cc-985e9ce9beb1",
      "resource": {
        "resourceType": "Communication",
        "id": "01eb9d98-12f8-0108-50cc-985e9ce9beb1",
        "meta": {
          "profile": [
            "https://gematik.de/fhir/erp/StructureDefinition/GEM_ERP_PR_Communication_InfoReq|1.2"
          ]
        },
        "contained": [
          {
            "resourceType": "Medication",
            "id": "96e46de6-f44b-4b35-b3a8-1cc6afa6d733",
            "meta": {
              "profile": [
                "https://fhir.kbv.de/StructureDefinition/KBV_PR_ERP_Medication_PZN|1.1.0"
              ]
            },
            "extension": [
              {
                "url": "https://fhir.kbv.de/StructureDefinition/KBV_EX_Base_Medication_Type",
                "valueCodeableConcept": {
                  "coding": [
                    {
                      "system": "http://snomed.info/sct",
                      "version": "http://snomed.info/sct/900000000000207008/version/20220331",
                      "code": "763158003",
                      "display": "Medicinal product (product)"
                    }
                  ]
                }
              },
              {
                "url": "https://fhir.kbv.de/StructureDefinition/KBV_EX_ERP_Medication_Category",
                "valueCoding": {
                  "system": "https://fhir.kbv.de/CodeSystem/KBV_CS_ERP_Medication_Category",
                  "code": "00"
                }
              },
              {
                "url": "https://fhir.kbv.de/StructureDefinition/KBV_EX_ERP_Medication_Vaccine",
                "valueBoolean": false
              },
              {
                "url": "http://fhir.de/StructureDefinition/normgroesse",
                "valueCode": "NB"
              }
            ],
            "code": {
              "coding": [
                {
                  "system": "http://fhir.de/CodeSystem/ifa/pzn",
                  "code": "12345678"
                }
              ],
              "text": "Schmerzmittel"
            },
            "form": {
              "coding": [
                {
                  "system": "https://fhir.kbv.de/CodeSystem/KBV_CS_SFHIR_KBV_DARREICHUNGSFORM",
                  "code": "TAB"
                }
              ]
            },
            "amount": {
              "numerator": {
                "extension": [
                  {
                    "url": "https://fhir.kbv.de/StructureDefinition/KBV_EX_ERP_Medication_PackagingSize",
                    "valueString": "1"
                  }
                ],
                "unit": "Stk"
              },
              "denominator": {
                "value": 1
              }
            }
          }
        ],
        "basedOn": [
          {
            "reference": "Task/160.000.031.335.353.93"
          }
        ],
        "status": "unknown",
        "about": [
          {
            "reference": "#96e46de6-f44b-4b35-b3a8-1cc6afa6d733"
          }
        ],
        "sent": "2023-02-02T16:40:43.765+00:00",
        "recipient": [
          {
            "identifier": {
              "system": "https://gematik.de/fhir/sid/telematik-id",
              "value": "1-2-ARZT-DamianClaudius01"
            }
          }
        ],
        "sender": {
          "identifier": {
            "system": "http://fhir.de/sid/gkv/kvid-10",
            "value": "X110498565"
          }
        },
        "payload": [
          {
            "extension": [
              {
                "url": "https://gematik.de/fhir/erp/StructureDefinition/GEM_ERP_EX_InsuranceProvider",
                "valueIdentifier": {
                  "system": "http://fhir.de/sid/arge-ik/iknr",
                  "value": "972105191"
                }
              },
              {
                "url": "https://gematik.de/fhir/erp/StructureDefinition/GEM_ERP_EX_SubstitutionAllowedType",
                "valueBoolean": true
              },
              {
                "url": "https://gematik.de/fhir/erp/StructureDefinition/GEM_ERP_EX_PrescriptionType",
                "valueCoding": {
                  "system": "https://gematik.de/fhir/erp/CodeSystem/GEM_ERP_CS_FlowType",
                  "code": "160",
                  "display": "Muster 16 (Apothekenpflichtige Arzneimittel)"
                }
              }
            ],
            "contentString": "I won't enjoy it."
          }
        ]
      },
      "search": {
        "mode": "match"
      }
    },
    {
      "fullUrl": "https://erp-dev.zentral.erp.splitdns.ti-dienste.de/Communication/01eb9d85-a3d6-0318-bef2-2cf355a7a6a2",
      "resource": {
        "resourceType": "Communication",
        "id": "01eb9d85-a3d6-0318-bef2-2cf355a7a6a2",
        "meta": {
          "profile": [
            "https://gematik.de/fhir/erp/StructureDefinition/GEM_ERP_PR_Communication_InfoReq|1.2"
          ]
        },
        "contained": [
          {
            "resourceType": "Medication",
            "id": "0355f097-6f3e-4aaa-93da-53f773b74955",
            "meta": {
              "profile": [
                "https://fhir.kbv.de/StructureDefinition/KBV_PR_ERP_Medication_PZN|1.1.0"
              ]
            },
            "extension": [
              {
                "url": "https://fhir.kbv.de/StructureDefinition/KBV_EX_Base_Medication_Type",
                "valueCodeableConcept": {
                  "coding": [
                    {
                      "system": "http://snomed.info/sct",
                      "version": "http://snomed.info/sct/900000000000207008/version/20220331",
                      "code": "763158003",
                      "display": "Medicinal product (product)"
                    }
                  ]
                }
              },
              {
                "url": "https://fhir.kbv.de/StructureDefinition/KBV_EX_ERP_Medication_Category",
                "valueCoding": {
                  "system": "https://fhir.kbv.de/CodeSystem/KBV_CS_ERP_Medication_Category",
                  "code": "00"
                }
              },
              {
                "url": "https://fhir.kbv.de/StructureDefinition/KBV_EX_ERP_Medication_Vaccine",
                "valueBoolean": false
              },
              {
                "url": "http://fhir.de/StructureDefinition/normgroesse",
                "valueCode": "NB"
              }
            ],
            "code": {
              "coding": [
                {
                  "system": "http://fhir.de/CodeSystem/ifa/pzn",
                  "code": "12345678"
                }
              ],
              "text": "Schmerzmittel"
            },
            "form": {
              "coding": [
                {
                  "system": "https://fhir.kbv.de/CodeSystem/KBV_CS_SFHIR_KBV_DARREICHUNGSFORM",
                  "code": "TAB"
                }
              ]
            },
            "amount": {
              "numerator": {
                "extension": [
                  {
                    "url": "https://fhir.kbv.de/StructureDefinition/KBV_EX_ERP_Medication_PackagingSize",
                    "valueString": "1"
                  }
                ],
                "unit": "Stk"
              },
              "denominator": {
                "value": 1
              }
            }
          }
        ],
        "basedOn": [
          {
            "reference": "Task/160.000.031.332.482.73"
          }
        ],
        "status": "unknown",
        "about": [
          {
            "reference": "#0355f097-6f3e-4aaa-93da-53f773b74955"
          }
        ],
        "sent": "2023-02-01T18:41:09.855+00:00",
        "recipient": [
          {
            "identifier": {
              "system": "https://gematik.de/fhir/sid/telematik-id",
              "value": "1-2-ARZT-DamianClaudius01"
            }
          }
        ],
        "sender": {
          "identifier": {
            "system": "http://fhir.de/sid/gkv/kvid-10",
            "value": "X110498565"
          }
        },
        "payload": [
          {
            "extension": [
              {
                "url": "https://gematik.de/fhir/erp/StructureDefinition/GEM_ERP_EX_InsuranceProvider",
                "valueIdentifier": {
                  "system": "http://fhir.de/sid/arge-ik/iknr",
                  "value": "193383725"
                }
              },
              {
                "url": "https://gematik.de/fhir/erp/StructureDefinition/GEM_ERP_EX_SubstitutionAllowedType",
                "valueBoolean": true
              },
              {
                "url": "https://gematik.de/fhir/erp/StructureDefinition/GEM_ERP_EX_PrescriptionType",
                "valueCoding": {
                  "system": "https://gematik.de/fhir/erp/CodeSystem/GEM_ERP_CS_FlowType",
                  "code": "160",
                  "display": "Muster 16 (Apothekenpflichtige Arzneimittel)"
                }
              }
            ],
            "contentString": "I wish you'd just tell me rather trying to engage my enthusiasm, because I haven't got one."
          }
        ]
      },
      "search": {
        "mode": "match"
      }
    },
    {
      "fullUrl": "https://erp-dev.zentral.erp.splitdns.ti-dienste.de/Communication/01eb9d94-ba20-7cc0-36dd-d1ba721504e6",
      "resource": {
        "resourceType": "Communication",
        "id": "01eb9d94-ba20-7cc0-36dd-d1ba721504e6",
        "meta": {
          "profile": [
            "https://gematik.de/fhir/erp/StructureDefinition/GEM_ERP_PR_Communication_InfoReq|1.2"
          ]
        },
        "contained": [
          {
            "resourceType": "Medication",
            "id": "a28c7ddb-c5e8-49cd-9fde-a3f0f0c24acf",
            "meta": {
              "profile": [
                "https://fhir.kbv.de/StructureDefinition/KBV_PR_ERP_Medication_PZN|1.1.0"
              ]
            },
            "extension": [
              {
                "url": "https://fhir.kbv.de/StructureDefinition/KBV_EX_Base_Medication_Type",
                "valueCodeableConcept": {
                  "coding": [
                    {
                      "system": "http://snomed.info/sct",
                      "version": "http://snomed.info/sct/900000000000207008/version/20220331",
                      "code": "763158003",
                      "display": "Medicinal product (product)"
                    }
                  ]
                }
              },
              {
                "url": "https://fhir.kbv.de/StructureDefinition/KBV_EX_ERP_Medication_Category",
                "valueCoding": {
                  "system": "https://fhir.kbv.de/CodeSystem/KBV_CS_ERP_Medication_Category",
                  "code": "00"
                }
              },
              {
                "url": "https://fhir.kbv.de/StructureDefinition/KBV_EX_ERP_Medication_Vaccine",
                "valueBoolean": false
              },
              {
                "url": "http://fhir.de/StructureDefinition/normgroesse",
                "valueCode": "NB"
              }
            ],
            "code": {
              "coding": [
                {
                  "system": "http://fhir.de/CodeSystem/ifa/pzn",
                  "code": "12345678"
                }
              ],
              "text": "Schmerzmittel"
            },
            "form": {
              "coding": [
                {
                  "system": "https://fhir.kbv.de/CodeSystem/KBV_CS_SFHIR_KBV_DARREICHUNGSFORM",
                  "code": "TAB"
                }
              ]
            },
            "amount": {
              "numerator": {
                "extension": [
                  {
                    "url": "https://fhir.kbv.de/StructureDefinition/KBV_EX_ERP_Medication_PackagingSize",
                    "valueString": "1"
                  }
                ],
                "unit": "Stk"
              },
              "denominator": {
                "value": 1
              }
            }
          }
        ],
        "basedOn": [
          {
            "reference": "Task/160.000.031.334.831.10"
          }
        ],
        "status": "unknown",
        "about": [
          {
            "reference": "#a28c7ddb-c5e8-49cd-9fde-a3f0f0c24acf"
          }
        ],
        "sent": "2023-02-02T12:41:08.344+00:00",
        "recipient": [
          {
            "identifier": {
              "system": "https://gematik.de/fhir/sid/telematik-id",
              "value": "1-2-ARZT-DamianClaudius01"
            }
          }
        ],
        "sender": {
          "identifier": {
            "system": "http://fhir.de/sid/gkv/kvid-10",
            "value": "X110498565"
          }
        },
        "payload": [
          {
            "extension": [
              {
                "url": "https://gematik.de/fhir/erp/StructureDefinition/GEM_ERP_EX_InsuranceProvider",
                "valueIdentifier": {
                  "system": "http://fhir.de/sid/arge-ik/iknr",
                  "value": "971621073"
                }
              },
              {
                "url": "https://gematik.de/fhir/erp/StructureDefinition/GEM_ERP_EX_SubstitutionAllowedType",
                "valueBoolean": true
              },
              {
                "url": "https://gematik.de/fhir/erp/StructureDefinition/GEM_ERP_EX_PrescriptionType",
                "valueCoding": {
                  "system": "https://gematik.de/fhir/erp/CodeSystem/GEM_ERP_CS_FlowType",
                  "code": "160",
                  "display": "Muster 16 (Apothekenpflichtige Arzneimittel)"
                }
              }
            ],
            "contentString": "I think you ought to know I'm feeling very depressed."
          }
        ]
      },
      "search": {
        "mode": "match"
      }
    },
    {
      "fullUrl": "https://erp-dev.zentral.erp.splitdns.ti-dienste.de/Communication/01eb9e00-0aa1-e5d8-9d78-cd18a4fc120e",
      "resource": {
        "resourceType": "Communication",
        "id": "01eb9e00-0aa1-e5d8-9d78-cd18a4fc120e",
        "meta": {
          "profile": [
            "https://gematik.de/fhir/erp/StructureDefinition/GEM_ERP_PR_Communication_InfoReq|1.2"
          ]
        },
        "contained": [
          {
            "resourceType": "Medication",
            "id": "32664079-c58f-400f-8a5e-8e0d6508c9d9",
            "meta": {
              "profile": [
                "https://fhir.kbv.de/StructureDefinition/KBV_PR_ERP_Medication_PZN|1.1.0"
              ]
            },
            "extension": [
              {
                "url": "https://fhir.kbv.de/StructureDefinition/KBV_EX_Base_Medication_Type",
                "valueCodeableConcept": {
                  "coding": [
                    {
                      "system": "http://snomed.info/sct",
                      "version": "http://snomed.info/sct/900000000000207008/version/20220331",
                      "code": "763158003",
                      "display": "Medicinal product (product)"
                    }
                  ]
                }
              },
              {
                "url": "https://fhir.kbv.de/StructureDefinition/KBV_EX_ERP_Medication_Category",
                "valueCoding": {
                  "system": "https://fhir.kbv.de/CodeSystem/KBV_CS_ERP_Medication_Category",
                  "code": "00"
                }
              },
              {
                "url": "https://fhir.kbv.de/StructureDefinition/KBV_EX_ERP_Medication_Vaccine",
                "valueBoolean": false
              },
              {
                "url": "http://fhir.de/StructureDefinition/normgroesse",
                "valueCode": "NB"
              }
            ],
            "code": {
              "coding": [
                {
                  "system": "http://fhir.de/CodeSystem/ifa/pzn",
                  "code": "12345678"
                }
              ],
              "text": "Schmerzmittel"
            },
            "form": {
              "coding": [
                {
                  "system": "https://fhir.kbv.de/CodeSystem/KBV_CS_SFHIR_KBV_DARREICHUNGSFORM",
                  "code": "TAB"
                }
              ]
            },
            "amount": {
              "numerator": {
                "extension": [
                  {
                    "url": "https://fhir.kbv.de/StructureDefinition/KBV_EX_ERP_Medication_PackagingSize",
                    "valueString": "1"
                  }
                ],
                "unit": "Stk"
              },
              "denominator": {
                "value": 1
              }
            }
          }
        ],
        "basedOn": [
          {
            "reference": "Task/160.000.031.353.358.10"
          }
        ],
        "status": "unknown",
        "about": [
          {
            "reference": "#32664079-c58f-400f-8a5e-8e0d6508c9d9"
          }
        ],
        "sent": "2023-02-07T20:43:00.503+00:00",
        "recipient": [
          {
            "identifier": {
              "system": "https://gematik.de/fhir/sid/telematik-id",
              "value": "1-2-ARZT-BerndClaudius01"
            }
          }
        ],
        "sender": {
          "identifier": {
            "system": "http://fhir.de/sid/gkv/kvid-10",
            "value": "X110498565"
          }
        },
        "payload": [
          {
            "extension": [
              {
                "url": "https://gematik.de/fhir/erp/StructureDefinition/GEM_ERP_EX_InsuranceProvider",
                "valueIdentifier": {
                  "system": "http://fhir.de/sid/arge-ik/iknr",
                  "value": "070863795"
                }
              },
              {
                "url": "https://gematik.de/fhir/erp/StructureDefinition/GEM_ERP_EX_SubstitutionAllowedType",
                "valueBoolean": true
              },
              {
                "url": "https://gematik.de/fhir/erp/StructureDefinition/GEM_ERP_EX_PrescriptionType",
                "valueCoding": {
                  "system": "https://gematik.de/fhir/erp/CodeSystem/GEM_ERP_CS_FlowType",
                  "code": "160",
                  "display": "Muster 16 (Apothekenpflichtige Arzneimittel)"
                }
              }
            ],
            "contentString": "There's only one life-form as intelligent as me within thirty parsecs of here and that's me."
          }
        ]
      },
      "search": {
        "mode": "match"
      }
    },
    {
      "fullUrl": "https://erp-dev.zentral.erp.splitdns.ti-dienste.de/Communication/01eb9e82-c820-05b8-9c4b-c95bfb0a4046",
      "resource": {
        "resourceType": "Communication",
        "id": "01eb9e82-c820-05b8-9c4b-c95bfb0a4046",
        "meta": {
          "profile": [
            "https://gematik.de/fhir/erp/StructureDefinition/GEM_ERP_PR_Communication_InfoReq|1.2"
          ]
        },
        "contained": [
          {
            "resourceType": "Medication",
            "id": "b9ea20de-5ac6-4e47-a169-4c32e7d2c6fc",
            "meta": {
              "profile": [
                "https://fhir.kbv.de/StructureDefinition/KBV_PR_ERP_Medication_PZN|1.1.0"
              ]
            },
            "extension": [
              {
                "url": "https://fhir.kbv.de/StructureDefinition/KBV_EX_Base_Medication_Type",
                "valueCodeableConcept": {
                  "coding": [
                    {
                      "system": "http://snomed.info/sct",
                      "version": "http://snomed.info/sct/900000000000207008/version/20220331",
                      "code": "763158003",
                      "display": "Medicinal product (product)"
                    }
                  ]
                }
              },
              {
                "url": "https://fhir.kbv.de/StructureDefinition/KBV_EX_ERP_Medication_Category",
                "valueCoding": {
                  "system": "https://fhir.kbv.de/CodeSystem/KBV_CS_ERP_Medication_Category",
                  "code": "00"
                }
              },
              {
                "url": "https://fhir.kbv.de/StructureDefinition/KBV_EX_ERP_Medication_Vaccine",
                "valueBoolean": false
              },
              {
                "url": "http://fhir.de/StructureDefinition/normgroesse",
                "valueCode": "NB"
              }
            ],
            "code": {
              "coding": [
                {
                  "system": "http://fhir.de/CodeSystem/ifa/pzn",
                  "code": "12345678"
                }
              ],
              "text": "Schmerzmittel"
            },
            "form": {
              "coding": [
                {
                  "system": "https://fhir.kbv.de/CodeSystem/KBV_CS_SFHIR_KBV_DARREICHUNGSFORM",
                  "code": "TAB"
                }
              ]
            },
            "amount": {
              "numerator": {
                "extension": [
                  {
                    "url": "https://fhir.kbv.de/StructureDefinition/KBV_EX_ERP_Medication_PackagingSize",
                    "valueString": "1"
                  }
                ],
                "unit": "Stk"
              },
              "denominator": {
                "value": 1
              }
            }
          }
        ],
        "basedOn": [
          {
            "reference": "Task/160.000.032.710.786.77"
          }
        ],
        "status": "unknown",
        "about": [
          {
            "reference": "#b9ea20de-5ac6-4e47-a169-4c32e7d2c6fc"
          }
        ],
        "sent": "2023-02-14T08:41:45.411+00:00",
        "recipient": [
          {
            "identifier": {
              "system": "https://gematik.de/fhir/sid/telematik-id",
              "value": "1-2-ARZT-BerndClaudius01"
            }
          }
        ],
        "sender": {
          "identifier": {
            "system": "http://fhir.de/sid/gkv/kvid-10",
            "value": "X110498565"
          }
        },
        "payload": [
          {
            "extension": [
              {
                "url": "https://gematik.de/fhir/erp/StructureDefinition/GEM_ERP_EX_InsuranceProvider",
                "valueIdentifier": {
                  "system": "http://fhir.de/sid/arge-ik/iknr",
                  "value": "473758700"
                }
              },
              {
                "url": "https://gematik.de/fhir/erp/StructureDefinition/GEM_ERP_EX_SubstitutionAllowedType",
                "valueBoolean": true
              },
              {
                "url": "https://gematik.de/fhir/erp/StructureDefinition/GEM_ERP_EX_PrescriptionType",
                "valueCoding": {
                  "system": "https://gematik.de/fhir/erp/CodeSystem/GEM_ERP_CS_FlowType",
                  "code": "160",
                  "display": "Muster 16 (Apothekenpflichtige Arzneimittel)"
                }
              }
            ],
            "contentString": "I wish you'd just tell me rather trying to engage my enthusiasm, because I haven't got one."
          }
        ]
      },
      "search": {
        "mode": "match"
      }
    },
    {
      "fullUrl": "https://erp-dev.zentral.erp.splitdns.ti-dienste.de/Communication/01eb9fc0-fc04-3720-cfcc-cce6c1d3c4e2",
      "resource": {
        "resourceType": "Communication",
        "id": "01eb9fc0-fc04-3720-cfcc-cce6c1d3c4e2",
        "meta": {
          "profile": [
            "https://gematik.de/fhir/erp/StructureDefinition/GEM_ERP_PR_Communication_InfoReq|1.2"
          ]
        },
        "contained": [
          {
            "resourceType": "Medication",
            "id": "44741ad3-3304-4446-88ba-91670b34e59b",
            "meta": {
              "profile": [
                "https://fhir.kbv.de/StructureDefinition/KBV_PR_ERP_Medication_PZN|1.1.0"
              ]
            },
            "extension": [
              {
                "url": "https://fhir.kbv.de/StructureDefinition/KBV_EX_Base_Medication_Type",
                "valueCodeableConcept": {
                  "coding": [
                    {
                      "system": "http://snomed.info/sct",
                      "version": "http://snomed.info/sct/900000000000207008/version/20220331",
                      "code": "763158003",
                      "display": "Medicinal product (product)"
                    }
                  ]
                }
              },
              {
                "url": "https://fhir.kbv.de/StructureDefinition/KBV_EX_ERP_Medication_Category",
                "valueCoding": {
                  "system": "https://fhir.kbv.de/CodeSystem/KBV_CS_ERP_Medication_Category",
                  "code": "00"
                }
              },
              {
                "url": "https://fhir.kbv.de/StructureDefinition/KBV_EX_ERP_Medication_Vaccine",
                "valueBoolean": false
              },
              {
                "url": "http://fhir.de/StructureDefinition/normgroesse",
                "valueCode": "NB"
              }
            ],
            "code": {
              "coding": [
                {
                  "system": "http://fhir.de/CodeSystem/ifa/pzn",
                  "code": "12345678"
                }
              ],
              "text": "Schmerzmittel"
            },
            "form": {
              "coding": [
                {
                  "system": "https://fhir.kbv.de/CodeSystem/KBV_CS_SFHIR_KBV_DARREICHUNGSFORM",
                  "code": "TAB"
                }
              ]
            },
            "amount": {
              "numerator": {
                "extension": [
                  {
                    "url": "https://fhir.kbv.de/StructureDefinition/KBV_EX_ERP_Medication_PackagingSize",
                    "valueString": "1"
                  }
                ],
                "unit": "Stk"
              },
              "denominator": {
                "value": 1
              }
            }
          }
        ],
        "basedOn": [
          {
            "reference": "Task/160.000.032.729.511.65"
          }
        ],
        "status": "unknown",
        "about": [
          {
            "reference": "#44741ad3-3304-4446-88ba-91670b34e59b"
          }
        ],
        "sent": "2023-03-02T04:19:35.604+00:00",
        "recipient": [
          {
            "identifier": {
              "system": "https://gematik.de/fhir/sid/telematik-id",
              "value": "1-2-ARZT-BerndClaudius01"
            }
          }
        ],
        "sender": {
          "identifier": {
            "system": "http://fhir.de/sid/gkv/kvid-10",
            "value": "X110498565"
          }
        },
        "payload": [
          {
            "extension": [
              {
                "url": "https://gematik.de/fhir/erp/StructureDefinition/GEM_ERP_EX_InsuranceProvider",
                "valueIdentifier": {
                  "system": "http://fhir.de/sid/arge-ik/iknr",
                  "value": "302761308"
                }
              },
              {
                "url": "https://gematik.de/fhir/erp/StructureDefinition/GEM_ERP_EX_SubstitutionAllowedType",
                "valueBoolean": true
              },
              {
                "url": "https://gematik.de/fhir/erp/StructureDefinition/GEM_ERP_EX_PrescriptionType",
                "valueCoding": {
                  "system": "https://gematik.de/fhir/erp/CodeSystem/GEM_ERP_CS_FlowType",
                  "code": "160",
                  "display": "Muster 16 (Apothekenpflichtige Arzneimittel)"
                }
              }
            ],
            "contentString": "Life? Don't talk to me about life."
          }
        ]
      },
      "search": {
        "mode": "match"
      }
    },
    {
      "fullUrl": "https://erp-dev.zentral.erp.splitdns.ti-dienste.de/Communication/01eb9df5-f3fb-e0b8-711b-becd8d1b9fad",
      "resource": {
        "resourceType": "Communication",
        "id": "01eb9df5-f3fb-e0b8-711b-becd8d1b9fad",
        "meta": {
          "profile": [
            "https://gematik.de/fhir/erp/StructureDefinition/GEM_ERP_PR_Communication_InfoReq|1.2"
          ]
        },
        "contained": [
          {
            "resourceType": "Medication",
            "id": "0c9d49a3-345d-4c63-8494-4c5c291112ee",
            "meta": {
              "profile": [
                "https://fhir.kbv.de/StructureDefinition/KBV_PR_ERP_Medication_PZN|1.1.0"
              ]
            },
            "extension": [
              {
                "url": "https://fhir.kbv.de/StructureDefinition/KBV_EX_Base_Medication_Type",
                "valueCodeableConcept": {
                  "coding": [
                    {
                      "system": "http://snomed.info/sct",
                      "version": "http://snomed.info/sct/900000000000207008/version/20220331",
                      "code": "763158003",
                      "display": "Medicinal product (product)"
                    }
                  ]
                }
              },
              {
                "url": "https://fhir.kbv.de/StructureDefinition/KBV_EX_ERP_Medication_Category",
                "valueCoding": {
                  "system": "https://fhir.kbv.de/CodeSystem/KBV_CS_ERP_Medication_Category",
                  "code": "00"
                }
              },
              {
                "url": "https://fhir.kbv.de/StructureDefinition/KBV_EX_ERP_Medication_Vaccine",
                "valueBoolean": false
              },
              {
                "url": "http://fhir.de/StructureDefinition/normgroesse",
                "valueCode": "NB"
              }
            ],
            "code": {
              "coding": [
                {
                  "system": "http://fhir.de/CodeSystem/ifa/pzn",
                  "code": "12345678"
                }
              ],
              "text": "Schmerzmittel"
            },
            "form": {
              "coding": [
                {
                  "system": "https://fhir.kbv.de/CodeSystem/KBV_CS_SFHIR_KBV_DARREICHUNGSFORM",
                  "code": "TAB"
                }
              ]
            },
            "amount": {
              "numerator": {
                "extension": [
                  {
                    "url": "https://fhir.kbv.de/StructureDefinition/KBV_EX_ERP_Medication_PackagingSize",
                    "valueString": "1"
                  }
                ],
                "unit": "Stk"
              },
              "denominator": {
                "value": 1
              }
            }
          }
        ],
        "basedOn": [
          {
            "reference": "Task/160.000.031.351.272.60"
          }
        ],
        "status": "unknown",
        "about": [
          {
            "reference": "#0c9d49a3-345d-4c63-8494-4c5c291112ee"
          }
        ],
        "sent": "2023-02-07T08:40:50.851+00:00",
        "recipient": [
          {
            "identifier": {
              "system": "https://gematik.de/fhir/sid/telematik-id",
              "value": "1-2-ARZT-DamianClaudius01"
            }
          }
        ],
        "sender": {
          "identifier": {
            "system": "http://fhir.de/sid/gkv/kvid-10",
            "value": "X110498565"
          }
        },
        "payload": [
          {
            "extension": [
              {
                "url": "https://gematik.de/fhir/erp/StructureDefinition/GEM_ERP_EX_InsuranceProvider",
                "valueIdentifier": {
                  "system": "http://fhir.de/sid/arge-ik/iknr",
                  "value": "035176806"
                }
              },
              {
                "url": "https://gematik.de/fhir/erp/StructureDefinition/GEM_ERP_EX_SubstitutionAllowedType",
                "valueBoolean": true
              },
              {
                "url": "https://gematik.de/fhir/erp/StructureDefinition/GEM_ERP_EX_PrescriptionType",
                "valueCoding": {
                  "system": "https://gematik.de/fhir/erp/CodeSystem/GEM_ERP_CS_FlowType",
                  "code": "160",
                  "display": "Muster 16 (Apothekenpflichtige Arzneimittel)"
                }
              }
            ],
            "contentString": "Life? Don't talk to me about life."
          }
        ]
      },
      "search": {
        "mode": "match"
      }
    },
    {
      "fullUrl": "https://erp-dev.zentral.erp.splitdns.ti-dienste.de/Communication/01eb9fd2-716e-ee40-ef6e-47183866bea2",
      "resource": {
        "resourceType": "Communication",
        "id": "01eb9fd2-716e-ee40-ef6e-47183866bea2",
        "meta": {
          "profile": [
            "https://gematik.de/fhir/erp/StructureDefinition/GEM_ERP_PR_Communication_InfoReq|1.2"
          ]
        },
        "contained": [
          {
            "resourceType": "Medication",
            "id": "be6ef7e0-a050-40db-b296-b221a521fb36",
            "meta": {
              "profile": [
                "https://fhir.kbv.de/StructureDefinition/KBV_PR_ERP_Medication_PZN|1.1.0"
              ]
            },
            "extension": [
              {
                "url": "https://fhir.kbv.de/StructureDefinition/KBV_EX_Base_Medication_Type",
                "valueCodeableConcept": {
                  "coding": [
                    {
                      "system": "http://snomed.info/sct",
                      "version": "http://snomed.info/sct/900000000000207008/version/20220331",
                      "code": "763158003",
                      "display": "Medicinal product (product)"
                    }
                  ]
                }
              },
              {
                "url": "https://fhir.kbv.de/StructureDefinition/KBV_EX_ERP_Medication_Category",
                "valueCoding": {
                  "system": "https://fhir.kbv.de/CodeSystem/KBV_CS_ERP_Medication_Category",
                  "code": "00"
                }
              },
              {
                "url": "https://fhir.kbv.de/StructureDefinition/KBV_EX_ERP_Medication_Vaccine",
                "valueBoolean": false
              },
              {
                "url": "http://fhir.de/StructureDefinition/normgroesse",
                "valueCode": "NB"
              }
            ],
            "code": {
              "coding": [
                {
                  "system": "http://fhir.de/CodeSystem/ifa/pzn",
                  "code": "12345678"
                }
              ],
              "text": "Schmerzmittel"
            },
            "form": {
              "coding": [
                {
                  "system": "https://fhir.kbv.de/CodeSystem/KBV_CS_SFHIR_KBV_DARREICHUNGSFORM",
                  "code": "TAB"
                }
              ]
            },
            "amount": {
              "numerator": {
                "extension": [
                  {
                    "url": "https://fhir.kbv.de/StructureDefinition/KBV_EX_ERP_Medication_PackagingSize",
                    "valueString": "1"
                  }
                ],
                "unit": "Stk"
              },
              "denominator": {
                "value": 1
              }
            }
          }
        ],
        "basedOn": [
          {
            "reference": "Task/160.000.032.738.660.69"
          }
        ],
        "status": "unknown",
        "about": [
          {
            "reference": "#be6ef7e0-a050-40db-b296-b221a521fb36"
          }
        ],
        "sent": "2023-03-03T01:09:19.976+00:00",
        "recipient": [
          {
            "identifier": {
              "system": "https://gematik.de/fhir/sid/telematik-id",
              "value": "1-2-ARZT-BerndClaudius01"
            }
          }
        ],
        "sender": {
          "identifier": {
            "system": "http://fhir.de/sid/gkv/kvid-10",
            "value": "X110498565"
          }
        },
        "payload": [
          {
            "extension": [
              {
                "url": "https://gematik.de/fhir/erp/StructureDefinition/GEM_ERP_EX_InsuranceProvider",
                "valueIdentifier": {
                  "system": "http://fhir.de/sid/arge-ik/iknr",
                  "value": "340285875"
                }
              },
              {
                "url": "https://gematik.de/fhir/erp/StructureDefinition/GEM_ERP_EX_SubstitutionAllowedType",
                "valueBoolean": true
              },
              {
                "url": "https://gematik.de/fhir/erp/StructureDefinition/GEM_ERP_EX_PrescriptionType",
                "valueCoding": {
                  "system": "https://gematik.de/fhir/erp/CodeSystem/GEM_ERP_CS_FlowType",
                  "code": "160",
                  "display": "Muster 16 (Apothekenpflichtige Arzneimittel)"
                }
              }
            ],
            "contentString": "I wish you'd just tell me rather trying to engage my enthusiasm, because I haven't got one."
          }
        ]
      },
      "search": {
        "mode": "match"
      }
    },
    {
      "fullUrl": "https://erp-dev.zentral.erp.splitdns.ti-dienste.de/Communication/01eb9ef2-b78b-b240-397e-6fa1c5b49398",
      "resource": {
        "resourceType": "Communication",
        "id": "01eb9ef2-b78b-b240-397e-6fa1c5b49398",
        "meta": {
          "profile": [
            "https://gematik.de/fhir/erp/StructureDefinition/GEM_ERP_PR_Communication_InfoReq|1.2"
          ]
        },
        "contained": [
          {
            "resourceType": "Medication",
            "id": "d00acab3-de47-45e7-aaef-2e2c312e25d4",
            "meta": {
              "profile": [
                "https://fhir.kbv.de/StructureDefinition/KBV_PR_ERP_Medication_PZN|1.1.0"
              ]
            },
            "extension": [
              {
                "url": "https://fhir.kbv.de/StructureDefinition/KBV_EX_Base_Medication_Type",
                "valueCodeableConcept": {
                  "coding": [
                    {
                      "system": "http://snomed.info/sct",
                      "version": "http://snomed.info/sct/900000000000207008/version/20220331",
                      "code": "763158003",
                      "display": "Medicinal product (product)"
                    }
                  ]
                }
              },
              {
                "url": "https://fhir.kbv.de/StructureDefinition/KBV_EX_ERP_Medication_Category",
                "valueCoding": {
                  "system": "https://fhir.kbv.de/CodeSystem/KBV_CS_ERP_Medication_Category",
                  "code": "00"
                }
              },
              {
                "url": "https://fhir.kbv.de/StructureDefinition/KBV_EX_ERP_Medication_Vaccine",
                "valueBoolean": false
              },
              {
                "url": "http://fhir.de/StructureDefinition/normgroesse",
                "valueCode": "NB"
              }
            ],
            "code": {
              "coding": [
                {
                  "system": "http://fhir.de/CodeSystem/ifa/pzn",
                  "code": "12345678"
                }
              ],
              "text": "Schmerzmittel"
            },
            "form": {
              "coding": [
                {
                  "system": "https://fhir.kbv.de/CodeSystem/KBV_CS_SFHIR_KBV_DARREICHUNGSFORM",
                  "code": "TAB"
                }
              ]
            },
            "amount": {
              "numerator": {
                "extension": [
                  {
                    "url": "https://fhir.kbv.de/StructureDefinition/KBV_EX_ERP_Medication_PackagingSize",
                    "valueString": "1"
                  }
                ],
                "unit": "Stk"
              },
              "denominator": {
                "value": 1
              }
            }
          }
        ],
        "basedOn": [
          {
            "reference": "Task/160.000.032.718.691.30"
          }
        ],
        "status": "unknown",
        "about": [
          {
            "reference": "#d00acab3-de47-45e7-aaef-2e2c312e25d4"
          }
        ],
        "sent": "2023-02-19T22:14:23.592+00:00",
        "recipient": [
          {
            "identifier": {
              "system": "https://gematik.de/fhir/sid/telematik-id",
              "value": "1-2-ARZT-BerndClaudius01"
            }
          }
        ],
        "sender": {
          "identifier": {
            "system": "http://fhir.de/sid/gkv/kvid-10",
            "value": "X110498565"
          }
        },
        "payload": [
          {
            "extension": [
              {
                "url": "https://gematik.de/fhir/erp/StructureDefinition/GEM_ERP_EX_InsuranceProvider",
                "valueIdentifier": {
                  "system": "http://fhir.de/sid/arge-ik/iknr",
                  "value": "447814838"
                }
              },
              {
                "url": "https://gematik.de/fhir/erp/StructureDefinition/GEM_ERP_EX_SubstitutionAllowedType",
                "valueBoolean": true
              },
              {
                "url": "https://gematik.de/fhir/erp/StructureDefinition/GEM_ERP_EX_PrescriptionType",
                "valueCoding": {
                  "system": "https://gematik.de/fhir/erp/CodeSystem/GEM_ERP_CS_FlowType",
                  "code": "160",
                  "display": "Muster 16 (Apothekenpflichtige Arzneimittel)"
                }
              }
            ],
            "contentString": "I think you ought to know I'm feeling very depressed."
          }
        ]
      },
      "search": {
        "mode": "match"
      }
    },
    {
      "fullUrl": "https://erp-dev.zentral.erp.splitdns.ti-dienste.de/Communication/01eb9d71-858a-03a0-7607-c32d7585a561",
      "resource": {
        "resourceType": "Communication",
        "id": "01eb9d71-858a-03a0-7607-c32d7585a561",
        "meta": {
          "profile": [
            "https://gematik.de/fhir/erp/StructureDefinition/GEM_ERP_PR_Communication_InfoReq|1.2"
          ]
        },
        "contained": [
          {
            "resourceType": "Medication",
            "id": "cf85ba12-d832-4891-a345-aaf86de078d0",
            "meta": {
              "profile": [
                "https://fhir.kbv.de/StructureDefinition/KBV_PR_ERP_Medication_PZN|1.1.0"
              ]
            },
            "extension": [
              {
                "url": "https://fhir.kbv.de/StructureDefinition/KBV_EX_Base_Medication_Type",
                "valueCodeableConcept": {
                  "coding": [
                    {
                      "system": "http://snomed.info/sct",
                      "version": "http://snomed.info/sct/900000000000207008/version/20220331",
                      "code": "763158003",
                      "display": "Medicinal product (product)"
                    }
                  ]
                }
              },
              {
                "url": "https://fhir.kbv.de/StructureDefinition/KBV_EX_ERP_Medication_Category",
                "valueCoding": {
                  "system": "https://fhir.kbv.de/CodeSystem/KBV_CS_ERP_Medication_Category",
                  "code": "00"
                }
              },
              {
                "url": "https://fhir.kbv.de/StructureDefinition/KBV_EX_ERP_Medication_Vaccine",
                "valueBoolean": false
              },
              {
                "url": "http://fhir.de/StructureDefinition/normgroesse",
                "valueCode": "NB"
              }
            ],
            "code": {
              "coding": [
                {
                  "system": "http://fhir.de/CodeSystem/ifa/pzn",
                  "code": "12345678"
                }
              ],
              "text": "Schmerzmittel"
            },
            "form": {
              "coding": [
                {
                  "system": "https://fhir.kbv.de/CodeSystem/KBV_CS_SFHIR_KBV_DARREICHUNGSFORM",
                  "code": "TAB"
                }
              ]
            },
            "amount": {
              "numerator": {
                "extension": [
                  {
                    "url": "https://fhir.kbv.de/StructureDefinition/KBV_EX_ERP_Medication_PackagingSize",
                    "valueString": "1"
                  }
                ],
                "unit": "Stk"
              },
              "denominator": {
                "value": 1
              }
            }
          }
        ],
        "basedOn": [
          {
            "reference": "Task/160.000.031.329.081.91"
          }
        ],
        "status": "unknown",
        "about": [
          {
            "reference": "#cf85ba12-d832-4891-a345-aaf86de078d0"
          }
        ],
        "sent": "2023-01-31T18:41:02.212+00:00",
        "recipient": [
          {
            "identifier": {
              "system": "https://gematik.de/fhir/sid/telematik-id",
              "value": "1-2-ARZT-DamianClaudius01"
            }
          }
        ],
        "sender": {
          "identifier": {
            "system": "http://fhir.de/sid/gkv/kvid-10",
            "value": "X110498565"
          }
        },
        "payload": [
          {
            "extension": [
              {
                "url": "https://gematik.de/fhir/erp/StructureDefinition/GEM_ERP_EX_InsuranceProvider",
                "valueIdentifier": {
                  "system": "http://fhir.de/sid/arge-ik/iknr",
                  "value": "746828622"
                }
              },
              {
                "url": "https://gematik.de/fhir/erp/StructureDefinition/GEM_ERP_EX_SubstitutionAllowedType",
                "valueBoolean": true
              },
              {
                "url": "https://gematik.de/fhir/erp/StructureDefinition/GEM_ERP_EX_PrescriptionType",
                "valueCoding": {
                  "system": "https://gematik.de/fhir/erp/CodeSystem/GEM_ERP_CS_FlowType",
                  "code": "160",
                  "display": "Muster 16 (Apothekenpflichtige Arzneimittel)"
                }
              }
            ],
            "contentString": "Pardon me for breathing, which I never do anyway so I don't know why I bother to say it, Oh God, I'm so depressed."
          }
        ]
      },
      "search": {
        "mode": "match"
      }
    },
    {
      "fullUrl": "https://erp-dev.zentral.erp.splitdns.ti-dienste.de/Communication/01eb9df2-9934-ade8-f24d-2c84d05a4c24",
      "resource": {
        "resourceType": "Communication",
        "id": "01eb9df2-9934-ade8-f24d-2c84d05a4c24",
        "meta": {
          "profile": [
            "https://gematik.de/fhir/erp/StructureDefinition/GEM_ERP_PR_Communication_InfoReq|1.2"
          ]
        },
        "contained": [
          {
            "resourceType": "Medication",
            "id": "4e115072-0adf-4736-8f79-ae3d4b10ce04",
            "meta": {
              "profile": [
                "https://fhir.kbv.de/StructureDefinition/KBV_PR_ERP_Medication_PZN|1.1.0"
              ]
            },
            "extension": [
              {
                "url": "https://fhir.kbv.de/StructureDefinition/KBV_EX_Base_Medication_Type",
                "valueCodeableConcept": {
                  "coding": [
                    {
                      "system": "http://snomed.info/sct",
                      "version": "http://snomed.info/sct/900000000000207008/version/20220331",
                      "code": "763158003",
                      "display": "Medicinal product (product)"
                    }
                  ]
                }
              },
              {
                "url": "https://fhir.kbv.de/StructureDefinition/KBV_EX_ERP_Medication_Category",
                "valueCoding": {
                  "system": "https://fhir.kbv.de/CodeSystem/KBV_CS_ERP_Medication_Category",
                  "code": "00"
                }
              },
              {
                "url": "https://fhir.kbv.de/StructureDefinition/KBV_EX_ERP_Medication_Vaccine",
                "valueBoolean": false
              },
              {
                "url": "http://fhir.de/StructureDefinition/normgroesse",
                "valueCode": "NB"
              }
            ],
            "code": {
              "coding": [
                {
                  "system": "http://fhir.de/CodeSystem/ifa/pzn",
                  "code": "12345678"
                }
              ],
              "text": "Schmerzmittel"
            },
            "form": {
              "coding": [
                {
                  "system": "https://fhir.kbv.de/CodeSystem/KBV_CS_SFHIR_KBV_DARREICHUNGSFORM",
                  "code": "TAB"
                }
              ]
            },
            "amount": {
              "numerator": {
                "extension": [
                  {
                    "url": "https://fhir.kbv.de/StructureDefinition/KBV_EX_ERP_Medication_PackagingSize",
                    "valueString": "1"
                  }
                ],
                "unit": "Stk"
              },
              "denominator": {
                "value": 1
              }
            }
          }
        ],
        "basedOn": [
          {
            "reference": "Task/160.000.031.350.750.74"
          }
        ],
        "status": "unknown",
        "about": [
          {
            "reference": "#4e115072-0adf-4736-8f79-ae3d4b10ce04"
          }
        ],
        "sent": "2023-02-07T04:40:42.945+00:00",
        "recipient": [
          {
            "identifier": {
              "system": "https://gematik.de/fhir/sid/telematik-id",
              "value": "1-2-ARZT-DamianClaudius01"
            }
          }
        ],
        "sender": {
          "identifier": {
            "system": "http://fhir.de/sid/gkv/kvid-10",
            "value": "X110498565"
          }
        },
        "payload": [
          {
            "extension": [
              {
                "url": "https://gematik.de/fhir/erp/StructureDefinition/GEM_ERP_EX_InsuranceProvider",
                "valueIdentifier": {
                  "system": "http://fhir.de/sid/arge-ik/iknr",
                  "value": "995403813"
                }
              },
              {
                "url": "https://gematik.de/fhir/erp/StructureDefinition/GEM_ERP_EX_SubstitutionAllowedType",
                "valueBoolean": true
              },
              {
                "url": "https://gematik.de/fhir/erp/StructureDefinition/GEM_ERP_EX_PrescriptionType",
                "valueCoding": {
                  "system": "https://gematik.de/fhir/erp/CodeSystem/GEM_ERP_CS_FlowType",
                  "code": "160",
                  "display": "Muster 16 (Apothekenpflichtige Arzneimittel)"
                }
              }
            ],
            "contentString": "Pardon me for breathing, which I never do anyway so I don't know why I bother to say it, Oh God, I'm so depressed."
          }
        ]
      },
      "search": {
        "mode": "match"
      }
    },
    {
      "fullUrl": "https://erp-dev.zentral.erp.splitdns.ti-dienste.de/Communication/01eb9dcc-0b1a-5380-372f-5e288a9340b0",
      "resource": {
        "resourceType": "Communication",
        "id": "01eb9dcc-0b1a-5380-372f-5e288a9340b0",
        "meta": {
          "profile": [
            "https://gematik.de/fhir/erp/StructureDefinition/GEM_ERP_PR_Communication_InfoReq|1.2"
          ]
        },
        "contained": [
          {
            "resourceType": "Medication",
            "id": "17802af6-be59-4cbf-b756-a4b317de2ffc",
            "meta": {
              "profile": [
                "https://fhir.kbv.de/StructureDefinition/KBV_PR_ERP_Medication_PZN|1.1.0"
              ]
            },
            "extension": [
              {
                "url": "https://fhir.kbv.de/StructureDefinition/KBV_EX_Base_Medication_Type",
                "valueCodeableConcept": {
                  "coding": [
                    {
                      "system": "http://snomed.info/sct",
                      "version": "http://snomed.info/sct/900000000000207008/version/20220331",
                      "code": "763158003",
                      "display": "Medicinal product (product)"
                    }
                  ]
                }
              },
              {
                "url": "https://fhir.kbv.de/StructureDefinition/KBV_EX_ERP_Medication_Category",
                "valueCoding": {
                  "system": "https://fhir.kbv.de/CodeSystem/KBV_CS_ERP_Medication_Category",
                  "code": "00"
                }
              },
              {
                "url": "https://fhir.kbv.de/StructureDefinition/KBV_EX_ERP_Medication_Vaccine",
                "valueBoolean": false
              },
              {
                "url": "http://fhir.de/StructureDefinition/normgroesse",
                "valueCode": "NB"
              }
            ],
            "code": {
              "coding": [
                {
                  "system": "http://fhir.de/CodeSystem/ifa/pzn",
                  "code": "12345678"
                }
              ],
              "text": "Schmerzmittel"
            },
            "form": {
              "coding": [
                {
                  "system": "https://fhir.kbv.de/CodeSystem/KBV_CS_SFHIR_KBV_DARREICHUNGSFORM",
                  "code": "TAB"
                }
              ]
            },
            "amount": {
              "numerator": {
                "extension": [
                  {
                    "url": "https://fhir.kbv.de/StructureDefinition/KBV_EX_ERP_Medication_PackagingSize",
                    "valueString": "1"
                  }
                ],
                "unit": "Stk"
              },
              "denominator": {
                "value": 1
              }
            }
          }
        ],
        "basedOn": [
          {
            "reference": "Task/160.000.031.344.228.46"
          }
        ],
        "status": "unknown",
        "about": [
          {
            "reference": "#17802af6-be59-4cbf-b756-a4b317de2ffc"
          }
        ],
        "sent": "2023-02-05T06:40:50.096+00:00",
        "recipient": [
          {
            "identifier": {
              "system": "https://gematik.de/fhir/sid/telematik-id",
              "value": "1-2-ARZT-DamianClaudius01"
            }
          }
        ],
        "sender": {
          "identifier": {
            "system": "http://fhir.de/sid/gkv/kvid-10",
            "value": "X110498565"
          }
        },
        "payload": [
          {
            "extension": [
              {
                "url": "https://gematik.de/fhir/erp/StructureDefinition/GEM_ERP_EX_InsuranceProvider",
                "valueIdentifier": {
                  "system": "http://fhir.de/sid/arge-ik/iknr",
                  "value": "821782858"
                }
              },
              {
                "url": "https://gematik.de/fhir/erp/StructureDefinition/GEM_ERP_EX_SubstitutionAllowedType",
                "valueBoolean": true
              },
              {
                "url": "https://gematik.de/fhir/erp/StructureDefinition/GEM_ERP_EX_PrescriptionType",
                "valueCoding": {
                  "system": "https://gematik.de/fhir/erp/CodeSystem/GEM_ERP_CS_FlowType",
                  "code": "160",
                  "display": "Muster 16 (Apothekenpflichtige Arzneimittel)"
                }
              }
            ],
            "contentString": "I think you ought to know I'm feeling very depressed."
          }
        ]
      },
      "search": {
        "mode": "match"
      }
    },
    {
      "fullUrl": "https://erp-dev.zentral.erp.splitdns.ti-dienste.de/Communication/01eb9fd0-3af1-fee0-a956-ae8500f7f8ca",
      "resource": {
        "resourceType": "Communication",
        "id": "01eb9fd0-3af1-fee0-a956-ae8500f7f8ca",
        "meta": {
          "profile": [
            "https://gematik.de/fhir/erp/StructureDefinition/GEM_ERP_PR_Communication_InfoReq|1.2"
          ]
        },
        "contained": [
          {
            "resourceType": "Medication",
            "id": "2191b80a-0726-41ce-91df-91889402fa3b",
            "meta": {
              "profile": [
                "https://fhir.kbv.de/StructureDefinition/KBV_PR_ERP_Medication_PZN|1.1.0"
              ]
            },
            "extension": [
              {
                "url": "https://fhir.kbv.de/StructureDefinition/KBV_EX_Base_Medication_Type",
                "valueCodeableConcept": {
                  "coding": [
                    {
                      "system": "http://snomed.info/sct",
                      "version": "http://snomed.info/sct/900000000000207008/version/20220331",
                      "code": "763158003",
                      "display": "Medicinal product (product)"
                    }
                  ]
                }
              },
              {
                "url": "https://fhir.kbv.de/StructureDefinition/KBV_EX_ERP_Medication_Category",
                "valueCoding": {
                  "system": "https://fhir.kbv.de/CodeSystem/KBV_CS_ERP_Medication_Category",
                  "code": "00"
                }
              },
              {
                "url": "https://fhir.kbv.de/StructureDefinition/KBV_EX_ERP_Medication_Vaccine",
                "valueBoolean": false
              },
              {
                "url": "http://fhir.de/StructureDefinition/normgroesse",
                "valueCode": "NB"
              }
            ],
            "code": {
              "coding": [
                {
                  "system": "http://fhir.de/CodeSystem/ifa/pzn",
                  "code": "12345678"
                }
              ],
              "text": "Schmerzmittel"
            },
            "form": {
              "coding": [
                {
                  "system": "https://fhir.kbv.de/CodeSystem/KBV_CS_SFHIR_KBV_DARREICHUNGSFORM",
                  "code": "TAB"
                }
              ]
            },
            "amount": {
              "numerator": {
                "extension": [
                  {
                    "url": "https://fhir.kbv.de/StructureDefinition/KBV_EX_ERP_Medication_PackagingSize",
                    "valueString": "1"
                  }
                ],
                "unit": "Stk"
              },
              "denominator": {
                "value": 1
              }
            }
          }
        ],
        "basedOn": [
          {
            "reference": "Task/160.000.032.737.809.03"
          }
        ],
        "status": "unknown",
        "about": [
          {
            "reference": "#2191b80a-0726-41ce-91df-91889402fa3b"
          }
        ],
        "sent": "2023-03-02T22:30:55.884+00:00",
        "recipient": [
          {
            "identifier": {
              "system": "https://gematik.de/fhir/sid/telematik-id",
              "value": "1-2-ARZT-BerndClaudius01"
            }
          }
        ],
        "sender": {
          "identifier": {
            "system": "http://fhir.de/sid/gkv/kvid-10",
            "value": "X110498565"
          }
        },
        "payload": [
          {
            "extension": [
              {
                "url": "https://gematik.de/fhir/erp/StructureDefinition/GEM_ERP_EX_InsuranceProvider",
                "valueIdentifier": {
                  "system": "http://fhir.de/sid/arge-ik/iknr",
                  "value": "930082897"
                }
              },
              {
                "url": "https://gematik.de/fhir/erp/StructureDefinition/GEM_ERP_EX_SubstitutionAllowedType",
                "valueBoolean": true
              },
              {
                "url": "https://gematik.de/fhir/erp/StructureDefinition/GEM_ERP_EX_PrescriptionType",
                "valueCoding": {
                  "system": "https://gematik.de/fhir/erp/CodeSystem/GEM_ERP_CS_FlowType",
                  "code": "160",
                  "display": "Muster 16 (Apothekenpflichtige Arzneimittel)"
                }
              }
            ],
            "contentString": "And then of course I've got this terrible pain in all the diodes down my left side."
          }
        ]
      },
      "search": {
        "mode": "match"
      }
    },
    {
      "fullUrl": "https://erp-dev.zentral.erp.splitdns.ti-dienste.de/Communication/01eb9bea-262d-32e8-cfea-6bf4fadbd551",
      "resource": {
        "resourceType": "Communication",
        "id": "01eb9bea-262d-32e8-cfea-6bf4fadbd551",
        "meta": {
          "profile": [
            "https://gematik.de/fhir/StructureDefinition/ErxCommunicationInfoReq"
          ]
        },
        "contained": [
          {
            "resourceType": "Medication",
            "id": "01b212bf-5add-4f66-bc9d-ede9c021b772",
            "meta": {
              "profile": [
                "https://fhir.kbv.de/StructureDefinition/KBV_PR_ERP_Medication_PZN|1.0.2"
              ]
            },
            "extension": [
              {
                "url": "https://fhir.kbv.de/StructureDefinition/KBV_EX_ERP_Medication_Category",
                "valueCoding": {
                  "system": "https://fhir.kbv.de/CodeSystem/KBV_CS_ERP_Medication_Category",
                  "code": "00"
                }
              },
              {
                "url": "https://fhir.kbv.de/StructureDefinition/KBV_EX_ERP_Medication_Vaccine",
                "valueBoolean": false
              },
              {
                "url": "http://fhir.de/StructureDefinition/normgroesse",
                "valueCode": "NB"
              }
            ],
            "code": {
              "coding": [
                {
                  "system": "http://fhir.de/CodeSystem/ifa/pzn",
                  "code": "12345678"
                }
              ],
              "text": "Schmerzmittel"
            },
            "form": {
              "coding": [
                {
                  "system": "https://fhir.kbv.de/CodeSystem/KBV_CS_SFHIR_KBV_DARREICHUNGSFORM",
                  "code": "TAB"
                }
              ]
            },
            "amount": {
              "numerator": {
                "value": 1,
                "unit": "Stk"
              },
              "denominator": {
                "value": 1
              }
            }
          }
        ],
        "basedOn": [
          {
            "reference": "Task/160.000.031.318.909.52"
          }
        ],
        "status": "unknown",
        "about": [
          {
            "reference": "#01b212bf-5add-4f66-bc9d-ede9c021b772"
          }
        ],
        "sent": "2023-01-12T07:45:30.081+00:00",
        "recipient": [
          {
            "identifier": {
              "system": "https://gematik.de/fhir/NamingSystem/TelematikID",
              "value": "1-2-ARZT-DamianClaudius01"
            }
          }
        ],
        "sender": {
          "identifier": {
            "system": "http://fhir.de/NamingSystem/gkv/kvid-10",
            "value": "X110498565"
          }
        },
        "payload": [
          {
            "extension": [
              {
                "url": "https://gematik.de/fhir/StructureDefinition/InsuranceProvider",
                "valueIdentifier": {
                  "system": "http://fhir.de/NamingSystem/arge-ik/iknr",
                  "value": "225131539"
                }
              },
              {
                "url": "https://gematik.de/fhir/StructureDefinition/SubstitutionAllowedType",
                "valueBoolean": true
              },
              {
                "url": "https://gematik.de/fhir/StructureDefinition/PrescriptionType",
                "valueCoding": {
                  "system": "https://gematik.de/fhir/CodeSystem/Flowtype",
                  "code": "160",
                  "display": "Muster 16 (Apothekenpflichtige Arzneimittel)"
                }
              }
            ],
            "contentString": "I wish you'd just tell me rather trying to engage my enthusiasm, because I haven't got one."
          }
        ]
      },
      "search": {
        "mode": "match"
      }
    },
    {
      "fullUrl": "https://erp-dev.zentral.erp.splitdns.ti-dienste.de/Communication/01eba308-c37b-3e80-cf02-48e602e90fd4",
      "resource": {
        "resourceType": "Communication",
        "id": "01eba308-c37b-3e80-cf02-48e602e90fd4",
        "meta": {
          "profile": [
            "https://gematik.de/fhir/erp/StructureDefinition/GEM_ERP_PR_Communication_InfoReq|1.2"
          ]
        },
        "contained": [
          {
            "resourceType": "Medication",
            "id": "7b6019c6-65db-4c4e-9cda-1dfe0262e748",
            "meta": {
              "profile": [
                "https://fhir.kbv.de/StructureDefinition/KBV_PR_ERP_Medication_PZN|1.1.0"
              ]
            },
            "extension": [
              {
                "url": "https://fhir.kbv.de/StructureDefinition/KBV_EX_Base_Medication_Type",
                "valueCodeableConcept": {
                  "coding": [
                    {
                      "system": "http://snomed.info/sct",
                      "version": "http://snomed.info/sct/900000000000207008/version/20220331",
                      "code": "763158003",
                      "display": "Medicinal product (product)"
                    }
                  ]
                }
              },
              {
                "url": "https://fhir.kbv.de/StructureDefinition/KBV_EX_ERP_Medication_Category",
                "valueCoding": {
                  "system": "https://fhir.kbv.de/CodeSystem/KBV_CS_ERP_Medication_Category",
                  "code": "00"
                }
              },
              {
                "url": "https://fhir.kbv.de/StructureDefinition/KBV_EX_ERP_Medication_Vaccine",
                "valueBoolean": false
              },
              {
                "url": "http://fhir.de/StructureDefinition/normgroesse",
                "valueCode": "NB"
              }
            ],
            "code": {
              "coding": [
                {
                  "system": "http://fhir.de/CodeSystem/ifa/pzn",
                  "code": "12345678"
                }
              ],
              "text": "Schmerzmittel"
            },
            "form": {
              "coding": [
                {
                  "system": "https://fhir.kbv.de/CodeSystem/KBV_CS_SFHIR_KBV_DARREICHUNGSFORM",
                  "code": "TAB"
                }
              ]
            },
            "amount": {
              "numerator": {
                "extension": [
                  {
                    "url": "https://fhir.kbv.de/StructureDefinition/KBV_EX_ERP_Medication_PackagingSize",
                    "valueString": "1"
                  }
                ],
                "unit": "Stk"
              },
              "denominator": {
                "value": 1
              }
            }
          }
        ],
        "basedOn": [
          {
            "reference": "Task/160.000.036.968.069.24"
          }
        ],
        "status": "unknown",
        "about": [
          {
            "reference": "#7b6019c6-65db-4c4e-9cda-1dfe0262e748"
          }
        ],
        "sent": "2023-04-12T22:13:19.632+00:00",
        "recipient": [
          {
            "identifier": {
              "system": "https://gematik.de/fhir/sid/telematik-id",
              "value": "1-2-ARZT-BerndClaudius01"
            }
          }
        ],
        "sender": {
          "identifier": {
            "system": "http://fhir.de/sid/gkv/kvid-10",
            "value": "X110498565"
          }
        },
        "payload": [
          {
            "extension": [
              {
                "url": "https://gematik.de/fhir/erp/StructureDefinition/GEM_ERP_EX_InsuranceProvider",
                "valueIdentifier": {
                  "system": "http://fhir.de/sid/arge-ik/iknr",
                  "value": "273829640"
                }
              },
              {
                "url": "https://gematik.de/fhir/erp/StructureDefinition/GEM_ERP_EX_SubstitutionAllowedType",
                "valueBoolean": true
              },
              {
                "url": "https://gematik.de/fhir/erp/StructureDefinition/GEM_ERP_EX_PrescriptionType",
                "valueCoding": {
                  "system": "https://gematik.de/fhir/erp/CodeSystem/GEM_ERP_CS_FlowType",
                  "code": "160",
                  "display": "Muster 16 (Apothekenpflichtige Arzneimittel)"
                }
              }
            ],
            "contentString": "You think you've got problems? What are you supposed to do if you are a manically depressed robot? No, don't try to answer that. I'm fifty thousand times more intelligent than you and even I don't know the answer. It gives me a headache just trying to think down to your level."
          }
        ]
      },
      "search": {
        "mode": "match"
      }
    },
    {
      "fullUrl": "https://erp-dev.zentral.erp.splitdns.ti-dienste.de/Communication/01eb9bdb-4ed5-5900-4fe4-fd6da3a89813",
      "resource": {
        "resourceType": "Communication",
        "id": "01eb9bdb-4ed5-5900-4fe4-fd6da3a89813",
        "meta": {
          "profile": [
            "https://gematik.de/fhir/StructureDefinition/ErxCommunicationInfoReq"
          ]
        },
        "contained": [
          {
            "resourceType": "Medication",
            "id": "451c12bc-145a-4578-b256-f2792401c9d7",
            "meta": {
              "profile": [
                "https://fhir.kbv.de/StructureDefinition/KBV_PR_ERP_Medication_PZN|1.0.2"
              ]
            },
            "extension": [
              {
                "url": "https://fhir.kbv.de/StructureDefinition/KBV_EX_ERP_Medication_Category",
                "valueCoding": {
                  "system": "https://fhir.kbv.de/CodeSystem/KBV_CS_ERP_Medication_Category",
                  "code": "00"
                }
              },
              {
                "url": "https://fhir.kbv.de/StructureDefinition/KBV_EX_ERP_Medication_Vaccine",
                "valueBoolean": false
              },
              {
                "url": "http://fhir.de/StructureDefinition/normgroesse",
                "valueCode": "NB"
              }
            ],
            "code": {
              "coding": [
                {
                  "system": "http://fhir.de/CodeSystem/ifa/pzn",
                  "code": "12345678"
                }
              ],
              "text": "Schmerzmittel"
            },
            "form": {
              "coding": [
                {
                  "system": "https://fhir.kbv.de/CodeSystem/KBV_CS_SFHIR_KBV_DARREICHUNGSFORM",
                  "code": "TAB"
                }
              ]
            },
            "amount": {
              "numerator": {
                "value": 1,
                "unit": "Stk"
              },
              "denominator": {
                "value": 1
              }
            }
          }
        ],
        "basedOn": [
          {
            "reference": "Task/160.000.031.318.385.72"
          }
        ],
        "status": "unknown",
        "about": [
          {
            "reference": "#451c12bc-145a-4578-b256-f2792401c9d7"
          }
        ],
        "sent": "2023-01-11T14:03:07.680+00:00",
        "recipient": [
          {
            "identifier": {
              "system": "https://gematik.de/fhir/NamingSystem/TelematikID",
              "value": "1-2-ARZT-DamianClaudius01"
            }
          }
        ],
        "sender": {
          "identifier": {
            "system": "http://fhir.de/NamingSystem/gkv/kvid-10",
            "value": "X110498565"
          }
        },
        "payload": [
          {
            "extension": [
              {
                "url": "https://gematik.de/fhir/StructureDefinition/InsuranceProvider",
                "valueIdentifier": {
                  "system": "http://fhir.de/NamingSystem/arge-ik/iknr",
                  "value": "449133802"
                }
              },
              {
                "url": "https://gematik.de/fhir/StructureDefinition/SubstitutionAllowedType",
                "valueBoolean": true
              },
              {
                "url": "https://gematik.de/fhir/StructureDefinition/PrescriptionType",
                "valueCoding": {
                  "system": "https://gematik.de/fhir/CodeSystem/Flowtype",
                  "code": "160",
                  "display": "Muster 16 (Apothekenpflichtige Arzneimittel)"
                }
              }
            ],
            "contentString": "There's only one life-form as intelligent as me within thirty parsecs of here and that's me."
          }
        ]
      },
      "search": {
        "mode": "match"
      }
    },
    {
      "fullUrl": "https://erp-dev.zentral.erp.splitdns.ti-dienste.de/Communication/01eb9d74-daba-1358-8938-3d8d047b1acb",
      "resource": {
        "resourceType": "Communication",
        "id": "01eb9d74-daba-1358-8938-3d8d047b1acb",
        "meta": {
          "profile": [
            "https://gematik.de/fhir/erp/StructureDefinition/GEM_ERP_PR_Communication_InfoReq|1.2"
          ]
        },
        "contained": [
          {
            "resourceType": "Medication",
            "id": "3836a78a-5e13-48dc-88ae-24376fb14092",
            "meta": {
              "profile": [
                "https://fhir.kbv.de/StructureDefinition/KBV_PR_ERP_Medication_PZN|1.1.0"
              ]
            },
            "extension": [
              {
                "url": "https://fhir.kbv.de/StructureDefinition/KBV_EX_Base_Medication_Type",
                "valueCodeableConcept": {
                  "coding": [
                    {
                      "system": "http://snomed.info/sct",
                      "version": "http://snomed.info/sct/900000000000207008/version/20220331",
                      "code": "763158003",
                      "display": "Medicinal product (product)"
                    }
                  ]
                }
              },
              {
                "url": "https://fhir.kbv.de/StructureDefinition/KBV_EX_ERP_Medication_Category",
                "valueCoding": {
                  "system": "https://fhir.kbv.de/CodeSystem/KBV_CS_ERP_Medication_Category",
                  "code": "00"
                }
              },
              {
                "url": "https://fhir.kbv.de/StructureDefinition/KBV_EX_ERP_Medication_Vaccine",
                "valueBoolean": false
              },
              {
                "url": "http://fhir.de/StructureDefinition/normgroesse",
                "valueCode": "NB"
              }
            ],
            "code": {
              "coding": [
                {
                  "system": "http://fhir.de/CodeSystem/ifa/pzn",
                  "code": "12345678"
                }
              ],
              "text": "Schmerzmittel"
            },
            "form": {
              "coding": [
                {
                  "system": "https://fhir.kbv.de/CodeSystem/KBV_CS_SFHIR_KBV_DARREICHUNGSFORM",
                  "code": "TAB"
                }
              ]
            },
            "amount": {
              "numerator": {
                "extension": [
                  {
                    "url": "https://fhir.kbv.de/StructureDefinition/KBV_EX_ERP_Medication_PackagingSize",
                    "valueString": "1"
                  }
                ],
                "unit": "Stk"
              },
              "denominator": {
                "value": 1
              }
            }
          }
        ],
        "basedOn": [
          {
            "reference": "Task/160.000.031.329.866.64"
          }
        ],
        "status": "unknown",
        "about": [
          {
            "reference": "#3836a78a-5e13-48dc-88ae-24376fb14092"
          }
        ],
        "sent": "2023-01-31T22:39:36.327+00:00",
        "recipient": [
          {
            "identifier": {
              "system": "https://gematik.de/fhir/sid/telematik-id",
              "value": "1-2-ARZT-DamianClaudius01"
            }
          }
        ],
        "sender": {
          "identifier": {
            "system": "http://fhir.de/sid/gkv/kvid-10",
            "value": "X110498565"
          }
        },
        "payload": [
          {
            "extension": [
              {
                "url": "https://gematik.de/fhir/erp/StructureDefinition/GEM_ERP_EX_InsuranceProvider",
                "valueIdentifier": {
                  "system": "http://fhir.de/sid/arge-ik/iknr",
                  "value": "993722371"
                }
              },
              {
                "url": "https://gematik.de/fhir/erp/StructureDefinition/GEM_ERP_EX_SubstitutionAllowedType",
                "valueBoolean": true
              },
              {
                "url": "https://gematik.de/fhir/erp/StructureDefinition/GEM_ERP_EX_PrescriptionType",
                "valueCoding": {
                  "system": "https://gematik.de/fhir/erp/CodeSystem/GEM_ERP_CS_FlowType",
                  "code": "160",
                  "display": "Muster 16 (Apothekenpflichtige Arzneimittel)"
                }
              }
            ],
            "contentString": "Life? Don't talk to me about life."
          }
        ]
      },
      "search": {
        "mode": "match"
      }
    },
    {
      "fullUrl": "https://erp-dev.zentral.erp.splitdns.ti-dienste.de/Communication/01eb9fd7-70a7-db70-5790-90cd6841b234",
      "resource": {
        "resourceType": "Communication",
        "id": "01eb9fd7-70a7-db70-5790-90cd6841b234",
        "meta": {
          "profile": [
            "https://gematik.de/fhir/erp/StructureDefinition/GEM_ERP_PR_Communication_InfoReq|1.2"
          ]
        },
        "contained": [
          {
            "resourceType": "Medication",
            "id": "78e14198-8497-4805-b60c-858c90dcea2f",
            "meta": {
              "profile": [
                "https://fhir.kbv.de/StructureDefinition/KBV_PR_ERP_Medication_PZN|1.1.0"
              ]
            },
            "extension": [
              {
                "url": "https://fhir.kbv.de/StructureDefinition/KBV_EX_Base_Medication_Type",
                "valueCodeableConcept": {
                  "coding": [
                    {
                      "system": "http://snomed.info/sct",
                      "version": "http://snomed.info/sct/900000000000207008/version/20220331",
                      "code": "763158003",
                      "display": "Medicinal product (product)"
                    }
                  ]
                }
              },
              {
                "url": "https://fhir.kbv.de/StructureDefinition/KBV_EX_ERP_Medication_Category",
                "valueCoding": {
                  "system": "https://fhir.kbv.de/CodeSystem/KBV_CS_ERP_Medication_Category",
                  "code": "00"
                }
              },
              {
                "url": "https://fhir.kbv.de/StructureDefinition/KBV_EX_ERP_Medication_Vaccine",
                "valueBoolean": false
              },
              {
                "url": "http://fhir.de/StructureDefinition/normgroesse",
                "valueCode": "NB"
              }
            ],
            "code": {
              "coding": [
                {
                  "system": "http://fhir.de/CodeSystem/ifa/pzn",
                  "code": "12345678"
                }
              ],
              "text": "Schmerzmittel"
            },
            "form": {
              "coding": [
                {
                  "system": "https://fhir.kbv.de/CodeSystem/KBV_CS_SFHIR_KBV_DARREICHUNGSFORM",
                  "code": "TAB"
                }
              ]
            },
            "amount": {
              "numerator": {
                "extension": [
                  {
                    "url": "https://fhir.kbv.de/StructureDefinition/KBV_EX_ERP_Medication_PackagingSize",
                    "valueString": "1"
                  }
                ],
                "unit": "Stk"
              },
              "denominator": {
                "value": 1
              }
            }
          }
        ],
        "basedOn": [
          {
            "reference": "Task/160.000.032.740.931.46"
          }
        ],
        "status": "unknown",
        "about": [
          {
            "reference": "#78e14198-8497-4805-b60c-858c90dcea2f"
          }
        ],
        "sent": "2023-03-03T07:07:01.766+00:00",
        "recipient": [
          {
            "identifier": {
              "system": "https://gematik.de/fhir/sid/telematik-id",
              "value": "1-2-ARZT-BerndClaudius01"
            }
          }
        ],
        "sender": {
          "identifier": {
            "system": "http://fhir.de/sid/gkv/kvid-10",
            "value": "X110498565"
          }
        },
        "payload": [
          {
            "extension": [
              {
                "url": "https://gematik.de/fhir/erp/StructureDefinition/GEM_ERP_EX_InsuranceProvider",
                "valueIdentifier": {
                  "system": "http://fhir.de/sid/arge-ik/iknr",
                  "value": "462296812"
                }
              },
              {
                "url": "https://gematik.de/fhir/erp/StructureDefinition/GEM_ERP_EX_SubstitutionAllowedType",
                "valueBoolean": true
              },
              {
                "url": "https://gematik.de/fhir/erp/StructureDefinition/GEM_ERP_EX_PrescriptionType",
                "valueCoding": {
                  "system": "https://gematik.de/fhir/erp/CodeSystem/GEM_ERP_CS_FlowType",
                  "code": "160",
                  "display": "Muster 16 (Apothekenpflichtige Arzneimittel)"
                }
              }
            ],
            "contentString": "And then of course I've got this terrible pain in all the diodes down my left side."
          }
        ]
      },
      "search": {
        "mode": "match"
      }
    },
    {
      "fullUrl": "https://erp-dev.zentral.erp.splitdns.ti-dienste.de/Communication/01eba1e5-adb7-0e90-f371-31b01aef2e07",
      "resource": {
        "resourceType": "Communication",
        "id": "01eba1e5-adb7-0e90-f371-31b01aef2e07",
        "meta": {
          "profile": [
            "https://gematik.de/fhir/erp/StructureDefinition/GEM_ERP_PR_Communication_InfoReq|1.2"
          ]
        },
        "contained": [
          {
            "resourceType": "Medication",
            "id": "0f92cb03-97ea-45c6-8f38-d4a17346d671",
            "meta": {
              "profile": [
                "https://fhir.kbv.de/StructureDefinition/KBV_PR_ERP_Medication_PZN|1.1.0"
              ]
            },
            "extension": [
              {
                "url": "https://fhir.kbv.de/StructureDefinition/KBV_EX_Base_Medication_Type",
                "valueCodeableConcept": {
                  "coding": [
                    {
                      "system": "http://snomed.info/sct",
                      "version": "http://snomed.info/sct/900000000000207008/version/20220331",
                      "code": "763158003",
                      "display": "Medicinal product (product)"
                    }
                  ]
                }
              },
              {
                "url": "https://fhir.kbv.de/StructureDefinition/KBV_EX_ERP_Medication_Category",
                "valueCoding": {
                  "system": "https://fhir.kbv.de/CodeSystem/KBV_CS_ERP_Medication_Category",
                  "code": "00"
                }
              },
              {
                "url": "https://fhir.kbv.de/StructureDefinition/KBV_EX_ERP_Medication_Vaccine",
                "valueBoolean": false
              },
              {
                "url": "http://fhir.de/StructureDefinition/normgroesse",
                "valueCode": "NB"
              }
            ],
            "code": {
              "coding": [
                {
                  "system": "http://fhir.de/CodeSystem/ifa/pzn",
                  "code": "12345678"
                }
              ],
              "text": "Schmerzmittel"
            },
            "form": {
              "coding": [
                {
                  "system": "https://fhir.kbv.de/CodeSystem/KBV_CS_SFHIR_KBV_DARREICHUNGSFORM",
                  "code": "TAB"
                }
              ]
            },
            "amount": {
              "numerator": {
                "extension": [
                  {
                    "url": "https://fhir.kbv.de/StructureDefinition/KBV_EX_ERP_Medication_PackagingSize",
                    "valueString": "1"
                  }
                ],
                "unit": "Stk"
              },
              "denominator": {
                "value": 1
              }
            }
          }
        ],
        "basedOn": [
          {
            "reference": "Task/160.000.036.963.449.13"
          }
        ],
        "status": "unknown",
        "about": [
          {
            "reference": "#0f92cb03-97ea-45c6-8f38-d4a17346d671"
          }
        ],
        "sent": "2023-03-29T10:56:38.970+00:00",
        "recipient": [
          {
            "identifier": {
              "system": "https://gematik.de/fhir/sid/telematik-id",
              "value": "1-2-ARZT-BerndClaudius01"
            }
          }
        ],
        "sender": {
          "identifier": {
            "system": "http://fhir.de/sid/gkv/kvid-10",
            "value": "X110498565"
          }
        },
        "payload": [
          {
            "extension": [
              {
                "url": "https://gematik.de/fhir/erp/StructureDefinition/GEM_ERP_EX_InsuranceProvider",
                "valueIdentifier": {
                  "system": "http://fhir.de/sid/arge-ik/iknr",
                  "value": "029628365"
                }
              },
              {
                "url": "https://gematik.de/fhir/erp/StructureDefinition/GEM_ERP_EX_SubstitutionAllowedType",
                "valueBoolean": true
              },
              {
                "url": "https://gematik.de/fhir/erp/StructureDefinition/GEM_ERP_EX_PrescriptionType",
                "valueCoding": {
                  "system": "https://gematik.de/fhir/erp/CodeSystem/GEM_ERP_CS_FlowType",
                  "code": "160",
                  "display": "Muster 16 (Apothekenpflichtige Arzneimittel)"
                }
              }
            ],
            "contentString": "There's only one life-form as intelligent as me within thirty parsecs of here and that's me."
          }
        ]
      },
      "search": {
        "mode": "match"
      }
    },
    {
      "fullUrl": "https://erp-dev.zentral.erp.splitdns.ti-dienste.de/Communication/01eb9f93-a102-75d0-cd4e-63253fa64b35",
      "resource": {
        "resourceType": "Communication",
        "id": "01eb9f93-a102-75d0-cd4e-63253fa64b35",
        "meta": {
          "profile": [
            "https://gematik.de/fhir/erp/StructureDefinition/GEM_ERP_PR_Communication_InfoReq|1.2"
          ]
        },
        "contained": [
          {
            "resourceType": "Medication",
            "id": "c5de3947-3414-44be-be68-282a48867388",
            "meta": {
              "profile": [
                "https://fhir.kbv.de/StructureDefinition/KBV_PR_ERP_Medication_PZN|1.1.0"
              ]
            },
            "extension": [
              {
                "url": "https://fhir.kbv.de/StructureDefinition/KBV_EX_Base_Medication_Type",
                "valueCodeableConcept": {
                  "coding": [
                    {
                      "system": "http://snomed.info/sct",
                      "version": "http://snomed.info/sct/900000000000207008/version/20220331",
                      "code": "763158003",
                      "display": "Medicinal product (product)"
                    }
                  ]
                }
              },
              {
                "url": "https://fhir.kbv.de/StructureDefinition/KBV_EX_ERP_Medication_Category",
                "valueCoding": {
                  "system": "https://fhir.kbv.de/CodeSystem/KBV_CS_ERP_Medication_Category",
                  "code": "00"
                }
              },
              {
                "url": "https://fhir.kbv.de/StructureDefinition/KBV_EX_ERP_Medication_Vaccine",
                "valueBoolean": false
              },
              {
                "url": "http://fhir.de/StructureDefinition/normgroesse",
                "valueCode": "NB"
              }
            ],
            "code": {
              "coding": [
                {
                  "system": "http://fhir.de/CodeSystem/ifa/pzn",
                  "code": "12345678"
                }
              ],
              "text": "Schmerzmittel"
            },
            "form": {
              "coding": [
                {
                  "system": "https://fhir.kbv.de/CodeSystem/KBV_CS_SFHIR_KBV_DARREICHUNGSFORM",
                  "code": "TAB"
                }
              ]
            },
            "amount": {
              "numerator": {
                "extension": [
                  {
                    "url": "https://fhir.kbv.de/StructureDefinition/KBV_EX_ERP_Medication_PackagingSize",
                    "valueString": "1"
                  }
                ],
                "unit": "Stk"
              },
              "denominator": {
                "value": 1
              }
            }
          }
        ],
        "basedOn": [
          {
            "reference": "Task/160.000.032.721.455.80"
          }
        ],
        "status": "unknown",
        "about": [
          {
            "reference": "#c5de3947-3414-44be-be68-282a48867388"
          }
        ],
        "sent": "2023-02-27T22:12:55.234+00:00",
        "recipient": [
          {
            "identifier": {
              "system": "https://gematik.de/fhir/sid/telematik-id",
              "value": "1-2-ARZT-BerndClaudius01"
            }
          }
        ],
        "sender": {
          "identifier": {
            "system": "http://fhir.de/sid/gkv/kvid-10",
            "value": "X110498565"
          }
        },
        "payload": [
          {
            "extension": [
              {
                "url": "https://gematik.de/fhir/erp/StructureDefinition/GEM_ERP_EX_InsuranceProvider",
                "valueIdentifier": {
                  "system": "http://fhir.de/sid/arge-ik/iknr",
                  "value": "375795894"
                }
              },
              {
                "url": "https://gematik.de/fhir/erp/StructureDefinition/GEM_ERP_EX_SubstitutionAllowedType",
                "valueBoolean": true
              },
              {
                "url": "https://gematik.de/fhir/erp/StructureDefinition/GEM_ERP_EX_PrescriptionType",
                "valueCoding": {
                  "system": "https://gematik.de/fhir/erp/CodeSystem/GEM_ERP_CS_FlowType",
                  "code": "160",
                  "display": "Muster 16 (Apothekenpflichtige Arzneimittel)"
                }
              }
            ],
            "contentString": "You think you've got problems? What are you supposed to do if you are a manically depressed robot? No, don't try to answer that. I'm fifty thousand times more intelligent than you and even I don't know the answer. It gives me a headache just trying to think down to your level."
          }
        ]
      },
      "search": {
        "mode": "match"
      }
    },
    {
      "fullUrl": "https://erp-dev.zentral.erp.splitdns.ti-dienste.de/Communication/01eb9fc4-184e-57f0-ed08-c996f1615c68",
      "resource": {
        "resourceType": "Communication",
        "id": "01eb9fc4-184e-57f0-ed08-c996f1615c68",
        "meta": {
          "profile": [
            "https://gematik.de/fhir/erp/StructureDefinition/GEM_ERP_PR_Communication_InfoReq|1.2"
          ]
        },
        "contained": [
          {
            "resourceType": "Medication",
            "id": "cdca6f0b-a6f1-405c-a696-6c8283215f63",
            "meta": {
              "profile": [
                "https://fhir.kbv.de/StructureDefinition/KBV_PR_ERP_Medication_PZN|1.1.0"
              ]
            },
            "extension": [
              {
                "url": "https://fhir.kbv.de/StructureDefinition/KBV_EX_Base_Medication_Type",
                "valueCodeableConcept": {
                  "coding": [
                    {
                      "system": "http://snomed.info/sct",
                      "version": "http://snomed.info/sct/900000000000207008/version/20220331",
                      "code": "763158003",
                      "display": "Medicinal product (product)"
                    }
                  ]
                }
              },
              {
                "url": "https://fhir.kbv.de/StructureDefinition/KBV_EX_ERP_Medication_Category",
                "valueCoding": {
                  "system": "https://fhir.kbv.de/CodeSystem/KBV_CS_ERP_Medication_Category",
                  "code": "00"
                }
              },
              {
                "url": "https://fhir.kbv.de/StructureDefinition/KBV_EX_ERP_Medication_Vaccine",
                "valueBoolean": false
              },
              {
                "url": "http://fhir.de/StructureDefinition/normgroesse",
                "valueCode": "NB"
              }
            ],
            "code": {
              "coding": [
                {
                  "system": "http://fhir.de/CodeSystem/ifa/pzn",
                  "code": "12345678"
                }
              ],
              "text": "Schmerzmittel"
            },
            "form": {
              "coding": [
                {
                  "system": "https://fhir.kbv.de/CodeSystem/KBV_CS_SFHIR_KBV_DARREICHUNGSFORM",
                  "code": "TAB"
                }
              ]
            },
            "amount": {
              "numerator": {
                "extension": [
                  {
                    "url": "https://fhir.kbv.de/StructureDefinition/KBV_EX_ERP_Medication_PackagingSize",
                    "valueString": "1"
                  }
                ],
                "unit": "Stk"
              },
              "denominator": {
                "value": 1
              }
            }
          }
        ],
        "basedOn": [
          {
            "reference": "Task/160.000.032.731.215.94"
          }
        ],
        "status": "unknown",
        "about": [
          {
            "reference": "#cdca6f0b-a6f1-405c-a696-6c8283215f63"
          }
        ],
        "sent": "2023-03-02T08:02:15.126+00:00",
        "recipient": [
          {
            "identifier": {
              "system": "https://gematik.de/fhir/sid/telematik-id",
              "value": "1-2-ARZT-BerndClaudius01"
            }
          }
        ],
        "sender": {
          "identifier": {
            "system": "http://fhir.de/sid/gkv/kvid-10",
            "value": "X110498565"
          }
        },
        "payload": [
          {
            "extension": [
              {
                "url": "https://gematik.de/fhir/erp/StructureDefinition/GEM_ERP_EX_InsuranceProvider",
                "valueIdentifier": {
                  "system": "http://fhir.de/sid/arge-ik/iknr",
                  "value": "528422468"
                }
              },
              {
                "url": "https://gematik.de/fhir/erp/StructureDefinition/GEM_ERP_EX_SubstitutionAllowedType",
                "valueBoolean": true
              },
              {
                "url": "https://gematik.de/fhir/erp/StructureDefinition/GEM_ERP_EX_PrescriptionType",
                "valueCoding": {
                  "system": "https://gematik.de/fhir/erp/CodeSystem/GEM_ERP_CS_FlowType",
                  "code": "160",
                  "display": "Muster 16 (Apothekenpflichtige Arzneimittel)"
                }
              }
            ],
            "contentString": "There's only one life-form as intelligent as me within thirty parsecs of here and that's me."
          }
        ]
      },
      "search": {
        "mode": "match"
      }
    },
    {
      "fullUrl": "https://erp-dev.zentral.erp.splitdns.ti-dienste.de/Communication/01eb9e87-cea4-6168-05ad-13412bdec784",
      "resource": {
        "resourceType": "Communication",
        "id": "01eb9e87-cea4-6168-05ad-13412bdec784",
        "meta": {
          "profile": [
            "https://gematik.de/fhir/erp/StructureDefinition/GEM_ERP_PR_Communication_InfoReq|1.2"
          ]
        },
        "contained": [
          {
            "resourceType": "Medication",
            "id": "608ae59b-25f8-40cf-8312-534c61820214",
            "meta": {
              "profile": [
                "https://fhir.kbv.de/StructureDefinition/KBV_PR_ERP_Medication_PZN|1.1.0"
              ]
            },
            "extension": [
              {
                "url": "https://fhir.kbv.de/StructureDefinition/KBV_EX_Base_Medication_Type",
                "valueCodeableConcept": {
                  "coding": [
                    {
                      "system": "http://snomed.info/sct",
                      "version": "http://snomed.info/sct/900000000000207008/version/20220331",
                      "code": "763158003",
                      "display": "Medicinal product (product)"
                    }
                  ]
                }
              },
              {
                "url": "https://fhir.kbv.de/StructureDefinition/KBV_EX_ERP_Medication_Category",
                "valueCoding": {
                  "system": "https://fhir.kbv.de/CodeSystem/KBV_CS_ERP_Medication_Category",
                  "code": "00"
                }
              },
              {
                "url": "https://fhir.kbv.de/StructureDefinition/KBV_EX_ERP_Medication_Vaccine",
                "valueBoolean": false
              },
              {
                "url": "http://fhir.de/StructureDefinition/normgroesse",
                "valueCode": "NB"
              }
            ],
            "code": {
              "coding": [
                {
                  "system": "http://fhir.de/CodeSystem/ifa/pzn",
                  "code": "12345678"
                }
              ],
              "text": "Schmerzmittel"
            },
            "form": {
              "coding": [
                {
                  "system": "https://fhir.kbv.de/CodeSystem/KBV_CS_SFHIR_KBV_DARREICHUNGSFORM",
                  "code": "TAB"
                }
              ]
            },
            "amount": {
              "numerator": {
                "extension": [
                  {
                    "url": "https://fhir.kbv.de/StructureDefinition/KBV_EX_ERP_Medication_PackagingSize",
                    "valueString": "1"
                  }
                ],
                "unit": "Stk"
              },
              "denominator": {
                "value": 1
              }
            }
          }
        ],
        "basedOn": [
          {
            "reference": "Task/160.000.032.711.627.76"
          }
        ],
        "status": "unknown",
        "about": [
          {
            "reference": "#608ae59b-25f8-40cf-8312-534c61820214"
          }
        ],
        "sent": "2023-02-14T14:41:29.585+00:00",
        "recipient": [
          {
            "identifier": {
              "system": "https://gematik.de/fhir/sid/telematik-id",
              "value": "1-2-ARZT-BerndClaudius01"
            }
          }
        ],
        "sender": {
          "identifier": {
            "system": "http://fhir.de/sid/gkv/kvid-10",
            "value": "X110498565"
          }
        },
        "payload": [
          {
            "extension": [
              {
                "url": "https://gematik.de/fhir/erp/StructureDefinition/GEM_ERP_EX_InsuranceProvider",
                "valueIdentifier": {
                  "system": "http://fhir.de/sid/arge-ik/iknr",
                  "value": "389437838"
                }
              },
              {
                "url": "https://gematik.de/fhir/erp/StructureDefinition/GEM_ERP_EX_SubstitutionAllowedType",
                "valueBoolean": true
              },
              {
                "url": "https://gematik.de/fhir/erp/StructureDefinition/GEM_ERP_EX_PrescriptionType",
                "valueCoding": {
                  "system": "https://gematik.de/fhir/erp/CodeSystem/GEM_ERP_CS_FlowType",
                  "code": "160",
                  "display": "Muster 16 (Apothekenpflichtige Arzneimittel)"
                }
              }
            ],
            "contentString": "Life? Don't talk to me about life."
          }
        ]
      },
      "search": {
        "mode": "match"
      }
    },
    {
      "fullUrl": "https://erp-dev.zentral.erp.splitdns.ti-dienste.de/Communication/01eb9d8c-5750-c328-3429-94568887ea73",
      "resource": {
        "resourceType": "Communication",
        "id": "01eb9d8c-5750-c328-3429-94568887ea73",
        "meta": {
          "profile": [
            "https://gematik.de/fhir/erp/StructureDefinition/GEM_ERP_PR_Communication_InfoReq|1.2"
          ]
        },
        "contained": [
          {
            "resourceType": "Medication",
            "id": "ea78ddcf-b6b5-463e-9382-6662547f1b4d",
            "meta": {
              "profile": [
                "https://fhir.kbv.de/StructureDefinition/KBV_PR_ERP_Medication_PZN|1.1.0"
              ]
            },
            "extension": [
              {
                "url": "https://fhir.kbv.de/StructureDefinition/KBV_EX_Base_Medication_Type",
                "valueCodeableConcept": {
                  "coding": [
                    {
                      "system": "http://snomed.info/sct",
                      "version": "http://snomed.info/sct/900000000000207008/version/20220331",
                      "code": "763158003",
                      "display": "Medicinal product (product)"
                    }
                  ]
                }
              },
              {
                "url": "https://fhir.kbv.de/StructureDefinition/KBV_EX_ERP_Medication_Category",
                "valueCoding": {
                  "system": "https://fhir.kbv.de/CodeSystem/KBV_CS_ERP_Medication_Category",
                  "code": "00"
                }
              },
              {
                "url": "https://fhir.kbv.de/StructureDefinition/KBV_EX_ERP_Medication_Vaccine",
                "valueBoolean": false
              },
              {
                "url": "http://fhir.de/StructureDefinition/normgroesse",
                "valueCode": "NB"
              }
            ],
            "code": {
              "coding": [
                {
                  "system": "http://fhir.de/CodeSystem/ifa/pzn",
                  "code": "12345678"
                }
              ],
              "text": "Schmerzmittel"
            },
            "form": {
              "coding": [
                {
                  "system": "https://fhir.kbv.de/CodeSystem/KBV_CS_SFHIR_KBV_DARREICHUNGSFORM",
                  "code": "TAB"
                }
              ]
            },
            "amount": {
              "numerator": {
                "extension": [
                  {
                    "url": "https://fhir.kbv.de/StructureDefinition/KBV_EX_ERP_Medication_PackagingSize",
                    "valueString": "1"
                  }
                ],
                "unit": "Stk"
              },
              "denominator": {
                "value": 1
              }
            }
          }
        ],
        "basedOn": [
          {
            "reference": "Task/160.000.031.333.526.45"
          }
        ],
        "status": "unknown",
        "about": [
          {
            "reference": "#ea78ddcf-b6b5-463e-9382-6662547f1b4d"
          }
        ],
        "sent": "2023-02-02T02:40:50.825+00:00",
        "recipient": [
          {
            "identifier": {
              "system": "https://gematik.de/fhir/sid/telematik-id",
              "value": "1-2-ARZT-DamianClaudius01"
            }
          }
        ],
        "sender": {
          "identifier": {
            "system": "http://fhir.de/sid/gkv/kvid-10",
            "value": "X110498565"
          }
        },
        "payload": [
          {
            "extension": [
              {
                "url": "https://gematik.de/fhir/erp/StructureDefinition/GEM_ERP_EX_InsuranceProvider",
                "valueIdentifier": {
                  "system": "http://fhir.de/sid/arge-ik/iknr",
                  "value": "795137468"
                }
              },
              {
                "url": "https://gematik.de/fhir/erp/StructureDefinition/GEM_ERP_EX_SubstitutionAllowedType",
                "valueBoolean": true
              },
              {
                "url": "https://gematik.de/fhir/erp/StructureDefinition/GEM_ERP_EX_PrescriptionType",
                "valueCoding": {
                  "system": "https://gematik.de/fhir/erp/CodeSystem/GEM_ERP_CS_FlowType",
                  "code": "160",
                  "display": "Muster 16 (Apothekenpflichtige Arzneimittel)"
                }
              }
            ],
            "contentString": "Life? Don't talk to me about life."
          }
        ]
      },
      "search": {
        "mode": "match"
      }
    },
    {
      "fullUrl": "https://erp-dev.zentral.erp.splitdns.ti-dienste.de/Communication/01eb9ea2-a0e6-7728-aa58-df8ec8834895",
      "resource": {
        "resourceType": "Communication",
        "id": "01eb9ea2-a0e6-7728-aa58-df8ec8834895",
        "meta": {
          "profile": [
            "https://gematik.de/fhir/erp/StructureDefinition/GEM_ERP_PR_Communication_InfoReq|1.2"
          ]
        },
        "contained": [
          {
            "resourceType": "Medication",
            "id": "d22f630c-7f51-443e-a18f-d1118fe5aeaa",
            "meta": {
              "profile": [
                "https://fhir.kbv.de/StructureDefinition/KBV_PR_ERP_Medication_PZN|1.1.0"
              ]
            },
            "extension": [
              {
                "url": "https://fhir.kbv.de/StructureDefinition/KBV_EX_Base_Medication_Type",
                "valueCodeableConcept": {
                  "coding": [
                    {
                      "system": "http://snomed.info/sct",
                      "version": "http://snomed.info/sct/900000000000207008/version/20220331",
                      "code": "763158003",
                      "display": "Medicinal product (product)"
                    }
                  ]
                }
              },
              {
                "url": "https://fhir.kbv.de/StructureDefinition/KBV_EX_ERP_Medication_Category",
                "valueCoding": {
                  "system": "https://fhir.kbv.de/CodeSystem/KBV_CS_ERP_Medication_Category",
                  "code": "00"
                }
              },
              {
                "url": "https://fhir.kbv.de/StructureDefinition/KBV_EX_ERP_Medication_Vaccine",
                "valueBoolean": false
              },
              {
                "url": "http://fhir.de/StructureDefinition/normgroesse",
                "valueCode": "NB"
              }
            ],
            "code": {
              "coding": [
                {
                  "system": "http://fhir.de/CodeSystem/ifa/pzn",
                  "code": "12345678"
                }
              ],
              "text": "Schmerzmittel"
            },
            "form": {
              "coding": [
                {
                  "system": "https://fhir.kbv.de/CodeSystem/KBV_CS_SFHIR_KBV_DARREICHUNGSFORM",
                  "code": "TAB"
                }
              ]
            },
            "amount": {
              "numerator": {
                "extension": [
                  {
                    "url": "https://fhir.kbv.de/StructureDefinition/KBV_EX_ERP_Medication_PackagingSize",
                    "valueString": "1"
                  }
                ],
                "unit": "Stk"
              },
              "denominator": {
                "value": 1
              }
            }
          }
        ],
        "basedOn": [
          {
            "reference": "Task/160.000.032.716.674.67"
          }
        ],
        "status": "unknown",
        "about": [
          {
            "reference": "#d22f630c-7f51-443e-a18f-d1118fe5aeaa"
          }
        ],
        "sent": "2023-02-15T22:41:26.281+00:00",
        "recipient": [
          {
            "identifier": {
              "system": "https://gematik.de/fhir/sid/telematik-id",
              "value": "1-2-ARZT-BerndClaudius01"
            }
          }
        ],
        "sender": {
          "identifier": {
            "system": "http://fhir.de/sid/gkv/kvid-10",
            "value": "X110498565"
          }
        },
        "payload": [
          {
            "extension": [
              {
                "url": "https://gematik.de/fhir/erp/StructureDefinition/GEM_ERP_EX_InsuranceProvider",
                "valueIdentifier": {
                  "system": "http://fhir.de/sid/arge-ik/iknr",
                  "value": "526630130"
                }
              },
              {
                "url": "https://gematik.de/fhir/erp/StructureDefinition/GEM_ERP_EX_SubstitutionAllowedType",
                "valueBoolean": true
              },
              {
                "url": "https://gematik.de/fhir/erp/StructureDefinition/GEM_ERP_EX_PrescriptionType",
                "valueCoding": {
                  "system": "https://gematik.de/fhir/erp/CodeSystem/GEM_ERP_CS_FlowType",
                  "code": "160",
                  "display": "Muster 16 (Apothekenpflichtige Arzneimittel)"
                }
              }
            ],
            "contentString": "Here I am, brain the size of a planet, and they tell me to take you up to the bridge. Call that job satisfaction? 'Cos I don't."
          }
        ]
      },
      "search": {
        "mode": "match"
      }
    },
    {
      "fullUrl": "https://erp-dev.zentral.erp.splitdns.ti-dienste.de/Communication/01eb9e1a-d6b8-5cc8-094d-fd3da8a0b637",
      "resource": {
        "resourceType": "Communication",
        "id": "01eb9e1a-d6b8-5cc8-094d-fd3da8a0b637",
        "meta": {
          "profile": [
            "https://gematik.de/fhir/erp/StructureDefinition/GEM_ERP_PR_Communication_InfoReq|1.2"
          ]
        },
        "contained": [
          {
            "resourceType": "Medication",
            "id": "876b0ab4-ef76-4efa-a713-9946ceb586b5",
            "meta": {
              "profile": [
                "https://fhir.kbv.de/StructureDefinition/KBV_PR_ERP_Medication_PZN|1.1.0"
              ]
            },
            "extension": [
              {
                "url": "https://fhir.kbv.de/StructureDefinition/KBV_EX_Base_Medication_Type",
                "valueCodeableConcept": {
                  "coding": [
                    {
                      "system": "http://snomed.info/sct",
                      "version": "http://snomed.info/sct/900000000000207008/version/20220331",
                      "code": "763158003",
                      "display": "Medicinal product (product)"
                    }
                  ]
                }
              },
              {
                "url": "https://fhir.kbv.de/StructureDefinition/KBV_EX_ERP_Medication_Category",
                "valueCoding": {
                  "system": "https://fhir.kbv.de/CodeSystem/KBV_CS_ERP_Medication_Category",
                  "code": "00"
                }
              },
              {
                "url": "https://fhir.kbv.de/StructureDefinition/KBV_EX_ERP_Medication_Vaccine",
                "valueBoolean": false
              },
              {
                "url": "http://fhir.de/StructureDefinition/normgroesse",
                "valueCode": "NB"
              }
            ],
            "code": {
              "coding": [
                {
                  "system": "http://fhir.de/CodeSystem/ifa/pzn",
                  "code": "12345678"
                }
              ],
              "text": "Schmerzmittel"
            },
            "form": {
              "coding": [
                {
                  "system": "https://fhir.kbv.de/CodeSystem/KBV_CS_SFHIR_KBV_DARREICHUNGSFORM",
                  "code": "TAB"
                }
              ]
            },
            "amount": {
              "numerator": {
                "extension": [
                  {
                    "url": "https://fhir.kbv.de/StructureDefinition/KBV_EX_ERP_Medication_PackagingSize",
                    "valueString": "1"
                  }
                ],
                "unit": "Stk"
              },
              "denominator": {
                "value": 1
              }
            }
          }
        ],
        "basedOn": [
          {
            "reference": "Task/160.000.031.358.152.81"
          }
        ],
        "status": "unknown",
        "about": [
          {
            "reference": "#876b0ab4-ef76-4efa-a713-9946ceb586b5"
          }
        ],
        "sent": "2023-02-09T04:41:13.677+00:00",
        "recipient": [
          {
            "identifier": {
              "system": "https://gematik.de/fhir/sid/telematik-id",
              "value": "1-2-ARZT-BerndClaudius01"
            }
          }
        ],
        "sender": {
          "identifier": {
            "system": "http://fhir.de/sid/gkv/kvid-10",
            "value": "X110498565"
          }
        },
        "payload": [
          {
            "extension": [
              {
                "url": "https://gematik.de/fhir/erp/StructureDefinition/GEM_ERP_EX_InsuranceProvider",
                "valueIdentifier": {
                  "system": "http://fhir.de/sid/arge-ik/iknr",
                  "value": "946013903"
                }
              },
              {
                "url": "https://gematik.de/fhir/erp/StructureDefinition/GEM_ERP_EX_SubstitutionAllowedType",
                "valueBoolean": true
              },
              {
                "url": "https://gematik.de/fhir/erp/StructureDefinition/GEM_ERP_EX_PrescriptionType",
                "valueCoding": {
                  "system": "https://gematik.de/fhir/erp/CodeSystem/GEM_ERP_CS_FlowType",
                  "code": "160",
                  "display": "Muster 16 (Apothekenpflichtige Arzneimittel)"
                }
              }
            ],
            "contentString": "And then of course I've got this terrible pain in all the diodes down my left side."
          }
        ]
      },
      "search": {
        "mode": "match"
      }
    },
    {
      "fullUrl": "https://erp-dev.zentral.erp.splitdns.ti-dienste.de/Communication/01eba217-5c72-ccb8-710d-d862fb83ced4",
      "resource": {
        "resourceType": "Communication",
        "id": "01eba217-5c72-ccb8-710d-d862fb83ced4",
        "meta": {
          "profile": [
            "https://gematik.de/fhir/erp/StructureDefinition/GEM_ERP_PR_Communication_InfoReq|1.2"
          ]
        },
        "contained": [
          {
            "resourceType": "Medication",
            "id": "4afec15c-6ee6-4a14-bdf9-234b344f45c2",
            "meta": {
              "profile": [
                "https://fhir.kbv.de/StructureDefinition/KBV_PR_ERP_Medication_PZN|1.1.0"
              ]
            },
            "extension": [
              {
                "url": "https://fhir.kbv.de/StructureDefinition/KBV_EX_Base_Medication_Type",
                "valueCodeableConcept": {
                  "coding": [
                    {
                      "system": "http://snomed.info/sct",
                      "version": "http://snomed.info/sct/900000000000207008/version/20220331",
                      "code": "763158003",
                      "display": "Medicinal product (product)"
                    }
                  ]
                }
              },
              {
                "url": "https://fhir.kbv.de/StructureDefinition/KBV_EX_ERP_Medication_Category",
                "valueCoding": {
                  "system": "https://fhir.kbv.de/CodeSystem/KBV_CS_ERP_Medication_Category",
                  "code": "00"
                }
              },
              {
                "url": "https://fhir.kbv.de/StructureDefinition/KBV_EX_ERP_Medication_Vaccine",
                "valueBoolean": false
              },
              {
                "url": "http://fhir.de/StructureDefinition/normgroesse",
                "valueCode": "NB"
              }
            ],
            "code": {
              "coding": [
                {
                  "system": "http://fhir.de/CodeSystem/ifa/pzn",
                  "code": "12345678"
                }
              ],
              "text": "Schmerzmittel"
            },
            "form": {
              "coding": [
                {
                  "system": "https://fhir.kbv.de/CodeSystem/KBV_CS_SFHIR_KBV_DARREICHUNGSFORM",
                  "code": "TAB"
                }
              ]
            },
            "amount": {
              "numerator": {
                "extension": [
                  {
                    "url": "https://fhir.kbv.de/StructureDefinition/KBV_EX_ERP_Medication_PackagingSize",
                    "valueString": "1"
                  }
                ],
                "unit": "Stk"
              },
              "denominator": {
                "value": 1
              }
            }
          }
        ],
        "basedOn": [
          {
            "reference": "Task/160.000.036.964.054.41"
          }
        ],
        "status": "unknown",
        "about": [
          {
            "reference": "#4afec15c-6ee6-4a14-bdf9-234b344f45c2"
          }
        ],
        "sent": "2023-03-31T22:13:03.907+00:00",
        "recipient": [
          {
            "identifier": {
              "system": "https://gematik.de/fhir/sid/telematik-id",
              "value": "1-2-ARZT-BerndClaudius01"
            }
          }
        ],
        "sender": {
          "identifier": {
            "system": "http://fhir.de/sid/gkv/kvid-10",
            "value": "X110498565"
          }
        },
        "payload": [
          {
            "extension": [
              {
                "url": "https://gematik.de/fhir/erp/StructureDefinition/GEM_ERP_EX_InsuranceProvider",
                "valueIdentifier": {
                  "system": "http://fhir.de/sid/arge-ik/iknr",
                  "value": "115012887"
                }
              },
              {
                "url": "https://gematik.de/fhir/erp/StructureDefinition/GEM_ERP_EX_SubstitutionAllowedType",
                "valueBoolean": true
              },
              {
                "url": "https://gematik.de/fhir/erp/StructureDefinition/GEM_ERP_EX_PrescriptionType",
                "valueCoding": {
                  "system": "https://gematik.de/fhir/erp/CodeSystem/GEM_ERP_CS_FlowType",
                  "code": "160",
                  "display": "Muster 16 (Apothekenpflichtige Arzneimittel)"
                }
              }
            ],
            "contentString": "I think you ought to know I'm feeling very depressed."
          }
        ]
      },
      "search": {
        "mode": "match"
      }
    },
    {
      "fullUrl": "https://erp-dev.zentral.erp.splitdns.ti-dienste.de/Communication/01eb9fc0-b909-8858-8b80-b7efc9f416bf",
      "resource": {
        "resourceType": "Communication",
        "id": "01eb9fc0-b909-8858-8b80-b7efc9f416bf",
        "meta": {
          "profile": [
            "https://gematik.de/fhir/erp/StructureDefinition/GEM_ERP_PR_Communication_InfoReq|1.2"
          ]
        },
        "contained": [
          {
            "resourceType": "Medication",
            "id": "c74b59f9-f9b3-4e4d-8705-f844c1f7f9e0",
            "meta": {
              "profile": [
                "https://fhir.kbv.de/StructureDefinition/KBV_PR_ERP_Medication_PZN|1.1.0"
              ]
            },
            "extension": [
              {
                "url": "https://fhir.kbv.de/StructureDefinition/KBV_EX_Base_Medication_Type",
                "valueCodeableConcept": {
                  "coding": [
                    {
                      "system": "http://snomed.info/sct",
                      "version": "http://snomed.info/sct/900000000000207008/version/20220331",
                      "code": "763158003",
                      "display": "Medicinal product (product)"
                    }
                  ]
                }
              },
              {
                "url": "https://fhir.kbv.de/StructureDefinition/KBV_EX_ERP_Medication_Category",
                "valueCoding": {
                  "system": "https://fhir.kbv.de/CodeSystem/KBV_CS_ERP_Medication_Category",
                  "code": "00"
                }
              },
              {
                "url": "https://fhir.kbv.de/StructureDefinition/KBV_EX_ERP_Medication_Vaccine",
                "valueBoolean": false
              },
              {
                "url": "http://fhir.de/StructureDefinition/normgroesse",
                "valueCode": "NB"
              }
            ],
            "code": {
              "coding": [
                {
                  "system": "http://fhir.de/CodeSystem/ifa/pzn",
                  "code": "12345678"
                }
              ],
              "text": "Schmerzmittel"
            },
            "form": {
              "coding": [
                {
                  "system": "https://fhir.kbv.de/CodeSystem/KBV_CS_SFHIR_KBV_DARREICHUNGSFORM",
                  "code": "TAB"
                }
              ]
            },
            "amount": {
              "numerator": {
                "extension": [
                  {
                    "url": "https://fhir.kbv.de/StructureDefinition/KBV_EX_ERP_Medication_PackagingSize",
                    "valueString": "1"
                  }
                ],
                "unit": "Stk"
              },
              "denominator": {
                "value": 1
              }
            }
          }
        ],
        "basedOn": [
          {
            "reference": "Task/160.000.032.729.448.60"
          }
        ],
        "status": "unknown",
        "about": [
          {
            "reference": "#c74b59f9-f9b3-4e4d-8705-f844c1f7f9e0"
          }
        ],
        "sent": "2023-03-02T04:00:51.879+00:00",
        "recipient": [
          {
            "identifier": {
              "system": "https://gematik.de/fhir/sid/telematik-id",
              "value": "1-2-ARZT-BerndClaudius01"
            }
          }
        ],
        "sender": {
          "identifier": {
            "system": "http://fhir.de/sid/gkv/kvid-10",
            "value": "X110498565"
          }
        },
        "payload": [
          {
            "extension": [
              {
                "url": "https://gematik.de/fhir/erp/StructureDefinition/GEM_ERP_EX_InsuranceProvider",
                "valueIdentifier": {
                  "system": "http://fhir.de/sid/arge-ik/iknr",
                  "value": "270607983"
                }
              },
              {
                "url": "https://gematik.de/fhir/erp/StructureDefinition/GEM_ERP_EX_SubstitutionAllowedType",
                "valueBoolean": true
              },
              {
                "url": "https://gematik.de/fhir/erp/StructureDefinition/GEM_ERP_EX_PrescriptionType",
                "valueCoding": {
                  "system": "https://gematik.de/fhir/erp/CodeSystem/GEM_ERP_CS_FlowType",
                  "code": "160",
                  "display": "Muster 16 (Apothekenpflichtige Arzneimittel)"
                }
              }
            ],
            "contentString": "And then of course I've got this terrible pain in all the diodes down my left side."
          }
        ]
      },
      "search": {
        "mode": "match"
      }
    },
    {
      "fullUrl": "https://erp-dev.zentral.erp.splitdns.ti-dienste.de/Communication/01eb9fcb-0066-ba90-7cbc-bbf288584bd3",
      "resource": {
        "resourceType": "Communication",
        "id": "01eb9fcb-0066-ba90-7cbc-bbf288584bd3",
        "meta": {
          "profile": [
            "https://gematik.de/fhir/erp/StructureDefinition/GEM_ERP_PR_Communication_InfoReq|1.2"
          ]
        },
        "contained": [
          {
            "resourceType": "Medication",
            "id": "d0d79f26-8874-4e1a-b5ae-94a0bdc94ab5",
            "meta": {
              "profile": [
                "https://fhir.kbv.de/StructureDefinition/KBV_PR_ERP_Medication_PZN|1.1.0"
              ]
            },
            "extension": [
              {
                "url": "https://fhir.kbv.de/StructureDefinition/KBV_EX_Base_Medication_Type",
                "valueCodeableConcept": {
                  "coding": [
                    {
                      "system": "http://snomed.info/sct",
                      "version": "http://snomed.info/sct/900000000000207008/version/20220331",
                      "code": "763158003",
                      "display": "Medicinal product (product)"
                    }
                  ]
                }
              },
              {
                "url": "https://fhir.kbv.de/StructureDefinition/KBV_EX_ERP_Medication_Category",
                "valueCoding": {
                  "system": "https://fhir.kbv.de/CodeSystem/KBV_CS_ERP_Medication_Category",
                  "code": "00"
                }
              },
              {
                "url": "https://fhir.kbv.de/StructureDefinition/KBV_EX_ERP_Medication_Vaccine",
                "valueBoolean": false
              },
              {
                "url": "http://fhir.de/StructureDefinition/normgroesse",
                "valueCode": "NB"
              }
            ],
            "code": {
              "coding": [
                {
                  "system": "http://fhir.de/CodeSystem/ifa/pzn",
                  "code": "12345678"
                }
              ],
              "text": "Schmerzmittel"
            },
            "form": {
              "coding": [
                {
                  "system": "https://fhir.kbv.de/CodeSystem/KBV_CS_SFHIR_KBV_DARREICHUNGSFORM",
                  "code": "TAB"
                }
              ]
            },
            "amount": {
              "numerator": {
                "extension": [
                  {
                    "url": "https://fhir.kbv.de/StructureDefinition/KBV_EX_ERP_Medication_PackagingSize",
                    "valueString": "1"
                  }
                ],
                "unit": "Stk"
              },
              "denominator": {
                "value": 1
              }
            }
          }
        ],
        "basedOn": [
          {
            "reference": "Task/160.000.032.734.969.84"
          }
        ],
        "status": "unknown",
        "about": [
          {
            "reference": "#d0d79f26-8874-4e1a-b5ae-94a0bdc94ab5"
          }
        ],
        "sent": "2023-03-02T16:16:38.842+00:00",
        "recipient": [
          {
            "identifier": {
              "system": "https://gematik.de/fhir/sid/telematik-id",
              "value": "1-2-ARZT-BerndClaudius01"
            }
          }
        ],
        "sender": {
          "identifier": {
            "system": "http://fhir.de/sid/gkv/kvid-10",
            "value": "X110498565"
          }
        },
        "payload": [
          {
            "extension": [
              {
                "url": "https://gematik.de/fhir/erp/StructureDefinition/GEM_ERP_EX_InsuranceProvider",
                "valueIdentifier": {
                  "system": "http://fhir.de/sid/arge-ik/iknr",
                  "value": "431036457"
                }
              },
              {
                "url": "https://gematik.de/fhir/erp/StructureDefinition/GEM_ERP_EX_SubstitutionAllowedType",
                "valueBoolean": true
              },
              {
                "url": "https://gematik.de/fhir/erp/StructureDefinition/GEM_ERP_EX_PrescriptionType",
                "valueCoding": {
                  "system": "https://gematik.de/fhir/erp/CodeSystem/GEM_ERP_CS_FlowType",
                  "code": "160",
                  "display": "Muster 16 (Apothekenpflichtige Arzneimittel)"
                }
              }
            ],
            "contentString": "Pardon me for breathing, which I never do anyway so I don't know why I bother to say it, Oh God, I'm so depressed."
          }
        ]
      },
      "search": {
        "mode": "match"
      }
    },
    {
      "fullUrl": "https://erp-dev.zentral.erp.splitdns.ti-dienste.de/Communication/01eb9c1e-7f4b-c0b8-228d-3331b676df44",
      "resource": {
        "resourceType": "Communication",
        "id": "01eb9c1e-7f4b-c0b8-228d-3331b676df44",
        "meta": {
          "profile": [
            "https://gematik.de/fhir/StructureDefinition/ErxCommunicationInfoReq"
          ]
        },
        "contained": [
          {
            "resourceType": "Medication",
            "id": "38f41a7e-8af6-4e84-9672-829970d91d9f",
            "meta": {
              "profile": [
                "https://fhir.kbv.de/StructureDefinition/KBV_PR_ERP_Medication_PZN|1.0.2"
              ]
            },
            "extension": [
              {
                "url": "https://fhir.kbv.de/StructureDefinition/KBV_EX_ERP_Medication_Category",
                "valueCoding": {
                  "system": "https://fhir.kbv.de/CodeSystem/KBV_CS_ERP_Medication_Category",
                  "code": "00"
                }
              },
              {
                "url": "https://fhir.kbv.de/StructureDefinition/KBV_EX_ERP_Medication_Vaccine",
                "valueBoolean": false
              },
              {
                "url": "http://fhir.de/StructureDefinition/normgroesse",
                "valueCode": "NB"
              }
            ],
            "code": {
              "coding": [
                {
                  "system": "http://fhir.de/CodeSystem/ifa/pzn",
                  "code": "12345678"
                }
              ],
              "text": "Schmerzmittel"
            },
            "form": {
              "coding": [
                {
                  "system": "https://fhir.kbv.de/CodeSystem/KBV_CS_SFHIR_KBV_DARREICHUNGSFORM",
                  "code": "TAB"
                }
              ]
            },
            "amount": {
              "numerator": {
                "value": 1,
                "unit": "Stk"
              },
              "denominator": {
                "value": 1
              }
            }
          }
        ],
        "basedOn": [
          {
            "reference": "Task/160.000.031.321.243.34"
          }
        ],
        "status": "unknown",
        "about": [
          {
            "reference": "#38f41a7e-8af6-4e84-9672-829970d91d9f"
          }
        ],
        "sent": "2023-01-14T22:12:43.555+00:00",
        "recipient": [
          {
            "identifier": {
              "system": "https://gematik.de/fhir/NamingSystem/TelematikID",
              "value": "1-2-ARZT-DamianClaudius01"
            }
          }
        ],
        "sender": {
          "identifier": {
            "system": "http://fhir.de/NamingSystem/gkv/kvid-10",
            "value": "X110498565"
          }
        },
        "payload": [
          {
            "extension": [
              {
                "url": "https://gematik.de/fhir/StructureDefinition/InsuranceProvider",
                "valueIdentifier": {
                  "system": "http://fhir.de/NamingSystem/arge-ik/iknr",
                  "value": "357719819"
                }
              },
              {
                "url": "https://gematik.de/fhir/StructureDefinition/SubstitutionAllowedType",
                "valueBoolean": true
              },
              {
                "url": "https://gematik.de/fhir/StructureDefinition/PrescriptionType",
                "valueCoding": {
                  "system": "https://gematik.de/fhir/CodeSystem/Flowtype",
                  "code": "160",
                  "display": "Muster 16 (Apothekenpflichtige Arzneimittel)"
                }
              }
            ],
            "contentString": "Pardon me for breathing, which I never do anyway so I don't know why I bother to say it, Oh God, I'm so depressed."
          }
        ]
      },
      "search": {
        "mode": "match"
      }
    },
    {
      "fullUrl": "https://erp-dev.zentral.erp.splitdns.ti-dienste.de/Communication/01eb9fcd-1b75-a920-19d7-bf2702584106",
      "resource": {
        "resourceType": "Communication",
        "id": "01eb9fcd-1b75-a920-19d7-bf2702584106",
        "meta": {
          "profile": [
            "https://gematik.de/fhir/erp/StructureDefinition/GEM_ERP_PR_Communication_InfoReq|1.2"
          ]
        },
        "contained": [
          {
            "resourceType": "Medication",
            "id": "b7c83795-dbff-4982-88d9-2d3edb893927",
            "meta": {
              "profile": [
                "https://fhir.kbv.de/StructureDefinition/KBV_PR_ERP_Medication_PZN|1.1.0"
              ]
            },
            "extension": [
              {
                "url": "https://fhir.kbv.de/StructureDefinition/KBV_EX_Base_Medication_Type",
                "valueCodeableConcept": {
                  "coding": [
                    {
                      "system": "http://snomed.info/sct",
                      "version": "http://snomed.info/sct/900000000000207008/version/20220331",
                      "code": "763158003",
                      "display": "Medicinal product (product)"
                    }
                  ]
                }
              },
              {
                "url": "https://fhir.kbv.de/StructureDefinition/KBV_EX_ERP_Medication_Category",
                "valueCoding": {
                  "system": "https://fhir.kbv.de/CodeSystem/KBV_CS_ERP_Medication_Category",
                  "code": "00"
                }
              },
              {
                "url": "https://fhir.kbv.de/StructureDefinition/KBV_EX_ERP_Medication_Vaccine",
                "valueBoolean": false
              },
              {
                "url": "http://fhir.de/StructureDefinition/normgroesse",
                "valueCode": "NB"
              }
            ],
            "code": {
              "coding": [
                {
                  "system": "http://fhir.de/CodeSystem/ifa/pzn",
                  "code": "12345678"
                }
              ],
              "text": "Schmerzmittel"
            },
            "form": {
              "coding": [
                {
                  "system": "https://fhir.kbv.de/CodeSystem/KBV_CS_SFHIR_KBV_DARREICHUNGSFORM",
                  "code": "TAB"
                }
              ]
            },
            "amount": {
              "numerator": {
                "extension": [
                  {
                    "url": "https://fhir.kbv.de/StructureDefinition/KBV_EX_ERP_Medication_PackagingSize",
                    "valueString": "1"
                  }
                ],
                "unit": "Stk"
              },
              "denominator": {
                "value": 1
              }
            }
          }
        ],
        "basedOn": [
          {
            "reference": "Task/160.000.032.736.105.71"
          }
        ],
        "status": "unknown",
        "about": [
          {
            "reference": "#b7c83795-dbff-4982-88d9-2d3edb893927"
          }
        ],
        "sent": "2023-03-02T18:47:22.740+00:00",
        "recipient": [
          {
            "identifier": {
              "system": "https://gematik.de/fhir/sid/telematik-id",
              "value": "1-2-ARZT-BerndClaudius01"
            }
          }
        ],
        "sender": {
          "identifier": {
            "system": "http://fhir.de/sid/gkv/kvid-10",
            "value": "X110498565"
          }
        },
        "payload": [
          {
            "extension": [
              {
                "url": "https://gematik.de/fhir/erp/StructureDefinition/GEM_ERP_EX_InsuranceProvider",
                "valueIdentifier": {
                  "system": "http://fhir.de/sid/arge-ik/iknr",
                  "value": "611298871"
                }
              },
              {
                "url": "https://gematik.de/fhir/erp/StructureDefinition/GEM_ERP_EX_SubstitutionAllowedType",
                "valueBoolean": true
              },
              {
                "url": "https://gematik.de/fhir/erp/StructureDefinition/GEM_ERP_EX_PrescriptionType",
                "valueCoding": {
                  "system": "https://gematik.de/fhir/erp/CodeSystem/GEM_ERP_CS_FlowType",
                  "code": "160",
                  "display": "Muster 16 (Apothekenpflichtige Arzneimittel)"
                }
              }
            ],
            "contentString": "I wish you'd just tell me rather trying to engage my enthusiasm, because I haven't got one."
          }
        ]
      },
      "search": {
        "mode": "match"
      }
    },
    {
      "fullUrl": "https://erp-dev.zentral.erp.splitdns.ti-dienste.de/Communication/01eb9dd1-13ad-0560-ac8f-a299c1918e5a",
      "resource": {
        "resourceType": "Communication",
        "id": "01eb9dd1-13ad-0560-ac8f-a299c1918e5a",
        "meta": {
          "profile": [
            "https://gematik.de/fhir/erp/StructureDefinition/GEM_ERP_PR_Communication_InfoReq|1.2"
          ]
        },
        "contained": [
          {
            "resourceType": "Medication",
            "id": "792cc154-0049-406e-9460-15e944af7caa",
            "meta": {
              "profile": [
                "https://fhir.kbv.de/StructureDefinition/KBV_PR_ERP_Medication_PZN|1.1.0"
              ]
            },
            "extension": [
              {
                "url": "https://fhir.kbv.de/StructureDefinition/KBV_EX_Base_Medication_Type",
                "valueCodeableConcept": {
                  "coding": [
                    {
                      "system": "http://snomed.info/sct",
                      "version": "http://snomed.info/sct/900000000000207008/version/20220331",
                      "code": "763158003",
                      "display": "Medicinal product (product)"
                    }
                  ]
                }
              },
              {
                "url": "https://fhir.kbv.de/StructureDefinition/KBV_EX_ERP_Medication_Category",
                "valueCoding": {
                  "system": "https://fhir.kbv.de/CodeSystem/KBV_CS_ERP_Medication_Category",
                  "code": "00"
                }
              },
              {
                "url": "https://fhir.kbv.de/StructureDefinition/KBV_EX_ERP_Medication_Vaccine",
                "valueBoolean": false
              },
              {
                "url": "http://fhir.de/StructureDefinition/normgroesse",
                "valueCode": "NB"
              }
            ],
            "code": {
              "coding": [
                {
                  "system": "http://fhir.de/CodeSystem/ifa/pzn",
                  "code": "12345678"
                }
              ],
              "text": "Schmerzmittel"
            },
            "form": {
              "coding": [
                {
                  "system": "https://fhir.kbv.de/CodeSystem/KBV_CS_SFHIR_KBV_DARREICHUNGSFORM",
                  "code": "TAB"
                }
              ]
            },
            "amount": {
              "numerator": {
                "extension": [
                  {
                    "url": "https://fhir.kbv.de/StructureDefinition/KBV_EX_ERP_Medication_PackagingSize",
                    "valueString": "1"
                  }
                ],
                "unit": "Stk"
              },
              "denominator": {
                "value": 1
              }
            }
          }
        ],
        "basedOn": [
          {
            "reference": "Task/160.000.031.345.011.25"
          }
        ],
        "status": "unknown",
        "about": [
          {
            "reference": "#792cc154-0049-406e-9460-15e944af7caa"
          }
        ],
        "sent": "2023-02-05T12:41:08.764+00:00",
        "recipient": [
          {
            "identifier": {
              "system": "https://gematik.de/fhir/sid/telematik-id",
              "value": "1-2-ARZT-DamianClaudius01"
            }
          }
        ],
        "sender": {
          "identifier": {
            "system": "http://fhir.de/sid/gkv/kvid-10",
            "value": "X110498565"
          }
        },
        "payload": [
          {
            "extension": [
              {
                "url": "https://gematik.de/fhir/erp/StructureDefinition/GEM_ERP_EX_InsuranceProvider",
                "valueIdentifier": {
                  "system": "http://fhir.de/sid/arge-ik/iknr",
                  "value": "994423797"
                }
              },
              {
                "url": "https://gematik.de/fhir/erp/StructureDefinition/GEM_ERP_EX_SubstitutionAllowedType",
                "valueBoolean": true
              },
              {
                "url": "https://gematik.de/fhir/erp/StructureDefinition/GEM_ERP_EX_PrescriptionType",
                "valueCoding": {
                  "system": "https://gematik.de/fhir/erp/CodeSystem/GEM_ERP_CS_FlowType",
                  "code": "160",
                  "display": "Muster 16 (Apothekenpflichtige Arzneimittel)"
                }
              }
            ],
            "contentString": "And then of course I've got this terrible pain in all the diodes down my left side."
          }
        ]
      },
      "search": {
        "mode": "match"
      }
    },
    {
      "fullUrl": "https://erp-dev.zentral.erp.splitdns.ti-dienste.de/Communication/01eb9dfa-f983-bfb0-a553-3eabe0c83cf4",
      "resource": {
        "resourceType": "Communication",
        "id": "01eb9dfa-f983-bfb0-a553-3eabe0c83cf4",
        "meta": {
          "profile": [
            "https://gematik.de/fhir/erp/StructureDefinition/GEM_ERP_PR_Communication_InfoReq|1.2"
          ]
        },
        "contained": [
          {
            "resourceType": "Medication",
            "id": "a816b069-7d86-4f1b-89d5-14e67bd4f699",
            "meta": {
              "profile": [
                "https://fhir.kbv.de/StructureDefinition/KBV_PR_ERP_Medication_PZN|1.1.0"
              ]
            },
            "extension": [
              {
                "url": "https://fhir.kbv.de/StructureDefinition/KBV_EX_Base_Medication_Type",
                "valueCodeableConcept": {
                  "coding": [
                    {
                      "system": "http://snomed.info/sct",
                      "version": "http://snomed.info/sct/900000000000207008/version/20220331",
                      "code": "763158003",
                      "display": "Medicinal product (product)"
                    }
                  ]
                }
              },
              {
                "url": "https://fhir.kbv.de/StructureDefinition/KBV_EX_ERP_Medication_Category",
                "valueCoding": {
                  "system": "https://fhir.kbv.de/CodeSystem/KBV_CS_ERP_Medication_Category",
                  "code": "00"
                }
              },
              {
                "url": "https://fhir.kbv.de/StructureDefinition/KBV_EX_ERP_Medication_Vaccine",
                "valueBoolean": false
              },
              {
                "url": "http://fhir.de/StructureDefinition/normgroesse",
                "valueCode": "NB"
              }
            ],
            "code": {
              "coding": [
                {
                  "system": "http://fhir.de/CodeSystem/ifa/pzn",
                  "code": "12345678"
                }
              ],
              "text": "Schmerzmittel"
            },
            "form": {
              "coding": [
                {
                  "system": "https://fhir.kbv.de/CodeSystem/KBV_CS_SFHIR_KBV_DARREICHUNGSFORM",
                  "code": "TAB"
                }
              ]
            },
            "amount": {
              "numerator": {
                "extension": [
                  {
                    "url": "https://fhir.kbv.de/StructureDefinition/KBV_EX_ERP_Medication_PackagingSize",
                    "valueString": "1"
                  }
                ],
                "unit": "Stk"
              },
              "denominator": {
                "value": 1
              }
            }
          }
        ],
        "basedOn": [
          {
            "reference": "Task/160.000.031.352.576.28"
          }
        ],
        "status": "unknown",
        "about": [
          {
            "reference": "#a816b069-7d86-4f1b-89d5-14e67bd4f699"
          }
        ],
        "sent": "2023-02-07T14:40:18.478+00:00",
        "recipient": [
          {
            "identifier": {
              "system": "https://gematik.de/fhir/sid/telematik-id",
              "value": "1-2-ARZT-BerndClaudius01"
            }
          }
        ],
        "sender": {
          "identifier": {
            "system": "http://fhir.de/sid/gkv/kvid-10",
            "value": "X110498565"
          }
        },
        "payload": [
          {
            "extension": [
              {
                "url": "https://gematik.de/fhir/erp/StructureDefinition/GEM_ERP_EX_InsuranceProvider",
                "valueIdentifier": {
                  "system": "http://fhir.de/sid/arge-ik/iknr",
                  "value": "875666516"
                }
              },
              {
                "url": "https://gematik.de/fhir/erp/StructureDefinition/GEM_ERP_EX_SubstitutionAllowedType",
                "valueBoolean": true
              },
              {
                "url": "https://gematik.de/fhir/erp/StructureDefinition/GEM_ERP_EX_PrescriptionType",
                "valueCoding": {
                  "system": "https://gematik.de/fhir/erp/CodeSystem/GEM_ERP_CS_FlowType",
                  "code": "160",
                  "display": "Muster 16 (Apothekenpflichtige Arzneimittel)"
                }
              }
            ],
            "contentString": "I think you ought to know I'm feeling very depressed."
          }
        ]
      },
      "search": {
        "mode": "match"
      }
    },
    {
      "fullUrl": "https://erp-dev.zentral.erp.splitdns.ti-dienste.de/Communication/01eb9e81-19cc-43d8-6165-9835ef92c458",
      "resource": {
        "resourceType": "Communication",
        "id": "01eb9e81-19cc-43d8-6165-9835ef92c458",
        "meta": {
          "profile": [
            "https://gematik.de/fhir/erp/StructureDefinition/GEM_ERP_PR_Communication_InfoReq|1.2"
          ]
        },
        "contained": [
          {
            "resourceType": "Medication",
            "id": "44c3f48e-e466-4a3e-818a-1b8e55f14a61",
            "meta": {
              "profile": [
                "https://fhir.kbv.de/StructureDefinition/KBV_PR_ERP_Medication_PZN|1.1.0"
              ]
            },
            "extension": [
              {
                "url": "https://fhir.kbv.de/StructureDefinition/KBV_EX_Base_Medication_Type",
                "valueCodeableConcept": {
                  "coding": [
                    {
                      "system": "http://snomed.info/sct",
                      "version": "http://snomed.info/sct/900000000000207008/version/20220331",
                      "code": "763158003",
                      "display": "Medicinal product (product)"
                    }
                  ]
                }
              },
              {
                "url": "https://fhir.kbv.de/StructureDefinition/KBV_EX_ERP_Medication_Category",
                "valueCoding": {
                  "system": "https://fhir.kbv.de/CodeSystem/KBV_CS_ERP_Medication_Category",
                  "code": "00"
                }
              },
              {
                "url": "https://fhir.kbv.de/StructureDefinition/KBV_EX_ERP_Medication_Vaccine",
                "valueBoolean": false
              },
              {
                "url": "http://fhir.de/StructureDefinition/normgroesse",
                "valueCode": "NB"
              }
            ],
            "code": {
              "coding": [
                {
                  "system": "http://fhir.de/CodeSystem/ifa/pzn",
                  "code": "12345678"
                }
              ],
              "text": "Schmerzmittel"
            },
            "form": {
              "coding": [
                {
                  "system": "https://fhir.kbv.de/CodeSystem/KBV_CS_SFHIR_KBV_DARREICHUNGSFORM",
                  "code": "TAB"
                }
              ]
            },
            "amount": {
              "numerator": {
                "extension": [
                  {
                    "url": "https://fhir.kbv.de/StructureDefinition/KBV_EX_ERP_Medication_PackagingSize",
                    "valueString": "1"
                  }
                ],
                "unit": "Stk"
              },
              "denominator": {
                "value": 1
              }
            }
          }
        ],
        "basedOn": [
          {
            "reference": "Task/160.000.032.710.506.44"
          }
        ],
        "status": "unknown",
        "about": [
          {
            "reference": "#44c3f48e-e466-4a3e-818a-1b8e55f14a61"
          }
        ],
        "sent": "2023-02-14T06:41:25.719+00:00",
        "recipient": [
          {
            "identifier": {
              "system": "https://gematik.de/fhir/sid/telematik-id",
              "value": "1-2-ARZT-BerndClaudius01"
            }
          }
        ],
        "sender": {
          "identifier": {
            "system": "http://fhir.de/sid/gkv/kvid-10",
            "value": "X110498565"
          }
        },
        "payload": [
          {
            "extension": [
              {
                "url": "https://gematik.de/fhir/erp/StructureDefinition/GEM_ERP_EX_InsuranceProvider",
                "valueIdentifier": {
                  "system": "http://fhir.de/sid/arge-ik/iknr",
                  "value": "236556237"
                }
              },
              {
                "url": "https://gematik.de/fhir/erp/StructureDefinition/GEM_ERP_EX_SubstitutionAllowedType",
                "valueBoolean": true
              },
              {
                "url": "https://gematik.de/fhir/erp/StructureDefinition/GEM_ERP_EX_PrescriptionType",
                "valueCoding": {
                  "system": "https://gematik.de/fhir/erp/CodeSystem/GEM_ERP_CS_FlowType",
                  "code": "160",
                  "display": "Muster 16 (Apothekenpflichtige Arzneimittel)"
                }
              }
            ],
            "contentString": "I won't enjoy it."
          }
        ]
      },
      "search": {
        "mode": "match"
      }
    },
    {
      "fullUrl": "https://erp-dev.zentral.erp.splitdns.ti-dienste.de/Communication/01eb9fb4-5493-4398-8927-33362ae52c7b",
      "resource": {
        "resourceType": "Communication",
        "id": "01eb9fb4-5493-4398-8927-33362ae52c7b",
        "meta": {
          "profile": [
            "https://gematik.de/fhir/erp/StructureDefinition/GEM_ERP_PR_Communication_InfoReq|1.2"
          ]
        },
        "contained": [
          {
            "resourceType": "Medication",
            "id": "ace36c72-85c3-4697-96be-4a35e8f1d0f6",
            "meta": {
              "profile": [
                "https://fhir.kbv.de/StructureDefinition/KBV_PR_ERP_Medication_PZN|1.1.0"
              ]
            },
            "extension": [
              {
                "url": "https://fhir.kbv.de/StructureDefinition/KBV_EX_Base_Medication_Type",
                "valueCodeableConcept": {
                  "coding": [
                    {
                      "system": "http://snomed.info/sct",
                      "version": "http://snomed.info/sct/900000000000207008/version/20220331",
                      "code": "763158003",
                      "display": "Medicinal product (product)"
                    }
                  ]
                }
              },
              {
                "url": "https://fhir.kbv.de/StructureDefinition/KBV_EX_ERP_Medication_Category",
                "valueCoding": {
                  "system": "https://fhir.kbv.de/CodeSystem/KBV_CS_ERP_Medication_Category",
                  "code": "00"
                }
              },
              {
                "url": "https://fhir.kbv.de/StructureDefinition/KBV_EX_ERP_Medication_Vaccine",
                "valueBoolean": false
              },
              {
                "url": "http://fhir.de/StructureDefinition/normgroesse",
                "valueCode": "NB"
              }
            ],
            "code": {
              "coding": [
                {
                  "system": "http://fhir.de/CodeSystem/ifa/pzn",
                  "code": "12345678"
                }
              ],
              "text": "Schmerzmittel"
            },
            "form": {
              "coding": [
                {
                  "system": "https://fhir.kbv.de/CodeSystem/KBV_CS_SFHIR_KBV_DARREICHUNGSFORM",
                  "code": "TAB"
                }
              ]
            },
            "amount": {
              "numerator": {
                "extension": [
                  {
                    "url": "https://fhir.kbv.de/StructureDefinition/KBV_EX_ERP_Medication_PackagingSize",
                    "valueString": "1"
                  }
                ],
                "unit": "Stk"
              },
              "denominator": {
                "value": 1
              }
            }
          }
        ],
        "basedOn": [
          {
            "reference": "Task/160.000.032.723.170.76"
          }
        ],
        "status": "unknown",
        "about": [
          {
            "reference": "#ace36c72-85c3-4697-96be-4a35e8f1d0f6"
          }
        ],
        "sent": "2023-03-01T13:13:46.799+00:00",
        "recipient": [
          {
            "identifier": {
              "system": "https://gematik.de/fhir/sid/telematik-id",
              "value": "1-2-ARZT-BerndClaudius01"
            }
          }
        ],
        "sender": {
          "identifier": {
            "system": "http://fhir.de/sid/gkv/kvid-10",
            "value": "X110498565"
          }
        },
        "payload": [
          {
            "extension": [
              {
                "url": "https://gematik.de/fhir/erp/StructureDefinition/GEM_ERP_EX_InsuranceProvider",
                "valueIdentifier": {
                  "system": "http://fhir.de/sid/arge-ik/iknr",
                  "value": "099876202"
                }
              },
              {
                "url": "https://gematik.de/fhir/erp/StructureDefinition/GEM_ERP_EX_SubstitutionAllowedType",
                "valueBoolean": true
              },
              {
                "url": "https://gematik.de/fhir/erp/StructureDefinition/GEM_ERP_EX_PrescriptionType",
                "valueCoding": {
                  "system": "https://gematik.de/fhir/erp/CodeSystem/GEM_ERP_CS_FlowType",
                  "code": "160",
                  "display": "Muster 16 (Apothekenpflichtige Arzneimittel)"
                }
              }
            ],
            "contentString": "I won't enjoy it."
          }
        ]
      },
      "search": {
        "mode": "match"
      }
    },
    {
      "fullUrl": "https://erp-dev.zentral.erp.splitdns.ti-dienste.de/Communication/01eba1db-0207-8890-fa16-0fa92b2f7aaf",
      "resource": {
        "resourceType": "Communication",
        "id": "01eba1db-0207-8890-fa16-0fa92b2f7aaf",
        "meta": {
          "profile": [
            "https://gematik.de/fhir/erp/StructureDefinition/GEM_ERP_PR_Communication_InfoReq|1.2"
          ]
        },
        "contained": [
          {
            "resourceType": "Medication",
            "id": "326cdb95-6a09-45cc-93f6-388e0b1575f0",
            "meta": {
              "profile": [
                "https://fhir.kbv.de/StructureDefinition/KBV_PR_ERP_Medication_PZN|1.1.0"
              ]
            },
            "extension": [
              {
                "url": "https://fhir.kbv.de/StructureDefinition/KBV_EX_Base_Medication_Type",
                "valueCodeableConcept": {
                  "coding": [
                    {
                      "system": "http://snomed.info/sct",
                      "version": "http://snomed.info/sct/900000000000207008/version/20220331",
                      "code": "763158003",
                      "display": "Medicinal product (product)"
                    }
                  ]
                }
              },
              {
                "url": "https://fhir.kbv.de/StructureDefinition/KBV_EX_ERP_Medication_Category",
                "valueCoding": {
                  "system": "https://fhir.kbv.de/CodeSystem/KBV_CS_ERP_Medication_Category",
                  "code": "00"
                }
              },
              {
                "url": "https://fhir.kbv.de/StructureDefinition/KBV_EX_ERP_Medication_Vaccine",
                "valueBoolean": false
              },
              {
                "url": "http://fhir.de/StructureDefinition/normgroesse",
                "valueCode": "NB"
              }
            ],
            "code": {
              "coding": [
                {
                  "system": "http://fhir.de/CodeSystem/ifa/pzn",
                  "code": "12345678"
                }
              ],
              "text": "Schmerzmittel"
            },
            "form": {
              "coding": [
                {
                  "system": "https://fhir.kbv.de/CodeSystem/KBV_CS_SFHIR_KBV_DARREICHUNGSFORM",
                  "code": "TAB"
                }
              ]
            },
            "amount": {
              "numerator": {
                "extension": [
                  {
                    "url": "https://fhir.kbv.de/StructureDefinition/KBV_EX_ERP_Medication_PackagingSize",
                    "valueString": "1"
                  }
                ],
                "unit": "Stk"
              },
              "denominator": {
                "value": 1
              }
            }
          }
        ],
        "basedOn": [
          {
            "reference": "Task/160.000.036.963.033.97"
          }
        ],
        "status": "unknown",
        "about": [
          {
            "reference": "#326cdb95-6a09-45cc-93f6-388e0b1575f0"
          }
        ],
        "sent": "2023-03-28T22:12:48.890+00:00",
        "recipient": [
          {
            "identifier": {
              "system": "https://gematik.de/fhir/sid/telematik-id",
              "value": "1-2-ARZT-BerndClaudius01"
            }
          }
        ],
        "sender": {
          "identifier": {
            "system": "http://fhir.de/sid/gkv/kvid-10",
            "value": "X110498565"
          }
        },
        "payload": [
          {
            "extension": [
              {
                "url": "https://gematik.de/fhir/erp/StructureDefinition/GEM_ERP_EX_InsuranceProvider",
                "valueIdentifier": {
                  "system": "http://fhir.de/sid/arge-ik/iknr",
                  "value": "361247383"
                }
              },
              {
                "url": "https://gematik.de/fhir/erp/StructureDefinition/GEM_ERP_EX_SubstitutionAllowedType",
                "valueBoolean": true
              },
              {
                "url": "https://gematik.de/fhir/erp/StructureDefinition/GEM_ERP_EX_PrescriptionType",
                "valueCoding": {
                  "system": "https://gematik.de/fhir/erp/CodeSystem/GEM_ERP_CS_FlowType",
                  "code": "160",
                  "display": "Muster 16 (Apothekenpflichtige Arzneimittel)"
                }
              }
            ],
            "contentString": "I won't enjoy it."
          }
        ]
      },
      "search": {
        "mode": "match"
      }
    },
    {
      "fullUrl": "https://erp-dev.zentral.erp.splitdns.ti-dienste.de/Communication/01eba290-0edd-a080-1373-421990fd189b",
      "resource": {
        "resourceType": "Communication",
        "id": "01eba290-0edd-a080-1373-421990fd189b",
        "meta": {
          "profile": [
            "https://gematik.de/fhir/erp/StructureDefinition/GEM_ERP_PR_Communication_InfoReq|1.2"
          ]
        },
        "contained": [
          {
            "resourceType": "Medication",
            "id": "1b39a70c-0165-457e-a87e-06784fd84df7",
            "meta": {
              "profile": [
                "https://fhir.kbv.de/StructureDefinition/KBV_PR_ERP_Medication_PZN|1.1.0"
              ]
            },
            "extension": [
              {
                "url": "https://fhir.kbv.de/StructureDefinition/KBV_EX_Base_Medication_Type",
                "valueCodeableConcept": {
                  "coding": [
                    {
                      "system": "http://snomed.info/sct",
                      "version": "http://snomed.info/sct/900000000000207008/version/20220331",
                      "code": "763158003",
                      "display": "Medicinal product (product)"
                    }
                  ]
                }
              },
              {
                "url": "https://fhir.kbv.de/StructureDefinition/KBV_EX_ERP_Medication_Category",
                "valueCoding": {
                  "system": "https://fhir.kbv.de/CodeSystem/KBV_CS_ERP_Medication_Category",
                  "code": "00"
                }
              },
              {
                "url": "https://fhir.kbv.de/StructureDefinition/KBV_EX_ERP_Medication_Vaccine",
                "valueBoolean": false
              },
              {
                "url": "http://fhir.de/StructureDefinition/normgroesse",
                "valueCode": "NB"
              }
            ],
            "code": {
              "coding": [
                {
                  "system": "http://fhir.de/CodeSystem/ifa/pzn",
                  "code": "12345678"
                }
              ],
              "text": "Schmerzmittel"
            },
            "form": {
              "coding": [
                {
                  "system": "https://fhir.kbv.de/CodeSystem/KBV_CS_SFHIR_KBV_DARREICHUNGSFORM",
                  "code": "TAB"
                }
              ]
            },
            "amount": {
              "numerator": {
                "extension": [
                  {
                    "url": "https://fhir.kbv.de/StructureDefinition/KBV_EX_ERP_Medication_PackagingSize",
                    "valueString": "1"
                  }
                ],
                "unit": "Stk"
              },
              "denominator": {
                "value": 1
              }
            }
          }
        ],
        "basedOn": [
          {
            "reference": "Task/160.000.036.965.837.27"
          }
        ],
        "status": "unknown",
        "about": [
          {
            "reference": "#1b39a70c-0165-457e-a87e-06784fd84df7"
          }
        ],
        "sent": "2023-04-06T22:12:53.328+00:00",
        "recipient": [
          {
            "identifier": {
              "system": "https://gematik.de/fhir/sid/telematik-id",
              "value": "1-2-ARZT-BerndClaudius01"
            }
          }
        ],
        "sender": {
          "identifier": {
            "system": "http://fhir.de/sid/gkv/kvid-10",
            "value": "X110498565"
          }
        },
        "payload": [
          {
            "extension": [
              {
                "url": "https://gematik.de/fhir/erp/StructureDefinition/GEM_ERP_EX_InsuranceProvider",
                "valueIdentifier": {
                  "system": "http://fhir.de/sid/arge-ik/iknr",
                  "value": "374715966"
                }
              },
              {
                "url": "https://gematik.de/fhir/erp/StructureDefinition/GEM_ERP_EX_SubstitutionAllowedType",
                "valueBoolean": true
              },
              {
                "url": "https://gematik.de/fhir/erp/StructureDefinition/GEM_ERP_EX_PrescriptionType",
                "valueCoding": {
                  "system": "https://gematik.de/fhir/erp/CodeSystem/GEM_ERP_CS_FlowType",
                  "code": "160",
                  "display": "Muster 16 (Apothekenpflichtige Arzneimittel)"
                }
              }
            ],
            "contentString": "I won't enjoy it."
          }
        ]
      },
      "search": {
        "mode": "match"
      }
    },
    {
      "fullUrl": "https://erp-dev.zentral.erp.splitdns.ti-dienste.de/Communication/01eb9db2-e63d-bb88-c302-193f62fd3b05",
      "resource": {
        "resourceType": "Communication",
        "id": "01eb9db2-e63d-bb88-c302-193f62fd3b05",
        "meta": {
          "profile": [
            "https://gematik.de/fhir/erp/StructureDefinition/GEM_ERP_PR_Communication_InfoReq|1.2"
          ]
        },
        "contained": [
          {
            "resourceType": "Medication",
            "id": "16988dea-25d3-447a-aebb-49aac6259552",
            "meta": {
              "profile": [
                "https://fhir.kbv.de/StructureDefinition/KBV_PR_ERP_Medication_PZN|1.1.0"
              ]
            },
            "extension": [
              {
                "url": "https://fhir.kbv.de/StructureDefinition/KBV_EX_Base_Medication_Type",
                "valueCodeableConcept": {
                  "coding": [
                    {
                      "system": "http://snomed.info/sct",
                      "version": "http://snomed.info/sct/900000000000207008/version/20220331",
                      "code": "763158003",
                      "display": "Medicinal product (product)"
                    }
                  ]
                }
              },
              {
                "url": "https://fhir.kbv.de/StructureDefinition/KBV_EX_ERP_Medication_Category",
                "valueCoding": {
                  "system": "https://fhir.kbv.de/CodeSystem/KBV_CS_ERP_Medication_Category",
                  "code": "00"
                }
              },
              {
                "url": "https://fhir.kbv.de/StructureDefinition/KBV_EX_ERP_Medication_Vaccine",
                "valueBoolean": false
              },
              {
                "url": "http://fhir.de/StructureDefinition/normgroesse",
                "valueCode": "NB"
              }
            ],
            "code": {
              "coding": [
                {
                  "system": "http://fhir.de/CodeSystem/ifa/pzn",
                  "code": "12345678"
                }
              ],
              "text": "Schmerzmittel"
            },
            "form": {
              "coding": [
                {
                  "system": "https://fhir.kbv.de/CodeSystem/KBV_CS_SFHIR_KBV_DARREICHUNGSFORM",
                  "code": "TAB"
                }
              ]
            },
            "amount": {
              "numerator": {
                "extension": [
                  {
                    "url": "https://fhir.kbv.de/StructureDefinition/KBV_EX_ERP_Medication_PackagingSize",
                    "valueString": "1"
                  }
                ],
                "unit": "Stk"
              },
              "denominator": {
                "value": 1
              }
            }
          }
        ],
        "basedOn": [
          {
            "reference": "Task/160.000.031.340.052.61"
          }
        ],
        "status": "unknown",
        "about": [
          {
            "reference": "#16988dea-25d3-447a-aebb-49aac6259552"
          }
        ],
        "sent": "2023-02-04T00:40:57.477+00:00",
        "recipient": [
          {
            "identifier": {
              "system": "https://gematik.de/fhir/sid/telematik-id",
              "value": "1-2-ARZT-DamianClaudius01"
            }
          }
        ],
        "sender": {
          "identifier": {
            "system": "http://fhir.de/sid/gkv/kvid-10",
            "value": "X110498565"
          }
        },
        "payload": [
          {
            "extension": [
              {
                "url": "https://gematik.de/fhir/erp/StructureDefinition/GEM_ERP_EX_InsuranceProvider",
                "valueIdentifier": {
                  "system": "http://fhir.de/sid/arge-ik/iknr",
                  "value": "607199779"
                }
              },
              {
                "url": "https://gematik.de/fhir/erp/StructureDefinition/GEM_ERP_EX_SubstitutionAllowedType",
                "valueBoolean": true
              },
              {
                "url": "https://gematik.de/fhir/erp/StructureDefinition/GEM_ERP_EX_PrescriptionType",
                "valueCoding": {
                  "system": "https://gematik.de/fhir/erp/CodeSystem/GEM_ERP_CS_FlowType",
                  "code": "160",
                  "display": "Muster 16 (Apothekenpflichtige Arzneimittel)"
                }
              }
            ],
            "contentString": "You think you've got problems? What are you supposed to do if you are a manically depressed robot? No, don't try to answer that. I'm fifty thousand times more intelligent than you and even I don't know the answer. It gives me a headache just trying to think down to your level."
          }
        ]
      },
      "search": {
        "mode": "match"
      }
    },
    {
      "fullUrl": "https://erp-dev.zentral.erp.splitdns.ti-dienste.de/Communication/01eb9e75-5986-6be0-5b1b-4db4436e176f",
      "resource": {
        "resourceType": "Communication",
        "id": "01eb9e75-5986-6be0-5b1b-4db4436e176f",
        "meta": {
          "profile": [
            "https://gematik.de/fhir/erp/StructureDefinition/GEM_ERP_PR_Communication_InfoReq|1.2"
          ]
        },
        "contained": [
          {
            "resourceType": "Medication",
            "id": "4ffe5c60-a7c5-46e6-b71b-1ee176d274dc",
            "meta": {
              "profile": [
                "https://fhir.kbv.de/StructureDefinition/KBV_PR_ERP_Medication_PZN|1.1.0"
              ]
            },
            "extension": [
              {
                "url": "https://fhir.kbv.de/StructureDefinition/KBV_EX_Base_Medication_Type",
                "valueCodeableConcept": {
                  "coding": [
                    {
                      "system": "http://snomed.info/sct",
                      "version": "http://snomed.info/sct/900000000000207008/version/20220331",
                      "code": "763158003",
                      "display": "Medicinal product (product)"
                    }
                  ]
                }
              },
              {
                "url": "https://fhir.kbv.de/StructureDefinition/KBV_EX_ERP_Medication_Category",
                "valueCoding": {
                  "system": "https://fhir.kbv.de/CodeSystem/KBV_CS_ERP_Medication_Category",
                  "code": "00"
                }
              },
              {
                "url": "https://fhir.kbv.de/StructureDefinition/KBV_EX_ERP_Medication_Vaccine",
                "valueBoolean": false
              },
              {
                "url": "http://fhir.de/StructureDefinition/normgroesse",
                "valueCode": "NB"
              }
            ],
            "code": {
              "coding": [
                {
                  "system": "http://fhir.de/CodeSystem/ifa/pzn",
                  "code": "12345678"
                }
              ],
              "text": "Schmerzmittel"
            },
            "form": {
              "coding": [
                {
                  "system": "https://fhir.kbv.de/CodeSystem/KBV_CS_SFHIR_KBV_DARREICHUNGSFORM",
                  "code": "TAB"
                }
              ]
            },
            "amount": {
              "numerator": {
                "extension": [
                  {
                    "url": "https://fhir.kbv.de/StructureDefinition/KBV_EX_ERP_Medication_PackagingSize",
                    "valueString": "1"
                  }
                ],
                "unit": "Stk"
              },
              "denominator": {
                "value": 1
              }
            }
          }
        ],
        "basedOn": [
          {
            "reference": "Task/160.000.032.708.349.16"
          }
        ],
        "status": "unknown",
        "about": [
          {
            "reference": "#4ffe5c60-a7c5-46e6-b71b-1ee176d274dc"
          }
        ],
        "sent": "2023-02-13T16:40:15.276+00:00",
        "recipient": [
          {
            "identifier": {
              "system": "https://gematik.de/fhir/sid/telematik-id",
              "value": "1-2-ARZT-BerndClaudius01"
            }
          }
        ],
        "sender": {
          "identifier": {
            "system": "http://fhir.de/sid/gkv/kvid-10",
            "value": "X110498565"
          }
        },
        "payload": [
          {
            "extension": [
              {
                "url": "https://gematik.de/fhir/erp/StructureDefinition/GEM_ERP_EX_InsuranceProvider",
                "valueIdentifier": {
                  "system": "http://fhir.de/sid/arge-ik/iknr",
                  "value": "155053167"
                }
              },
              {
                "url": "https://gematik.de/fhir/erp/StructureDefinition/GEM_ERP_EX_SubstitutionAllowedType",
                "valueBoolean": true
              },
              {
                "url": "https://gematik.de/fhir/erp/StructureDefinition/GEM_ERP_EX_PrescriptionType",
                "valueCoding": {
                  "system": "https://gematik.de/fhir/erp/CodeSystem/GEM_ERP_CS_FlowType",
                  "code": "160",
                  "display": "Muster 16 (Apothekenpflichtige Arzneimittel)"
                }
              }
            ],
            "contentString": "Here I am, brain the size of a planet, and they tell me to take you up to the bridge. Call that job satisfaction? 'Cos I don't."
          }
        ]
      },
      "search": {
        "mode": "match"
      }
    },
    {
      "fullUrl": "https://erp-dev.zentral.erp.splitdns.ti-dienste.de/Communication/01eb9bd8-14ce-0f70-ec50-6678829f47e3",
      "resource": {
        "resourceType": "Communication",
        "id": "01eb9bd8-14ce-0f70-ec50-6678829f47e3",
        "meta": {
          "profile": [
            "https://gematik.de/fhir/StructureDefinition/ErxCommunicationInfoReq"
          ]
        },
        "contained": [
          {
            "resourceType": "Medication",
            "id": "1ea3ce98-ca5f-45f1-87a1-860c18ad8e3e",
            "meta": {
              "profile": [
                "https://fhir.kbv.de/StructureDefinition/KBV_PR_ERP_Medication_PZN|1.0.2"
              ]
            },
            "extension": [
              {
                "url": "https://fhir.kbv.de/StructureDefinition/KBV_EX_ERP_Medication_Category",
                "valueCoding": {
                  "system": "https://fhir.kbv.de/CodeSystem/KBV_CS_ERP_Medication_Category",
                  "code": "00"
                }
              },
              {
                "url": "https://fhir.kbv.de/StructureDefinition/KBV_EX_ERP_Medication_Vaccine",
                "valueBoolean": false
              },
              {
                "url": "http://fhir.de/StructureDefinition/normgroesse",
                "valueCode": "NB"
              }
            ],
            "code": {
              "coding": [
                {
                  "system": "http://fhir.de/CodeSystem/ifa/pzn",
                  "code": "12345678"
                }
              ],
              "text": "Schmerzmittel"
            },
            "form": {
              "coding": [
                {
                  "system": "https://fhir.kbv.de/CodeSystem/KBV_CS_SFHIR_KBV_DARREICHUNGSFORM",
                  "code": "TAB"
                }
              ]
            },
            "amount": {
              "numerator": {
                "value": 1,
                "unit": "Stk"
              },
              "denominator": {
                "value": 1
              }
            }
          }
        ],
        "basedOn": [
          {
            "reference": "Task/160.000.031.317.861.92"
          }
        ],
        "status": "unknown",
        "about": [
          {
            "reference": "#1ea3ce98-ca5f-45f1-87a1-860c18ad8e3e"
          }
        ],
        "sent": "2023-01-11T10:12:09.222+00:00",
        "recipient": [
          {
            "identifier": {
              "system": "https://gematik.de/fhir/NamingSystem/TelematikID",
              "value": "1-2-ARZT-DamianClaudius01"
            }
          }
        ],
        "sender": {
          "identifier": {
            "system": "http://fhir.de/NamingSystem/gkv/kvid-10",
            "value": "X110498565"
          }
        },
        "payload": [
          {
            "extension": [
              {
                "url": "https://gematik.de/fhir/StructureDefinition/InsuranceProvider",
                "valueIdentifier": {
                  "system": "http://fhir.de/NamingSystem/arge-ik/iknr",
                  "value": "112665141"
                }
              },
              {
                "url": "https://gematik.de/fhir/StructureDefinition/SubstitutionAllowedType",
                "valueBoolean": true
              },
              {
                "url": "https://gematik.de/fhir/StructureDefinition/PrescriptionType",
                "valueCoding": {
                  "system": "https://gematik.de/fhir/CodeSystem/Flowtype",
                  "code": "160",
                  "display": "Muster 16 (Apothekenpflichtige Arzneimittel)"
                }
              }
            ],
            "contentString": "You think you've got problems? What are you supposed to do if you are a manically depressed robot? No, don't try to answer that. I'm fifty thousand times more intelligent than you and even I don't know the answer. It gives me a headache just trying to think down to your level."
          }
        ]
      },
      "search": {
        "mode": "match"
      }
    },
    {
      "fullUrl": "https://erp-dev.zentral.erp.splitdns.ti-dienste.de/Communication/01eb9fc4-a019-aa18-d5de-6d14cd4fd0a2",
      "resource": {
        "resourceType": "Communication",
        "id": "01eb9fc4-a019-aa18-d5de-6d14cd4fd0a2",
        "meta": {
          "profile": [
            "https://gematik.de/fhir/erp/StructureDefinition/GEM_ERP_PR_Communication_InfoReq|1.2"
          ]
        },
        "contained": [
          {
            "resourceType": "Medication",
            "id": "1292ee49-7d21-414f-aae7-d1154bd73217",
            "meta": {
              "profile": [
                "https://fhir.kbv.de/StructureDefinition/KBV_PR_ERP_Medication_PZN|1.1.0"
              ]
            },
            "extension": [
              {
                "url": "https://fhir.kbv.de/StructureDefinition/KBV_EX_Base_Medication_Type",
                "valueCodeableConcept": {
                  "coding": [
                    {
                      "system": "http://snomed.info/sct",
                      "version": "http://snomed.info/sct/900000000000207008/version/20220331",
                      "code": "763158003",
                      "display": "Medicinal product (product)"
                    }
                  ]
                }
              },
              {
                "url": "https://fhir.kbv.de/StructureDefinition/KBV_EX_ERP_Medication_Category",
                "valueCoding": {
                  "system": "https://fhir.kbv.de/CodeSystem/KBV_CS_ERP_Medication_Category",
                  "code": "00"
                }
              },
              {
                "url": "https://fhir.kbv.de/StructureDefinition/KBV_EX_ERP_Medication_Vaccine",
                "valueBoolean": false
              },
              {
                "url": "http://fhir.de/StructureDefinition/normgroesse",
                "valueCode": "NB"
              }
            ],
            "code": {
              "coding": [
                {
                  "system": "http://fhir.de/CodeSystem/ifa/pzn",
                  "code": "12345678"
                }
              ],
              "text": "Schmerzmittel"
            },
            "form": {
              "coding": [
                {
                  "system": "https://fhir.kbv.de/CodeSystem/KBV_CS_SFHIR_KBV_DARREICHUNGSFORM",
                  "code": "TAB"
                }
              ]
            },
            "amount": {
              "numerator": {
                "extension": [
                  {
                    "url": "https://fhir.kbv.de/StructureDefinition/KBV_EX_ERP_Medication_PackagingSize",
                    "valueString": "1"
                  }
                ],
                "unit": "Stk"
              },
              "denominator": {
                "value": 1
              }
            }
          }
        ],
        "basedOn": [
          {
            "reference": "Task/160.000.032.731.496.27"
          }
        ],
        "status": "unknown",
        "about": [
          {
            "reference": "#1292ee49-7d21-414f-aae7-d1154bd73217"
          }
        ],
        "sent": "2023-03-02T08:40:13.375+00:00",
        "recipient": [
          {
            "identifier": {
              "system": "https://gematik.de/fhir/sid/telematik-id",
              "value": "1-2-ARZT-BerndClaudius01"
            }
          }
        ],
        "sender": {
          "identifier": {
            "system": "http://fhir.de/sid/gkv/kvid-10",
            "value": "X110498565"
          }
        },
        "payload": [
          {
            "extension": [
              {
                "url": "https://gematik.de/fhir/erp/StructureDefinition/GEM_ERP_EX_InsuranceProvider",
                "valueIdentifier": {
                  "system": "http://fhir.de/sid/arge-ik/iknr",
                  "value": "264807169"
                }
              },
              {
                "url": "https://gematik.de/fhir/erp/StructureDefinition/GEM_ERP_EX_SubstitutionAllowedType",
                "valueBoolean": true
              },
              {
                "url": "https://gematik.de/fhir/erp/StructureDefinition/GEM_ERP_EX_PrescriptionType",
                "valueCoding": {
                  "system": "https://gematik.de/fhir/erp/CodeSystem/GEM_ERP_CS_FlowType",
                  "code": "160",
                  "display": "Muster 16 (Apothekenpflichtige Arzneimittel)"
                }
              }
            ],
            "contentString": "Life? Don't talk to me about life."
          }
        ]
      },
      "search": {
        "mode": "match"
      }
    },
    {
      "fullUrl": "https://erp-dev.zentral.erp.splitdns.ti-dienste.de/Communication/01eb9db7-ed5c-e420-0364-5293b34efa5b",
      "resource": {
        "resourceType": "Communication",
        "id": "01eb9db7-ed5c-e420-0364-5293b34efa5b",
        "meta": {
          "profile": [
            "https://gematik.de/fhir/erp/StructureDefinition/GEM_ERP_PR_Communication_InfoReq|1.2"
          ]
        },
        "contained": [
          {
            "resourceType": "Medication",
            "id": "149a2eb0-bbea-4ea8-a749-357ec922c77c",
            "meta": {
              "profile": [
                "https://fhir.kbv.de/StructureDefinition/KBV_PR_ERP_Medication_PZN|1.1.0"
              ]
            },
            "extension": [
              {
                "url": "https://fhir.kbv.de/StructureDefinition/KBV_EX_Base_Medication_Type",
                "valueCodeableConcept": {
                  "coding": [
                    {
                      "system": "http://snomed.info/sct",
                      "version": "http://snomed.info/sct/900000000000207008/version/20220331",
                      "code": "763158003",
                      "display": "Medicinal product (product)"
                    }
                  ]
                }
              },
              {
                "url": "https://fhir.kbv.de/StructureDefinition/KBV_EX_ERP_Medication_Category",
                "valueCoding": {
                  "system": "https://fhir.kbv.de/CodeSystem/KBV_CS_ERP_Medication_Category",
                  "code": "00"
                }
              },
              {
                "url": "https://fhir.kbv.de/StructureDefinition/KBV_EX_ERP_Medication_Vaccine",
                "valueBoolean": false
              },
              {
                "url": "http://fhir.de/StructureDefinition/normgroesse",
                "valueCode": "NB"
              }
            ],
            "code": {
              "coding": [
                {
                  "system": "http://fhir.de/CodeSystem/ifa/pzn",
                  "code": "12345678"
                }
              ],
              "text": "Schmerzmittel"
            },
            "form": {
              "coding": [
                {
                  "system": "https://fhir.kbv.de/CodeSystem/KBV_CS_SFHIR_KBV_DARREICHUNGSFORM",
                  "code": "TAB"
                }
              ]
            },
            "amount": {
              "numerator": {
                "extension": [
                  {
                    "url": "https://fhir.kbv.de/StructureDefinition/KBV_EX_ERP_Medication_PackagingSize",
                    "valueString": "1"
                  }
                ],
                "unit": "Stk"
              },
              "denominator": {
                "value": 1
              }
            }
          }
        ],
        "basedOn": [
          {
            "reference": "Task/160.000.031.340.835.40"
          }
        ],
        "status": "unknown",
        "about": [
          {
            "reference": "#149a2eb0-bbea-4ea8-a749-357ec922c77c"
          }
        ],
        "sent": "2023-02-04T06:40:51.796+00:00",
        "recipient": [
          {
            "identifier": {
              "system": "https://gematik.de/fhir/sid/telematik-id",
              "value": "1-2-ARZT-DamianClaudius01"
            }
          }
        ],
        "sender": {
          "identifier": {
            "system": "http://fhir.de/sid/gkv/kvid-10",
            "value": "X110498565"
          }
        },
        "payload": [
          {
            "extension": [
              {
                "url": "https://gematik.de/fhir/erp/StructureDefinition/GEM_ERP_EX_InsuranceProvider",
                "valueIdentifier": {
                  "system": "http://fhir.de/sid/arge-ik/iknr",
                  "value": "663688246"
                }
              },
              {
                "url": "https://gematik.de/fhir/erp/StructureDefinition/GEM_ERP_EX_SubstitutionAllowedType",
                "valueBoolean": true
              },
              {
                "url": "https://gematik.de/fhir/erp/StructureDefinition/GEM_ERP_EX_PrescriptionType",
                "valueCoding": {
                  "system": "https://gematik.de/fhir/erp/CodeSystem/GEM_ERP_CS_FlowType",
                  "code": "160",
                  "display": "Muster 16 (Apothekenpflichtige Arzneimittel)"
                }
              }
            ],
            "contentString": "Pardon me for breathing, which I never do anyway so I don't know why I bother to say it, Oh God, I'm so depressed."
          }
        ]
      },
      "search": {
        "mode": "match"
      }
    },
    {
      "fullUrl": "https://erp-dev.zentral.erp.splitdns.ti-dienste.de/Communication/01eb9d8a-aa66-8bf8-30da-931ee1171fed",
      "resource": {
        "resourceType": "Communication",
        "id": "01eb9d8a-aa66-8bf8-30da-931ee1171fed",
        "meta": {
          "profile": [
            "https://gematik.de/fhir/erp/StructureDefinition/GEM_ERP_PR_Communication_InfoReq|1.2"
          ]
        },
        "contained": [
          {
            "resourceType": "Medication",
            "id": "a0b78b8b-ca06-44b5-991f-ebfffa98e344",
            "meta": {
              "profile": [
                "https://fhir.kbv.de/StructureDefinition/KBV_PR_ERP_Medication_PZN|1.1.0"
              ]
            },
            "extension": [
              {
                "url": "https://fhir.kbv.de/StructureDefinition/KBV_EX_Base_Medication_Type",
                "valueCodeableConcept": {
                  "coding": [
                    {
                      "system": "http://snomed.info/sct",
                      "version": "http://snomed.info/sct/900000000000207008/version/20220331",
                      "code": "763158003",
                      "display": "Medicinal product (product)"
                    }
                  ]
                }
              },
              {
                "url": "https://fhir.kbv.de/StructureDefinition/KBV_EX_ERP_Medication_Category",
                "valueCoding": {
                  "system": "https://fhir.kbv.de/CodeSystem/KBV_CS_ERP_Medication_Category",
                  "code": "00"
                }
              },
              {
                "url": "https://fhir.kbv.de/StructureDefinition/KBV_EX_ERP_Medication_Vaccine",
                "valueBoolean": false
              },
              {
                "url": "http://fhir.de/StructureDefinition/normgroesse",
                "valueCode": "NB"
              }
            ],
            "code": {
              "coding": [
                {
                  "system": "http://fhir.de/CodeSystem/ifa/pzn",
                  "code": "12345678"
                }
              ],
              "text": "Schmerzmittel"
            },
            "form": {
              "coding": [
                {
                  "system": "https://fhir.kbv.de/CodeSystem/KBV_CS_SFHIR_KBV_DARREICHUNGSFORM",
                  "code": "TAB"
                }
              ]
            },
            "amount": {
              "numerator": {
                "extension": [
                  {
                    "url": "https://fhir.kbv.de/StructureDefinition/KBV_EX_ERP_Medication_PackagingSize",
                    "valueString": "1"
                  }
                ],
                "unit": "Stk"
              },
              "denominator": {
                "value": 1
              }
            }
          }
        ],
        "basedOn": [
          {
            "reference": "Task/160.000.031.333.265.52"
          }
        ],
        "status": "unknown",
        "about": [
          {
            "reference": "#a0b78b8b-ca06-44b5-991f-ebfffa98e344"
          }
        ],
        "sent": "2023-02-02T00:40:54.827+00:00",
        "recipient": [
          {
            "identifier": {
              "system": "https://gematik.de/fhir/sid/telematik-id",
              "value": "1-2-ARZT-DamianClaudius01"
            }
          }
        ],
        "sender": {
          "identifier": {
            "system": "http://fhir.de/sid/gkv/kvid-10",
            "value": "X110498565"
          }
        },
        "payload": [
          {
            "extension": [
              {
                "url": "https://gematik.de/fhir/erp/StructureDefinition/GEM_ERP_EX_InsuranceProvider",
                "valueIdentifier": {
                  "system": "http://fhir.de/sid/arge-ik/iknr",
                  "value": "798193847"
                }
              },
              {
                "url": "https://gematik.de/fhir/erp/StructureDefinition/GEM_ERP_EX_SubstitutionAllowedType",
                "valueBoolean": true
              },
              {
                "url": "https://gematik.de/fhir/erp/StructureDefinition/GEM_ERP_EX_PrescriptionType",
                "valueCoding": {
                  "system": "https://gematik.de/fhir/erp/CodeSystem/GEM_ERP_CS_FlowType",
                  "code": "160",
                  "display": "Muster 16 (Apothekenpflichtige Arzneimittel)"
                }
              }
            ],
            "contentString": "I think you ought to know I'm feeling very depressed."
          }
        ]
      },
      "search": {
        "mode": "match"
      }
    },
    {
      "fullUrl": "https://erp-dev.zentral.erp.splitdns.ti-dienste.de/Communication/01eb9ea0-f380-8c00-b636-81be863d0f23",
      "resource": {
        "resourceType": "Communication",
        "id": "01eb9ea0-f380-8c00-b636-81be863d0f23",
        "meta": {
          "profile": [
            "https://gematik.de/fhir/erp/StructureDefinition/GEM_ERP_PR_Communication_InfoReq|1.2"
          ]
        },
        "contained": [
          {
            "resourceType": "Medication",
            "id": "08c774af-21b9-4ec9-ae22-8eb9994e6b05",
            "meta": {
              "profile": [
                "https://fhir.kbv.de/StructureDefinition/KBV_PR_ERP_Medication_PZN|1.1.0"
              ]
            },
            "extension": [
              {
                "url": "https://fhir.kbv.de/StructureDefinition/KBV_EX_Base_Medication_Type",
                "valueCodeableConcept": {
                  "coding": [
                    {
                      "system": "http://snomed.info/sct",
                      "version": "http://snomed.info/sct/900000000000207008/version/20220331",
                      "code": "763158003",
                      "display": "Medicinal product (product)"
                    }
                  ]
                }
              },
              {
                "url": "https://fhir.kbv.de/StructureDefinition/KBV_EX_ERP_Medication_Category",
                "valueCoding": {
                  "system": "https://fhir.kbv.de/CodeSystem/KBV_CS_ERP_Medication_Category",
                  "code": "00"
                }
              },
              {
                "url": "https://fhir.kbv.de/StructureDefinition/KBV_EX_ERP_Medication_Vaccine",
                "valueBoolean": false
              },
              {
                "url": "http://fhir.de/StructureDefinition/normgroesse",
                "valueCode": "NB"
              }
            ],
            "code": {
              "coding": [
                {
                  "system": "http://fhir.de/CodeSystem/ifa/pzn",
                  "code": "12345678"
                }
              ],
              "text": "Schmerzmittel"
            },
            "form": {
              "coding": [
                {
                  "system": "https://fhir.kbv.de/CodeSystem/KBV_CS_SFHIR_KBV_DARREICHUNGSFORM",
                  "code": "TAB"
                }
              ]
            },
            "amount": {
              "numerator": {
                "extension": [
                  {
                    "url": "https://fhir.kbv.de/StructureDefinition/KBV_EX_ERP_Medication_PackagingSize",
                    "valueString": "1"
                  }
                ],
                "unit": "Stk"
              },
              "denominator": {
                "value": 1
              }
            }
          }
        ],
        "basedOn": [
          {
            "reference": "Task/160.000.032.716.111.10"
          }
        ],
        "status": "unknown",
        "about": [
          {
            "reference": "#08c774af-21b9-4ec9-ae22-8eb9994e6b05"
          }
        ],
        "sent": "2023-02-15T20:41:22.176+00:00",
        "recipient": [
          {
            "identifier": {
              "system": "https://gematik.de/fhir/sid/telematik-id",
              "value": "1-2-ARZT-BerndClaudius01"
            }
          }
        ],
        "sender": {
          "identifier": {
            "system": "http://fhir.de/sid/gkv/kvid-10",
            "value": "X110498565"
          }
        },
        "payload": [
          {
            "extension": [
              {
                "url": "https://gematik.de/fhir/erp/StructureDefinition/GEM_ERP_EX_InsuranceProvider",
                "valueIdentifier": {
                  "system": "http://fhir.de/sid/arge-ik/iknr",
                  "value": "430213167"
                }
              },
              {
                "url": "https://gematik.de/fhir/erp/StructureDefinition/GEM_ERP_EX_SubstitutionAllowedType",
                "valueBoolean": true
              },
              {
                "url": "https://gematik.de/fhir/erp/StructureDefinition/GEM_ERP_EX_PrescriptionType",
                "valueCoding": {
                  "system": "https://gematik.de/fhir/erp/CodeSystem/GEM_ERP_CS_FlowType",
                  "code": "160",
                  "display": "Muster 16 (Apothekenpflichtige Arzneimittel)"
                }
              }
            ],
            "contentString": "And then of course I've got this terrible pain in all the diodes down my left side."
          }
        ]
      },
      "search": {
        "mode": "match"
      }
    },
    {
      "fullUrl": "https://erp-dev.zentral.erp.splitdns.ti-dienste.de/Communication/01eb9d80-96cc-fbb8-e42f-a84757e177d9",
      "resource": {
        "resourceType": "Communication",
        "id": "01eb9d80-96cc-fbb8-e42f-a84757e177d9",
        "meta": {
          "profile": [
            "https://gematik.de/fhir/erp/StructureDefinition/GEM_ERP_PR_Communication_InfoReq|1.2"
          ]
        },
        "contained": [
          {
            "resourceType": "Medication",
            "id": "2547cd84-d24e-45cf-aabb-07ebe9811e9d",
            "meta": {
              "profile": [
                "https://fhir.kbv.de/StructureDefinition/KBV_PR_ERP_Medication_PZN|1.1.0"
              ]
            },
            "extension": [
              {
                "url": "https://fhir.kbv.de/StructureDefinition/KBV_EX_Base_Medication_Type",
                "valueCodeableConcept": {
                  "coding": [
                    {
                      "system": "http://snomed.info/sct",
                      "version": "http://snomed.info/sct/900000000000207008/version/20220331",
                      "code": "763158003",
                      "display": "Medicinal product (product)"
                    }
                  ]
                }
              },
              {
                "url": "https://fhir.kbv.de/StructureDefinition/KBV_EX_ERP_Medication_Category",
                "valueCoding": {
                  "system": "https://fhir.kbv.de/CodeSystem/KBV_CS_ERP_Medication_Category",
                  "code": "00"
                }
              },
              {
                "url": "https://fhir.kbv.de/StructureDefinition/KBV_EX_ERP_Medication_Vaccine",
                "valueBoolean": false
              },
              {
                "url": "http://fhir.de/StructureDefinition/normgroesse",
                "valueCode": "NB"
              }
            ],
            "code": {
              "coding": [
                {
                  "system": "http://fhir.de/CodeSystem/ifa/pzn",
                  "code": "12345678"
                }
              ],
              "text": "Schmerzmittel"
            },
            "form": {
              "coding": [
                {
                  "system": "https://fhir.kbv.de/CodeSystem/KBV_CS_SFHIR_KBV_DARREICHUNGSFORM",
                  "code": "TAB"
                }
              ]
            },
            "amount": {
              "numerator": {
                "extension": [
                  {
                    "url": "https://fhir.kbv.de/StructureDefinition/KBV_EX_ERP_Medication_PackagingSize",
                    "valueString": "1"
                  }
                ],
                "unit": "Stk"
              },
              "denominator": {
                "value": 1
              }
            }
          }
        ],
        "basedOn": [
          {
            "reference": "Task/160.000.031.331.692.18"
          }
        ],
        "status": "unknown",
        "about": [
          {
            "reference": "#2547cd84-d24e-45cf-aabb-07ebe9811e9d"
          }
        ],
        "sent": "2023-02-01T12:39:36.323+00:00",
        "recipient": [
          {
            "identifier": {
              "system": "https://gematik.de/fhir/sid/telematik-id",
              "value": "1-2-ARZT-DamianClaudius01"
            }
          }
        ],
        "sender": {
          "identifier": {
            "system": "http://fhir.de/sid/gkv/kvid-10",
            "value": "X110498565"
          }
        },
        "payload": [
          {
            "extension": [
              {
                "url": "https://gematik.de/fhir/erp/StructureDefinition/GEM_ERP_EX_InsuranceProvider",
                "valueIdentifier": {
                  "system": "http://fhir.de/sid/arge-ik/iknr",
                  "value": "618432265"
                }
              },
              {
                "url": "https://gematik.de/fhir/erp/StructureDefinition/GEM_ERP_EX_SubstitutionAllowedType",
                "valueBoolean": true
              },
              {
                "url": "https://gematik.de/fhir/erp/StructureDefinition/GEM_ERP_EX_PrescriptionType",
                "valueCoding": {
                  "system": "https://gematik.de/fhir/erp/CodeSystem/GEM_ERP_CS_FlowType",
                  "code": "160",
                  "display": "Muster 16 (Apothekenpflichtige Arzneimittel)"
                }
              }
            ],
            "contentString": "I wish you'd just tell me rather trying to engage my enthusiasm, because I haven't got one."
          }
        ]
      },
      "search": {
        "mode": "match"
      }
    },
    {
      "fullUrl": "https://erp-dev.zentral.erp.splitdns.ti-dienste.de/Communication/01eb9da0-79fa-5c18-8d46-e6f6d3228cad",
      "resource": {
        "resourceType": "Communication",
        "id": "01eb9da0-79fa-5c18-8d46-e6f6d3228cad",
        "meta": {
          "profile": [
            "https://gematik.de/fhir/erp/StructureDefinition/GEM_ERP_PR_Communication_InfoReq|1.2"
          ]
        },
        "contained": [
          {
            "resourceType": "Medication",
            "id": "dad1a751-6a13-4cec-b5da-f136ae247841",
            "meta": {
              "profile": [
                "https://fhir.kbv.de/StructureDefinition/KBV_PR_ERP_Medication_PZN|1.1.0"
              ]
            },
            "extension": [
              {
                "url": "https://fhir.kbv.de/StructureDefinition/KBV_EX_Base_Medication_Type",
                "valueCodeableConcept": {
                  "coding": [
                    {
                      "system": "http://snomed.info/sct",
                      "version": "http://snomed.info/sct/900000000000207008/version/20220331",
                      "code": "763158003",
                      "display": "Medicinal product (product)"
                    }
                  ]
                }
              },
              {
                "url": "https://fhir.kbv.de/StructureDefinition/KBV_EX_ERP_Medication_Category",
                "valueCoding": {
                  "system": "https://fhir.kbv.de/CodeSystem/KBV_CS_ERP_Medication_Category",
                  "code": "00"
                }
              },
              {
                "url": "https://fhir.kbv.de/StructureDefinition/KBV_EX_ERP_Medication_Vaccine",
                "valueBoolean": false
              },
              {
                "url": "http://fhir.de/StructureDefinition/normgroesse",
                "valueCode": "NB"
              }
            ],
            "code": {
              "coding": [
                {
                  "system": "http://fhir.de/CodeSystem/ifa/pzn",
                  "code": "12345678"
                }
              ],
              "text": "Schmerzmittel"
            },
            "form": {
              "coding": [
                {
                  "system": "https://fhir.kbv.de/CodeSystem/KBV_CS_SFHIR_KBV_DARREICHUNGSFORM",
                  "code": "TAB"
                }
              ]
            },
            "amount": {
              "numerator": {
                "extension": [
                  {
                    "url": "https://fhir.kbv.de/StructureDefinition/KBV_EX_ERP_Medication_PackagingSize",
                    "valueString": "1"
                  }
                ],
                "unit": "Stk"
              },
              "denominator": {
                "value": 1
              }
            }
          }
        ],
        "basedOn": [
          {
            "reference": "Task/160.000.031.336.919.51"
          }
        ],
        "status": "unknown",
        "about": [
          {
            "reference": "#dad1a751-6a13-4cec-b5da-f136ae247841"
          }
        ],
        "sent": "2023-02-03T02:42:11.711+00:00",
        "recipient": [
          {
            "identifier": {
              "system": "https://gematik.de/fhir/sid/telematik-id",
              "value": "1-2-ARZT-DamianClaudius01"
            }
          }
        ],
        "sender": {
          "identifier": {
            "system": "http://fhir.de/sid/gkv/kvid-10",
            "value": "X110498565"
          }
        },
        "payload": [
          {
            "extension": [
              {
                "url": "https://gematik.de/fhir/erp/StructureDefinition/GEM_ERP_EX_InsuranceProvider",
                "valueIdentifier": {
                  "system": "http://fhir.de/sid/arge-ik/iknr",
                  "value": "388494132"
                }
              },
              {
                "url": "https://gematik.de/fhir/erp/StructureDefinition/GEM_ERP_EX_SubstitutionAllowedType",
                "valueBoolean": true
              },
              {
                "url": "https://gematik.de/fhir/erp/StructureDefinition/GEM_ERP_EX_PrescriptionType",
                "valueCoding": {
                  "system": "https://gematik.de/fhir/erp/CodeSystem/GEM_ERP_CS_FlowType",
                  "code": "160",
                  "display": "Muster 16 (Apothekenpflichtige Arzneimittel)"
                }
              }
            ],
            "contentString": "I wish you'd just tell me rather trying to engage my enthusiasm, because I haven't got one."
          }
        ]
      },
      "search": {
        "mode": "match"
      }
    },
    {
      "fullUrl": "https://erp-dev.zentral.erp.splitdns.ti-dienste.de/Communication/01eb9fc7-c7b5-5088-2556-a07ea6702c7d",
      "resource": {
        "resourceType": "Communication",
        "id": "01eb9fc7-c7b5-5088-2556-a07ea6702c7d",
        "meta": {
          "profile": [
            "https://gematik.de/fhir/erp/StructureDefinition/GEM_ERP_PR_Communication_InfoReq|1.2"
          ]
        },
        "contained": [
          {
            "resourceType": "Medication",
            "id": "219b6c8b-96ae-4d13-9be4-f19143e5084d",
            "meta": {
              "profile": [
                "https://fhir.kbv.de/StructureDefinition/KBV_PR_ERP_Medication_PZN|1.1.0"
              ]
            },
            "extension": [
              {
                "url": "https://fhir.kbv.de/StructureDefinition/KBV_EX_Base_Medication_Type",
                "valueCodeableConcept": {
                  "coding": [
                    {
                      "system": "http://snomed.info/sct",
                      "version": "http://snomed.info/sct/900000000000207008/version/20220331",
                      "code": "763158003",
                      "display": "Medicinal product (product)"
                    }
                  ]
                }
              },
              {
                "url": "https://fhir.kbv.de/StructureDefinition/KBV_EX_ERP_Medication_Category",
                "valueCoding": {
                  "system": "https://fhir.kbv.de/CodeSystem/KBV_CS_ERP_Medication_Category",
                  "code": "00"
                }
              },
              {
                "url": "https://fhir.kbv.de/StructureDefinition/KBV_EX_ERP_Medication_Vaccine",
                "valueBoolean": false
              },
              {
                "url": "http://fhir.de/StructureDefinition/normgroesse",
                "valueCode": "NB"
              }
            ],
            "code": {
              "coding": [
                {
                  "system": "http://fhir.de/CodeSystem/ifa/pzn",
                  "code": "12345678"
                }
              ],
              "text": "Schmerzmittel"
            },
            "form": {
              "coding": [
                {
                  "system": "https://fhir.kbv.de/CodeSystem/KBV_CS_SFHIR_KBV_DARREICHUNGSFORM",
                  "code": "TAB"
                }
              ]
            },
            "amount": {
              "numerator": {
                "extension": [
                  {
                    "url": "https://fhir.kbv.de/StructureDefinition/KBV_EX_ERP_Medication_PackagingSize",
                    "valueString": "1"
                  }
                ],
                "unit": "Stk"
              },
              "denominator": {
                "value": 1
              }
            }
          }
        ],
        "basedOn": [
          {
            "reference": "Task/160.000.032.733.256.82"
          }
        ],
        "status": "unknown",
        "about": [
          {
            "reference": "#219b6c8b-96ae-4d13-9be4-f19143e5084d"
          }
        ],
        "sent": "2023-03-02T12:26:02.789+00:00",
        "recipient": [
          {
            "identifier": {
              "system": "https://gematik.de/fhir/sid/telematik-id",
              "value": "1-2-ARZT-BerndClaudius01"
            }
          }
        ],
        "sender": {
          "identifier": {
            "system": "http://fhir.de/sid/gkv/kvid-10",
            "value": "X110498565"
          }
        },
        "payload": [
          {
            "extension": [
              {
                "url": "https://gematik.de/fhir/erp/StructureDefinition/GEM_ERP_EX_InsuranceProvider",
                "valueIdentifier": {
                  "system": "http://fhir.de/sid/arge-ik/iknr",
                  "value": "191536579"
                }
              },
              {
                "url": "https://gematik.de/fhir/erp/StructureDefinition/GEM_ERP_EX_SubstitutionAllowedType",
                "valueBoolean": true
              },
              {
                "url": "https://gematik.de/fhir/erp/StructureDefinition/GEM_ERP_EX_PrescriptionType",
                "valueCoding": {
                  "system": "https://gematik.de/fhir/erp/CodeSystem/GEM_ERP_CS_FlowType",
                  "code": "160",
                  "display": "Muster 16 (Apothekenpflichtige Arzneimittel)"
                }
              }
            ],
            "contentString": "And then of course I've got this terrible pain in all the diodes down my left side."
          }
        ]
      },
      "search": {
        "mode": "match"
      }
    },
    {
      "fullUrl": "https://erp-dev.zentral.erp.splitdns.ti-dienste.de/Communication/01eb9fb5-4b87-2c78-a0d5-4f530bdcae8d",
      "resource": {
        "resourceType": "Communication",
        "id": "01eb9fb5-4b87-2c78-a0d5-4f530bdcae8d",
        "meta": {
          "profile": [
            "https://gematik.de/fhir/erp/StructureDefinition/GEM_ERP_PR_Communication_InfoReq|1.2"
          ]
        },
        "contained": [
          {
            "resourceType": "Medication",
            "id": "03957724-1ff3-4f3e-87c1-2472038db7b5",
            "meta": {
              "profile": [
                "https://fhir.kbv.de/StructureDefinition/KBV_PR_ERP_Medication_PZN|1.1.0"
              ]
            },
            "extension": [
              {
                "url": "https://fhir.kbv.de/StructureDefinition/KBV_EX_Base_Medication_Type",
                "valueCodeableConcept": {
                  "coding": [
                    {
                      "system": "http://snomed.info/sct",
                      "version": "http://snomed.info/sct/900000000000207008/version/20220331",
                      "code": "763158003",
                      "display": "Medicinal product (product)"
                    }
                  ]
                }
              },
              {
                "url": "https://fhir.kbv.de/StructureDefinition/KBV_EX_ERP_Medication_Category",
                "valueCoding": {
                  "system": "https://fhir.kbv.de/CodeSystem/KBV_CS_ERP_Medication_Category",
                  "code": "00"
                }
              },
              {
                "url": "https://fhir.kbv.de/StructureDefinition/KBV_EX_ERP_Medication_Vaccine",
                "valueBoolean": false
              },
              {
                "url": "http://fhir.de/StructureDefinition/normgroesse",
                "valueCode": "NB"
              }
            ],
            "code": {
              "coding": [
                {
                  "system": "http://fhir.de/CodeSystem/ifa/pzn",
                  "code": "12345678"
                }
              ],
              "text": "Schmerzmittel"
            },
            "form": {
              "coding": [
                {
                  "system": "https://fhir.kbv.de/CodeSystem/KBV_CS_SFHIR_KBV_DARREICHUNGSFORM",
                  "code": "TAB"
                }
              ]
            },
            "amount": {
              "numerator": {
                "extension": [
                  {
                    "url": "https://fhir.kbv.de/StructureDefinition/KBV_EX_ERP_Medication_PackagingSize",
                    "valueString": "1"
                  }
                ],
                "unit": "Stk"
              },
              "denominator": {
                "value": 1
              }
            }
          }
        ],
        "basedOn": [
          {
            "reference": "Task/160.000.032.723.663.52"
          }
        ],
        "status": "unknown",
        "about": [
          {
            "reference": "#03957724-1ff3-4f3e-87c1-2472038db7b5"
          }
        ],
        "sent": "2023-03-01T14:22:49.979+00:00",
        "recipient": [
          {
            "identifier": {
              "system": "https://gematik.de/fhir/sid/telematik-id",
              "value": "1-2-ARZT-BerndClaudius01"
            }
          }
        ],
        "sender": {
          "identifier": {
            "system": "http://fhir.de/sid/gkv/kvid-10",
            "value": "X110498565"
          }
        },
        "payload": [
          {
            "extension": [
              {
                "url": "https://gematik.de/fhir/erp/StructureDefinition/GEM_ERP_EX_InsuranceProvider",
                "valueIdentifier": {
                  "system": "http://fhir.de/sid/arge-ik/iknr",
                  "value": "118006632"
                }
              },
              {
                "url": "https://gematik.de/fhir/erp/StructureDefinition/GEM_ERP_EX_SubstitutionAllowedType",
                "valueBoolean": true
              },
              {
                "url": "https://gematik.de/fhir/erp/StructureDefinition/GEM_ERP_EX_PrescriptionType",
                "valueCoding": {
                  "system": "https://gematik.de/fhir/erp/CodeSystem/GEM_ERP_CS_FlowType",
                  "code": "160",
                  "display": "Muster 16 (Apothekenpflichtige Arzneimittel)"
                }
              }
            ],
            "contentString": "I won't enjoy it."
          }
        ]
      },
      "search": {
        "mode": "match"
      }
    }
  ]
}
