<Bundle xmlns="http://hl7.org/fhir"><id value="810b87ec-1e87-4f03-b4ba-ad38781ab541"/><meta><lastUpdated value="2023-04-21T09:15:25.910+02:00"/><profile value="https://fhir.kbv.de/StructureDefinition/KBV_PR_ERP_Bundle|1.1.0"/></meta><identifier><system value="https://gematik.de/fhir/erp/NamingSystem/GEM_ERP_NS_PrescriptionId"/><value value="200.000.001.944.110.60"/></identifier><type value="document"/><timestamp value="2023-04-21T09:15:25.910+02:00"/><entry><fullUrl value="https://pvs.gematik.de/fhir/Composition/39e71450-cc0e-4d53-909d-c500aec073a5"/><resource><Composition xmlns="http://hl7.org/fhir"><id value="39e71450-cc0e-4d53-909d-c500aec073a5"/><meta><profile value="https://fhir.kbv.de/StructureDefinition/KBV_PR_ERP_Composition|1.1.0"/></meta><extension url="https://fhir.kbv.de/StructureDefinition/KBV_EX_FOR_Legal_basis"><valueCoding><system value="https://fhir.kbv.de/CodeSystem/KBV_CS_SFHIR_KBV_STATUSKENNZEICHEN"/><code value="00"/></valueCoding></extension><status value="final"/><type><coding><system value="https://fhir.kbv.de/CodeSystem/KBV_CS_SFHIR_KBV_FORMULAR_ART"/><code value="e16A"/></coding></type><subject><reference value="Patient/c63af75d-8084-40f9-8475-4c21fdd3d1fb"/></subject><date value="2023-04-21T09:15:25+02:00"/><author><reference value="Practitioner/7a886799-da7c-4743-b469-5aed3c12f6e6"/><type value="Practitioner"/></author><author><type value="Device"/><identifier><system value="https://fhir.kbv.de/NamingSystem/KBV_NS_FOR_Pruefnummer"/><value value="GEMATIK/410/2109/36/123"/></identifier></author><title value="elektronische Arzneimittelverordnung"/><custodian><reference value="Organization/5c66377b-aa05-4762-b58b-e49d6556c18d"/></custodian><section><code><coding><system value="https://fhir.kbv.de/CodeSystem/KBV_CS_ERP_Section_Type"/><code value="Coverage"/></coding></code><entry><reference value="Coverage/ef2012f7-af20-43f6-88d2-a9fc4dba5122"/></entry></section><section><code><coding><system value="https://fhir.kbv.de/CodeSystem/KBV_CS_ERP_Section_Type"/><code value="Prescription"/></coding></code><entry><reference value="MedicationRequest/7029cde3-26d4-42b6-ac88-ad215a7d6962"/></entry></section></Composition></resource></entry><entry><fullUrl value="https://pvs.gematik.de/fhir/MedicationRequest/7029cde3-26d4-42b6-ac88-ad215a7d6962"/><resource><MedicationRequest xmlns="http://hl7.org/fhir"><id value="7029cde3-26d4-42b6-ac88-ad215a7d6962"/><meta><profile value="https://fhir.kbv.de/StructureDefinition/KBV_PR_ERP_Prescription|1.1.0"/></meta><extension url="https://fhir.kbv.de/StructureDefinition/KBV_EX_ERP_BVG"><valueBoolean value="false"/></extension><extension url="https://fhir.kbv.de/StructureDefinition/KBV_EX_ERP_EmergencyServicesFee"><valueBoolean value="false"/></extension><extension url="https://fhir.kbv.de/StructureDefinition/KBV_EX_ERP_Multiple_Prescription"><extension url="Kennzeichen"><valueBoolean value="false"/></extension></extension><extension url="https://fhir.kbv.de/StructureDefinition/KBV_EX_FOR_StatusCoPayment"><valueCoding><system value="https://fhir.kbv.de/CodeSystem/KBV_CS_FOR_StatusCoPayment"/><code value="0"/></valueCoding></extension><status value="active"/><intent value="order"/><medicationReference><reference value="Medication/39aa44fc-fc87-47cc-ae39-bb2e677bcb52"/></medicationReference><subject><reference value="Patient/c63af75d-8084-40f9-8475-4c21fdd3d1fb"/></subject><authoredOn value="2023-04-21"/><requester><reference value="Practitioner/7a886799-da7c-4743-b469-5aed3c12f6e6"/></requester><insurance><reference value="Coverage/ef2012f7-af20-43f6-88d2-a9fc4dba5122"/></insurance><dosageInstruction><extension url="https://fhir.kbv.de/StructureDefinition/KBV_EX_ERP_DosageFlag"><valueBoolean value="true"/></extension><text value="1-0-0-0"/></dosageInstruction><dispenseRequest><quantity><value value="1"/><system value="http://unitsofmeasure.org"/><code value="{Package}"/></quantity></dispenseRequest><substitution><allowedBoolean value="true"/></substitution></MedicationRequest></resource></entry><entry><fullUrl value="https://pvs.gematik.de/fhir/Medication/39aa44fc-fc87-47cc-ae39-bb2e677bcb52"/><resource><Medication xmlns="http://hl7.org/fhir"><id value="39aa44fc-fc87-47cc-ae39-bb2e677bcb52"/><meta><profile value="https://fhir.kbv.de/StructureDefinition/KBV_PR_ERP_Medication_PZN|1.1.0"/></meta><extension url="https://fhir.kbv.de/StructureDefinition/KBV_EX_Base_Medication_Type"><valueCodeableConcept><coding><system value="http://snomed.info/sct"/><version value="http://snomed.info/sct/900000000000207008/version/20220331"/><code value="763158003"/><display value="Medicinal product (product)"/></coding></valueCodeableConcept></extension><extension url="https://fhir.kbv.de/StructureDefinition/KBV_EX_ERP_Medication_Category"><valueCoding><system value="https://fhir.kbv.de/CodeSystem/KBV_CS_ERP_Medication_Category"/><code value="00"/></valueCoding></extension><extension url="https://fhir.kbv.de/StructureDefinition/KBV_EX_ERP_Medication_Vaccine"><valueBoolean value="false"/></extension><extension url="http://fhir.de/StructureDefinition/normgroesse"><valueCode value="NB"/></extension><code><coding><system value="http://fhir.de/CodeSystem/ifa/pzn"/><code value="67595155"/></coding><text value="Schmerzmittel"/></code><form><coding><system value="https://fhir.kbv.de/CodeSystem/KBV_CS_SFHIR_KBV_DARREICHUNGSFORM"/><code value="TAB"/></coding></form><amount><numerator><extension url="https://fhir.kbv.de/StructureDefinition/KBV_EX_ERP_Medication_PackagingSize"><valueString value="1"/></extension><unit value="Stk"/></numerator><denominator><value value="1"/></denominator></amount></Medication></resource></entry><entry><fullUrl value="https://pvs.gematik.de/fhir/Patient/c63af75d-8084-40f9-8475-4c21fdd3d1fb"/><resource><Patient xmlns="http://hl7.org/fhir"><id value="c63af75d-8084-40f9-8475-4c21fdd3d1fb"/><meta><profile value="https://fhir.kbv.de/StructureDefinition/KBV_PR_FOR_Patient|1.1.0"/></meta><identifier><type><coding><system value="http://fhir.de/CodeSystem/identifier-type-de-basis"/><code value="PKV"/></coding></type><system value="http://fhir.de/sid/pkv/kvid-10"/><value value="X110465770"/></identifier><name><use value="official"/><family value="Angermänn"><extension url="http://hl7.org/fhir/StructureDefinition/humanname-own-name"><valueString value="Angermänn"/></extension></family><given value="Günther"/></name><birthDate value="1968-11-30"/><address><type value="both"/><line value="Gustav-Radbruch-Str. 98b"><extension url="http://hl7.org/fhir/StructureDefinition/iso21090-ADXP-houseNumber"><valueString value="98b"/></extension><extension url="http://hl7.org/fhir/StructureDefinition/iso21090-ADXP-streetName"><valueString value="Gustav-Radbruch-Str."/></extension></line><city value="Alt Joleengrün"/><postalCode value="80754"/><country value="D"/></address></Patient></resource></entry><entry><fullUrl value="https://pvs.gematik.de/fhir/Organization/5c66377b-aa05-4762-b58b-e49d6556c18d"/><resource><Organization xmlns="http://hl7.org/fhir"><id value="5c66377b-aa05-4762-b58b-e49d6556c18d"/><meta><profile value="https://fhir.kbv.de/StructureDefinition/KBV_PR_FOR_Organization|1.1.0"/></meta><identifier><type><coding><system value="http://terminology.hl7.org/CodeSystem/v2-0203"/><code value="BSNR"/></coding></type><system value="https://fhir.kbv.de/NamingSystem/KBV_NS_Base_BSNR"/><value value="014341106"/></identifier><name value="Arztpraxis Schraßer"/><telecom><system value="phone"/><value value="(00871) 3686393"/></telecom><telecom><system value="email"/><value value="thorben.fehrig@erm.net"/></telecom><address><type value="both"/><line value="Görlitzer Str. 5"><extension url="http://hl7.org/fhir/StructureDefinition/iso21090-ADXP-houseNumber"><valueString value="5"/></extension><extension url="http://hl7.org/fhir/StructureDefinition/iso21090-ADXP-streetName"><valueString value="Görlitzer Str."/></extension></line><city value="Schön Melvingrün"/><postalCode value="27378"/><country value="D"/></address></Organization></resource></entry><entry><fullUrl value="https://pvs.gematik.de/fhir/Coverage/ef2012f7-af20-43f6-88d2-a9fc4dba5122"/><resource><Coverage xmlns="http://hl7.org/fhir"><id value="ef2012f7-af20-43f6-88d2-a9fc4dba5122"/><meta><profile value="https://fhir.kbv.de/StructureDefinition/KBV_PR_FOR_Coverage|1.1.0"/></meta><extension url="http://fhir.de/StructureDefinition/gkv/besondere-personengruppe"><valueCoding><system value="https://fhir.kbv.de/CodeSystem/KBV_CS_SFHIR_KBV_PERSONENGRUPPE"/><code value="00"/></valueCoding></extension><extension url="http://fhir.de/StructureDefinition/gkv/dmp-kennzeichen"><valueCoding><system value="https://fhir.kbv.de/CodeSystem/KBV_CS_SFHIR_KBV_DMP"/><code value="00"/></valueCoding></extension><extension url="http://fhir.de/StructureDefinition/gkv/wop"><valueCoding><system value="https://fhir.kbv.de/CodeSystem/KBV_CS_SFHIR_ITA_WOP"/><code value="72"/></valueCoding></extension><extension url="http://fhir.de/StructureDefinition/gkv/versichertenart"><valueCoding><system value="https://fhir.kbv.de/CodeSystem/KBV_CS_SFHIR_KBV_VERSICHERTENSTATUS"/><code value="1"/></valueCoding></extension><status value="active"/><type><coding><system value="http://fhir.de/CodeSystem/versicherungsart-de-basis"/><code value="PKV"/></coding></type><beneficiary><reference value="Patient/5fbf2af3-b7ed-44c0-99d8-8f670116ce7f"/></beneficiary><payor><identifier><system value="http://fhir.de/sid/arge-ik/iknr"/><value value="763105576"/></identifier><display value="Künstler-Krankenkasse Rheinhessen"/></payor></Coverage></resource></entry><entry><fullUrl value="https://pvs.gematik.de/fhir/Practitioner/7a886799-da7c-4743-b469-5aed3c12f6e6"/><resource><Practitioner xmlns="http://hl7.org/fhir"><id value="7a886799-da7c-4743-b469-5aed3c12f6e6"/><meta><profile value="https://fhir.kbv.de/StructureDefinition/KBV_PR_FOR_Practitioner|1.1.0"/></meta><identifier><type><coding><system value="http://terminology.hl7.org/CodeSystem/v2-0203"/><code value="LANR"/></coding></type><system value="https://fhir.kbv.de/NamingSystem/KBV_NS_Base_ANR"/><value value="238151526"/></identifier><name><use value="official"/><family value="Schraßer"><extension url="http://hl7.org/fhir/StructureDefinition/humanname-own-name"><valueString value="Schraßer"/></extension></family><given value="Dr."/><prefix value="Dr."><extension url="http://hl7.org/fhir/StructureDefinition/iso21090-EN-qualifier"><valueCode value="AC"/></extension></prefix></name><qualification><code><coding><system value="https://fhir.kbv.de/CodeSystem/KBV_CS_FOR_Qualification_Type"/><code value="00"/></coding></code></qualification><qualification><code><coding><system value="https://fhir.kbv.de/CodeSystem/KBV_CS_FOR_Berufsbezeichnung"/><code value="Berufsbezeichnung"/></coding><text value="Super-Facharzt für alles Mögliche"/></code></qualification></Practitioner></resource></entry></Bundle>