<Bundle xmlns="http://hl7.org/fhir"><id value="7387d7bb-f8db-48f2-b969-d59beed7de61"/><meta><lastUpdated value="2024-02-08T19:19:46.650+01:00"/><profile value="http://fhir.abda.de/eRezeptAbgabedaten/StructureDefinition/DAV-PKV-PR-ERP-AbgabedatenBundle|1.2"/></meta><identifier><system value="https://gematik.de/fhir/erp/NamingSystem/GEM_ERP_NS_PrescriptionId"/><value value="200.000.002.096.550.95"/></identifier><type value="document"/><timestamp value="2024-02-08T19:19:46.650+01:00"/><entry><fullUrl value="urn:uuid:a0f6f11d-2b57-4ed1-8ec3-997e56d9047c"/><resource><Composition xmlns="http://hl7.org/fhir"><id value="a0f6f11d-2b57-4ed1-8ec3-997e56d9047c"/><meta><profile value="http://fhir.abda.de/eRezeptAbgabedaten/StructureDefinition/DAV-PKV-PR-ERP-AbgabedatenComposition|1.2"/></meta><status value="final"/><type><coding><system value="http://fhir.abda.de/eRezeptAbgabedaten/CodeSystem/DAV-CS-ERP-CompositionTypes"/><code value="ERezeptAbgabedaten"/></coding></type><date value="2024-02-08T19:19:46+01:00"/><author><reference value="urn:uuid:2a20ed66-e7f2-432c-82ce-1630b31eab54"/></author><title value="ERezeptAbgabedaten"/><section><title value="Apotheke"/><entry><reference value="urn:uuid:2a20ed66-e7f2-432c-82ce-1630b31eab54"/></entry></section><section><title value="Abgabeinformationen"/><entry><reference value="urn:uuid:5ebf63ff-944e-43b8-90c3-94d52ce83943"/></entry></section></Composition></resource></entry><entry><fullUrl value="urn:uuid:2a20ed66-e7f2-432c-82ce-1630b31eab54"/><resource><Organization xmlns="http://hl7.org/fhir"><id value="2a20ed66-e7f2-432c-82ce-1630b31eab54"/><meta><profile value="http://fhir.abda.de/eRezeptAbgabedaten/StructureDefinition/DAV-PKV-PR-ERP-Apotheke|1.2"/></meta><identifier><system value="http://fhir.de/sid/arge-ik/iknr"/><value value="398642559"/></identifier><name value="Apotheke Phil A. Delphia"/><address><type value="physical"/><line value="Entenpfuhl 162"><extension url="http://hl7.org/fhir/StructureDefinition/iso21090-ADXP-houseNumber"><valueString value="162"/></extension><extension url="http://hl7.org/fhir/StructureDefinition/iso21090-ADXP-streetName"><valueString value="Entenpfuhl"/></extension></line><city value="Nord Katja"/><postalCode value="28776"/><country value="D"/></address></Organization></resource></entry><entry><fullUrl value="urn:uuid:ff184632-b538-429b-8c9f-b0f642bb18e4"/><resource><Invoice xmlns="http://hl7.org/fhir"><id value="ff184632-b538-429b-8c9f-b0f642bb18e4"/><meta><profile value="http://fhir.abda.de/eRezeptAbgabedaten/StructureDefinition/DAV-PKV-PR-ERP-Abrechnungszeilen|1.2"/></meta><status value="issued"/><type><coding><system value="http://fhir.abda.de/eRezeptAbgabedaten/CodeSystem/DAV-CS-ERP-InvoiceTyp"/><code value="Abrechnungszeilen"/></coding></type><lineItem><sequence value="1"/><chargeItemCodeableConcept><coding><system value="http://fhir.de/CodeSystem/ifa/pzn"/><code value="53166835"/></coding><text value="Homabraat"/></chargeItemCodeableConcept><priceComponent><extension url="http://fhir.abda.de/eRezeptAbgabedaten/StructureDefinition/DAV-EX-ERP-KostenVersicherter"><extension url="Kategorie"><valueCodeableConcept><coding><system value="http://fhir.abda.de/eRezeptAbgabedaten/CodeSystem/DAV-PKV-CS-ERP-KostenVersicherterKategorie"/><code value="0"/></coding></valueCodeableConcept></extension><extension url="Kostenbetrag"><valueMoney><value value="240.85"/><currency value="EUR"/></valueMoney></extension></extension><extension url="http://fhir.abda.de/eRezeptAbgabedaten/StructureDefinition/DAV-EX-ERP-MwStSatz"><valueDecimal value="11.60"/></extension><type value="informational"/><factor value="1"/><amount><value value="292.96"/><currency value="EUR"/></amount></priceComponent></lineItem><totalGross><extension url="http://fhir.abda.de/eRezeptAbgabedaten/StructureDefinition/DAV-EX-ERP-Gesamtzuzahlung"><valueMoney><value value="240.85"/><currency value="EUR"/></valueMoney></extension><value value="292.96"/><currency value="EUR"/></totalGross></Invoice></resource></entry><entry><fullUrl value="urn:uuid:5ebf63ff-944e-43b8-90c3-94d52ce83943"/><resource><MedicationDispense xmlns="http://hl7.org/fhir"><id value="5ebf63ff-944e-43b8-90c3-94d52ce83943"/><meta><profile value="http://fhir.abda.de/eRezeptAbgabedaten/StructureDefinition/DAV-PKV-PR-ERP-Abgabeinformationen|1.2"/></meta><extension url="http://fhir.abda.de/eRezeptAbgabedaten/StructureDefinition/DAV-PKV-EX-ERP-AbrechnungsTyp"><valueCodeableConcept><coding><system value="http://fhir.abda.de/eRezeptAbgabedaten/CodeSystem/DAV-PKV-CS-ERP-AbrechnungsTyp"/><code value="1"/></coding></valueCodeableConcept></extension><extension url="http://fhir.abda.de/eRezeptAbgabedaten/StructureDefinition/DAV-EX-ERP-Abrechnungszeilen"><valueReference><reference value="urn:uuid:ff184632-b538-429b-8c9f-b0f642bb18e4"/></valueReference></extension><status value="completed"/><medicationCodeableConcept><coding><system value="http://terminology.hl7.org/CodeSystem/data-absent-reason"/><code value="not-applicable"/></coding></medicationCodeableConcept><performer><actor><reference value="urn:uuid:2a20ed66-e7f2-432c-82ce-1630b31eab54"/></actor></performer><authorizingPrescription><identifier><system value="https://gematik.de/fhir/erp/NamingSystem/GEM_ERP_NS_PrescriptionId"/><value value="200.000.002.096.550.95"/></identifier></authorizingPrescription><type><coding><system value="http://fhir.abda.de/eRezeptAbgabedaten/CodeSystem/DAV-CS-ERP-MedicationDispenseTyp"/><code value="Abgabeinformationen"/></coding></type><whenHandedOver value="2024-02-08"/></MedicationDispense></resource></entry></Bundle>