{
  "resourceType": "Bundle",
  "id": "erp-abrufen-10-response-taskGet",
  "meta": {
    "lastUpdated": "2020-03-13T07:31:34.328+00:00"
  },
  "entry": [
    {
      "fullUrl": "https://erp.zentral.erp.splitdns.ti-dienste.de/Task/160.123.456.789.123.58",
      "resource": {
        "resourceType": "Task",
        "id": "160.123.456.789.123.58-1",
        "meta": {
          "profile": [
            "https://gematik.de/fhir/erp/StructureDefinition/GEM_ERP_PR_Task|1.3"
          ],
          "versionId": "2",
          "lastUpdated": "2020-02-18T10:05:05.038+00:00"
        },
        "extension": [
          {
            "url": "https://gematik.de/fhir/erp/StructureDefinition/GEM_ERP_EX_PrescriptionType",
            "valueCoding": {
              "code": "160",
              "system": "https://gematik.de/fhir/erp/CodeSystem/GEM_ERP_CS_FlowType",
              "display": "Muster 16 (Apothekenpflichtige Arzneimittel)"
            }
          },
          {
            "url": "https://gematik.de/fhir/erp/StructureDefinition/GEM_ERP_EX_ExpiryDate",
            "valueDate": "2020-06-02"
          },
          {
            "url": "https://gematik.de/fhir/erp/StructureDefinition/GEM_ERP_EX_AcceptDate",
            "valueDate": "2020-04-01"
          }
        ],
        "identifier": [
          {
            "use": "official",
            "system": "https://gematik.de/fhir/erp/NamingSystem/GEM_ERP_NS_PrescriptionId",
            "value": "160.123.456.789.123.58"
          },
          {
            "use": "official",
            "system": "https://gematik.de/fhir/erp/NamingSystem/GEM_ERP_NS_AccessCode",
            "value": "777bea0e13cc9c42ceec14aec3ddee2263325dc2c6c699db115f58fe423607ea"
          },
          {
            "system": "https://gematik.de/fhir/erp/NamingSystem/GEM_ERP_NS_Secret",
            "value": "c36ca26502892b371d252c99b496e31505ff449aca9bc69e231c58148f6233cf"
          }
        ],
        "for": {
          "identifier": {
            "system": "http://fhir.de/sid/gkv/kvid-10",
            "value": "X123456789"
          }
        },
        "performerType": [
          {
            "coding": [
              {
                "code": "urn:oid:1.2.276.0.76.4.54",
                "system": "https://gematik.de/fhir/erp/CodeSystem/GEM_ERP_CS_OrganizationType",
                "display": "Öffentliche Apotheke"
              }
            ]
          }
        ],
        "input": [
          {
            "type": {
              "coding": [
                {
                  "code": "1",
                  "system": "https://gematik.de/fhir/erp/CodeSystem/GEM_ERP_CS_DocumentType"
                }
              ]
            },
            "valueReference": {
              "reference": "urn:oid:281a985c-f25b-4aae-91a6-41ad744080b0"
            }
          }
        ],
        "output": [
          {
            "type": {
              "coding": [
                {
                  "code": "3",
                  "system": "https://gematik.de/fhir/erp/CodeSystem/GEM_ERP_CS_DocumentType"
                }
              ]
            },
            "valueReference": {
              "reference": "urn:oid:dffbfd6a-5712-4798-bdc8-07201eb77ab8"
            }
          }
        ],
        "status": "completed",
        "intent": "order",
        "authoredOn": "2020-03-02T08:25:05+00:00",
        "lastModified": "2020-03-02T08:45:05+00:00"
      }
    },
    {
      "fullUrl": "urn:uuid:dffbfd6a-5712-4798-bdc8-07201eb77ab8",
      "resource": {
        "resourceType": "Bundle",
        "id": "dffbfd6a-5712-4798-bdc8-07201eb77ab8",
        "meta": {
          "profile": [
            "https://gematik.de/fhir/erp/StructureDefinition/GEM_ERP_PR_Bundle|1.3"
          ],
          "tag": [
            {
              "display": "ePrescription receipt"
            }
          ]
        },
        "identifier": {
          "system": "https://gematik.de/fhir/erp/NamingSystem/GEM_ERP_NS_PrescriptionId",
          "value": "160.123.456.789.123.58"
        },
        "entry": [
          {
            "resource": {
              "meta": {
                "profile": [
                  "https://gematik.de/fhir/erp/StructureDefinition/GEM_ERP_PR_Composition|1.3"
                ]
              },
              "resourceType": "Composition",
              "id": "ec72f89f-2c84-4907-9a09-4bed0911e6e1",
              "extension": [
                {
                  "url": "https://gematik.de/fhir/erp/StructureDefinition/GEM_ERP_EX_Beneficiary",
                  "valueIdentifier": {
                    "system": "https://gematik.de/fhir/sid/telematik-id",
                    "value": "3-SMC-B-Testkarte-883110000129070"
                  }
                }
              ],
              "status": "final",
              "type": {
                "coding": [
                  {
                    "code": "3",
                    "system": "https://gematik.de/fhir/erp/CodeSystem/GEM_ERP_CS_DocumentType"
                  }
                ]
              },
              "date": "2020-03-20T07:31:34.328+00:00",
              "author": [
                {
                  "reference": "urn:uuid:b6fcc694-994f-40fa-968e-77a477bcc0b8"
                }
              ],
              "title": "Quittung",
              "event": [
                {
                  "period": {
                    "start": "2020-03-20T07:23:34.328+00:00",
                    "end": "2020-03-20T07:31:34.328+00:00"
                  }
                }
              ],
              "section": [
                {
                  "entry": [
                    {
                      "reference": "urn:uuid:47decbcb-a411-4298-8b61-eab2374c818a"
                    }
                  ]
                }
              ]
            },
            "fullUrl": "urn:uuid:ec72f89f-2c84-4907-9a09-4bed0911e6e1"
          },
          {
            "resource": {
              "meta": {
                "profile": [
                  "https://gematik.de/fhir/erp/StructureDefinition/GEM_ERP_PR_Device|1.3"
                ]
              },
              "resourceType": "Device",
              "id": "1",
              "status": "active",
              "serialNumber": "R4.0.0.287342834",
              "deviceName": [
                {
                  "name": "E-Rezept-Fachdienst",
                  "type": "user-friendly-name"
                }
              ],
              "version": [
                {
                  "value": "1.0.0"
                }
              ]
            },
            "fullUrl": "urn:uuid:b6fcc694-994f-40fa-968e-77a477bcc0b8"
          },
          {
            "resource": {
              "meta": {
                "profile": [
                  "https://gematik.de/fhir/erp/StructureDefinition/GEM_ERP_PR_Digest|1.3"
                ]
              },
              "resourceType": "Binary",
              "id": "47decbcb-a411-4298-8b61-eab2374c818a",
              "contentType": "application/octet-stream",
              "data": "hcjUMWK000GMe4zsJtNu+00hM7f9yHWp7ewiMeXy6KY="
            },
            "fullUrl": "urn:uuid:47decbcb-a411-4298-8b61-eab2374c818a"
          }
        ],
        "signature": {
          "type": [
            {
              "code": "1.2.840.10065.1.12.1.1",
              "system": "urn:iso-astm:E1762-95:2013"
            }
          ],
          "when": "2020-03-20T07:31:34.328+00:00",
          "who": {
            "reference": "urn:uuid:b6fcc694-994f-40fa-968e-77a477bcc0b8"
          },
          "sigFormat": "application/pkcs7-mime",
          "data": ""
        },
        "type": "document",
        "timestamp": "2020-03-20T07:31:34.328+00:00"
      }
    }
  ],
  "type": "collection"
}
