{
  "resourceType": "Bundle",
  "id": "erp-bereitstellen-02-Prescription-Bundle",
  "meta": {
    "profile": [
      "https://fhir.kbv.de/StructureDefinition/KBV_PR_ERP_Bundle|1.0.1"
    ],
    "lastUpdated": "2020-05-04T08:30:00Z"
  },
  "identifier": {
    "system": "https://gematik.de/fhir/NamingSystem/PrescriptionID",
    "value": "160.123.456.789.123.58"
  },
  "entry": [
    {
      "fullUrl": "http://pvs.praxis-topp-gluecklich.local/fhir/Composition/b0e22b86-e7e9-46c1-80fe-e6e24442d77c",
      "resource": {
        "resourceType": "Composition",
        "id": "b0e22b86-e7e9-46c1-80fe-e6e24442d77c",
        "meta": {
          "profile": [
            "https://fhir.kbv.de/StructureDefinition/KBV_PR_ERP_Composition|1.0.1"
          ]
        },
        "extension": [
          {
            "url": "https://fhir.kbv.de/StructureDefinition/KBV_EX_FOR_Legal_basis",
            "valueCoding": {
              "code": "00",
              "system": "https://fhir.kbv.de/CodeSystem/KBV_CS_SFHIR_KBV_STATUSKENNZEICHEN"
            }
          }
        ],
        "author": [
          {
            "reference": "Practitioner/d8463daf-258e-4cad-a86a-6fd42fac161c",
            "type": "Practitioner"
          },
          {
            "identifier": {
              "system": "https://fhir.kbv.de/NamingSystem/KBV_NS_FOR_Pruefnummer",
              "value": "Y/400/1910/36/346"
            },
            "type": "Device"
          }
        ],
        "attester": [
          {
            "mode": "legal",
            "party": {
              "reference": "Practitioner/20597e0e-cb2a-45b3-95f0-dc3dbdb617c3"
            }
          }
        ],
        "section": [
          {
            "entry": [
              {
                "reference": "MedicationRequest/f58f4403-7a3a-4a12-bb15-b2fa25b02561"
              }
            ],
            "code": {
              "coding": [
                {
                  "code": "Prescription",
                  "system": "https://fhir.kbv.de/CodeSystem/KBV_CS_ERP_Section_Type"
                }
              ]
            }
          },
          {
            "entry": [
              {
                "reference": "Coverage/1b1ffb6e-eb05-43d7-87eb-e7818fe9661a"
              }
            ],
            "code": {
              "coding": [
                {
                  "code": "Coverage",
                  "system": "https://fhir.kbv.de/CodeSystem/KBV_CS_ERP_Section_Type"
                }
              ]
            }
          }
        ],
        "status": "final",
        "type": {
          "coding": [
            {
              "code": "e16A",
              "system": "https://fhir.kbv.de/CodeSystem/KBV_CS_SFHIR_KBV_FORMULAR_ART"
            }
          ]
        },
        "subject": {
          "reference": "Patient/9774f67f-a238-4daf-b4e6-679deeef3811"
        },
        "date": "2020-02-03T11:30:02Z",
        "title": "elektronische Arzneimittelverordnung",
        "custodian": {
          "reference": "Organization/cf042e44-086a-4d51-9c77-172f9a972e3b"
        }
      }
    },
    {
      "fullUrl": "http://pvs.praxis-topp-gluecklich.local/fhir/MedicationRequest/f58f4403-7a3a-4a12-bb15-b2fa25b02561",
      "resource": {
        "resourceType": "MedicationRequest",
        "id": "f58f4403-7a3a-4a12-bb15-b2fa25b02561",
        "meta": {
          "profile": [
            "https://fhir.kbv.de/StructureDefinition/KBV_PR_ERP_Prescription|1.0.1"
          ]
        },
        "extension": [
          {
            "url": "https://fhir.kbv.de/StructureDefinition/KBV_EX_ERP_StatusCoPayment",
            "valueCoding": {
              "code": "0",
              "system": "https://fhir.kbv.de/StructureDefinition/KBV_EX_ERP_StatusCoPayment"
            }
          },
          {
            "url": "https://fhir.kbv.de/StructureDefinition/KBV_EX_ERP_EmergencyServicesFee",
            "valueBoolean": false
          },
          {
            "url": "https://fhir.kbv.de/StructureDefinition/KBV_EX_ERP_BVG",
            "valueBoolean": false
          },
          {
            "extension": [
              {
                "url": "unfallkennzeichen",
                "valueCoding": {
                  "code": "1",
                  "system": "https://fhir.kbv.de/CodeSystem/KBV_CS_FOR_Ursache_Type"
                }
              },
              {
                "url": "unfalltag",
                "valueDate": "2020-05-01"
              }
            ],
            "url": "https://fhir.kbv.de/StructureDefinition/KBV_EX_ERP_Accident"
          },
          {
            "extension": [
              {
                "url": "Kennzeichen",
                "valueBoolean": true
              },
              {
                "valueRatio": {
                  "numerator": {
                    "value": 2
                  },
                  "denominator": {
                    "value": 4
                  }
                },
                "url": "Nummerierung"
              },
              {
                "valuePeriod": {
                  "start": "2021-01-02",
                  "end": "2021-03-30"
                },
                "url": "Zeitraum"
              }
            ],
            "url": "https://fhir.kbv.de/StructureDefinition/KBV_EX_ERP_Multiple_Prescription"
          }
        ],
        "insurance": [
          {
            "reference": "Coverage/1b1ffb6e-eb05-43d7-87eb-e7818fe9661a"
          }
        ],
        "note": [
          {
            "text": "Dummy-Hinweis für die Apotheke"
          }
        ],
        "dosageInstruction": [
          {
            "extension": [
              {
                "url": "https://fhir.kbv.de/StructureDefinition/KBV_EX_ERP_DosageFlag",
                "valueBoolean": false
              }
            ]
          }
        ],
        "dispenseRequest": {
          "quantity": {
            "value": 2,
            "code": "{Package}",
            "system": "http://unitsofmeasure.org"
          }
        },
        "substitution": {
          "allowedBoolean": true
        },
        "status": "active",
        "intent": "order",
        "medicationReference": {
          "reference": "Medication/e3a4efa7-84fc-465b-b14c-720195097783"
        },
        "subject": {
          "reference": "Patient/9774f67f-a238-4daf-b4e6-679deeef3811"
        },
        "authoredOn": "2020-05-02",
        "requester": {
          "reference": "Practitioner/20597e0e-cb2a-45b3-95f0-dc3dbdb617c3"
        }
      }
    },
    {
      "fullUrl": "http://pvs.praxis-topp-gluecklich.local/fhir/Medication/e3a4efa7-84fc-465b-b14c-720195097783",
      "resource": {
        "resourceType": "Medication",
        "id": "e3a4efa7-84fc-465b-b14c-720195097783",
        "meta": {
          "profile": [
            "https://fhir.kbv.de/StructureDefinition/KBV_PR_ERP_Medication_Ingredient|1.0.1"
          ]
        },
        "extension": [
          {
            "url": "https://fhir.kbv.de/StructureDefinition/KBV_EX_ERP_Medication_Category",
            "valueCoding": {
              "code": "00",
              "system": "https://fhir.kbv.de/StructureDefinition/KBV_EX_ERP_Medication_Category"
            }
          },
          {
            "url": "https://fhir.kbv.de/StructureDefinition/KBV_EX_ERP_Medication_Vaccine",
            "valueBoolean": false
          }
        ],
        "form": {
          "text": "Tabletten"
        },
        "amount": {
          "numerator": {
            "value": 20,
            "unit": "Stk"
          },
          "denominator": {
            "value": 1
          }
        },
        "ingredient": [
          {
            "itemCodeableConcept": {
              "coding": [
                {
                  "code": "Dummy-ASK",
                  "system": "http://fhir.de/CodeSystem/ask"
                }
              ],
              "text": "Ibuprofen"
            },
            "strength": {
              "numerator": {
                "value": 800,
                "unit": "mg"
              },
              "denominator": {
                "value": 1
              }
            }
          }
        ],
        "code": {
          "coding": [
            {
              "code": "wirkstoff",
              "system": "https://fhir.kbv.de/CodeSystem/KBV_CS_ERP_Medication_Type"
            }
          ]
        }
      }
    },
    {
      "fullUrl": "http://pvs.praxis-topp-gluecklich.local/fhir/Patient/9774f67f-a238-4daf-b4e6-679deeef3811",
      "resource": {
        "resourceType": "Patient",
        "id": "9774f67f-a238-4daf-b4e6-679deeef3811",
        "meta": {
          "profile": [
            "https://fhir.kbv.de/StructureDefinition/KBV_PR_FOR_Patient|1.0.3"
          ]
        },
        "identifier": [
          {
            "type": {
              "coding": [
                {
                  "code": "GKV",
                  "system": "http://fhir.de/CodeSystem/identifier-type-de-basis"
                }
              ]
            },
            "system": "http://fhir.de/NamingSystem/gkv/kvid-10",
            "value": "X234567890"
          }
        ],
        "name": [
          {
            "given": [
              "Ludger"
            ],
            "use": "official",
            "family": "Ludger Königsstein",
            "_family": {
              "extension": [
                {
                  "url": "http://hl7.org/fhir/StructureDefinition/humanname-own-name",
                  "valueString": "Königsstein"
                }
              ]
            }
          }
        ],
        "address": [
          {
            "line": [
              "Musterstr. 1"
            ],
            "_line": [
              {
                "extension": [
                  {
                    "url": "http://hl7.org/fhir/StructureDefinition/iso21090-ADXP-houseNumber",
                    "valueString": "1"
                  },
                  {
                    "url": "http://hl7.org/fhir/StructureDefinition/iso21090-ADXP-streetName",
                    "valueString": "Musterstr."
                  }
                ]
              }
            ],
            "type": "both",
            "city": "Berlin",
            "postalCode": "10623"
          }
        ],
        "birthDate": "1935-06-22"
      }
    },
    {
      "fullUrl": "http://pvs.praxis-topp-gluecklich.local/fhir/Practitioner/20597e0e-cb2a-45b3-95f0-dc3dbdb617c3",
      "resource": {
        "resourceType": "Practitioner",
        "id": "20597e0e-cb2a-45b3-95f0-dc3dbdb617c3",
        "meta": {
          "profile": [
            "https://fhir.kbv.de/StructureDefinition/KBV_PR_FOR_Practitioner|1.0.3"
          ]
        },
        "identifier": [
          {
            "type": {
              "coding": [
                {
                  "code": "LANR",
                  "system": "http://terminology.hl7.org/CodeSystem/v2-0203"
                }
              ]
            },
            "system": "https://fhir.kbv.de/NamingSystem/KBV_NS_Base_ANR",
            "value": "838382202"
          }
        ],
        "name": [
          {
            "given": [
              "Hans"
            ],
            "prefix": [
              "Dr. med."
            ],
            "_prefix": [
              {
                "extension": [
                  {
                    "url": "http://hl7.org/fhir/StructureDefinition/iso21090-EN-qualifier",
                    "valueCode": "AC"
                  }
                ]
              }
            ],
            "use": "official",
            "family": "Topp-Glücklich",
            "_family": {
              "extension": [
                {
                  "url": "http://hl7.org/fhir/StructureDefinition/humanname-own-name",
                  "valueString": "Topp-Glücklich"
                }
              ]
            }
          }
        ],
        "qualification": [
          {
            "code": {
              "coding": [
                {
                  "code": "00",
                  "system": "https://fhir.kbv.de/CodeSystem/KBV_CS_FOR_Qualification_Type"
                }
              ]
            }
          },
          {
            "code": {
              "text": "Hausarzt"
            }
          }
        ]
      }
    },
    {
      "fullUrl": "http://pvs.praxis-topp-gluecklich.local/fhir/Practitioner/d8463daf-258e-4cad-a86a-6fd42fac161c",
      "resource": {
        "resourceType": "Practitioner",
        "id": "d8463daf-258e-4cad-a86a-6fd42fac161c",
        "meta": {
          "profile": [
            "https://fhir.kbv.de/StructureDefinition/KBV_PR_FOR_Practitioner|1.0.3"
          ]
        },
        "identifier": [
          {
            "type": {
              "coding": [
                {
                  "code": "LANR",
                  "system": "http://terminology.hl7.org/CodeSystem/v2-0203"
                }
              ]
            },
            "system": "https://fhir.kbv.de/NamingSystem/KBV_NS_Base_ANR",
            "value": "838382210"
          }
        ],
        "name": [
          {
            "given": [
              "Jörgen"
            ],
            "use": "official",
            "family": "Meier",
            "_family": {
              "extension": [
                {
                  "url": "http://hl7.org/fhir/StructureDefinition/humanname-own-name",
                  "valueString": "Meier"
                }
              ]
            }
          }
        ],
        "qualification": [
          {
            "code": {
              "coding": [
                {
                  "code": "03",
                  "system": "https://fhir.kbv.de/CodeSystem/KBV_CS_FOR_Qualification_Type"
                }
              ]
            }
          },
          {
            "code": {
              "text": "Arzt in Weiterbildung"
            }
          }
        ]
      }
    },
    {
      "fullUrl": "http://pvs.praxis-topp-gluecklich.local/fhir/Organization/cf042e44-086a-4d51-9c77-172f9a972e3b",
      "resource": {
        "resourceType": "Organization",
        "id": "cf042e44-086a-4d51-9c77-172f9a972e3b",
        "meta": {
          "profile": [
            "https://fhir.kbv.de/StructureDefinition/KBV_PR_FOR_Organization|1.0.3"
          ]
        },
        "identifier": [
          {
            "type": {
              "coding": [
                {
                  "code": "BSNR",
                  "system": "http://terminology.hl7.org/CodeSystem/v2-0203"
                }
              ]
            },
            "system": "https://fhir.kbv.de/NamingSystem/KBV_NS_Base_BSNR",
            "value": "031234567"
          }
        ],
        "telecom": [
          {
            "system": "phone",
            "value": "0301234567"
          }
        ],
        "address": [
          {
            "line": [
              "Musterstr. 2"
            ],
            "_line": [
              {
                "extension": [
                  {
                    "url": "http://hl7.org/fhir/StructureDefinition/iso21090-ADXP-houseNumber",
                    "valueString": "2"
                  },
                  {
                    "url": "http://hl7.org/fhir/StructureDefinition/iso21090-ADXP-streetName",
                    "valueString": "Musterstr."
                  }
                ]
              }
            ],
            "type": "both",
            "city": "Berlin",
            "postalCode": "10623"
          }
        ],
        "name": "Hausarztpraxis Dr. Topp-Glücklich"
      }
    },
    {
      "fullUrl": "http://pvs.praxis-topp-gluecklich.local/fhir/Coverage/1b1ffb6e-eb05-43d7-87eb-e7818fe9661a",
      "resource": {
        "resourceType": "Coverage",
        "id": "1b1ffb6e-eb05-43d7-87eb-e7818fe9661a",
        "meta": {
          "profile": [
            "https://fhir.kbv.de/StructureDefinition/KBV_PR_FOR_Coverage|1.0.3"
          ]
        },
        "extension": [
          {
            "url": "http://fhir.de/StructureDefinition/gkv/besondere-personengruppe",
            "valueCoding": {
              "code": "00",
              "system": "https://fhir.kbv.de/CodeSystem/KBV_CS_SFHIR_KBV_PERSONENGRUPPE"
            }
          },
          {
            "url": "http://fhir.de/StructureDefinition/gkv/dmp-kennzeichen",
            "valueCoding": {
              "code": "00",
              "system": "https://fhir.kbv.de/CodeSystem/KBV_CS_SFHIR_KBV_DMP"
            }
          },
          {
            "url": "http://fhir.de/StructureDefinition/gkv/wop",
            "valueCoding": {
              "code": "03",
              "system": "https://fhir.kbv.de/CodeSystem/KBV_CS_SFHIR_ITA_WOP"
            }
          },
          {
            "url": "http://fhir.de/StructureDefinition/gkv/versichertenart",
            "valueCoding": {
              "code": "1",
              "system": "https://fhir.kbv.de/CodeSystem/KBV_CS_SFHIR_KBV_VERSICHERTENSTATUS"
            }
          }
        ],
        "payor": [
          {
            "identifier": {
              "system": "http://fhir.de/NamingSystem/arge-ik/iknr",
              "value": "104212059"
            },
            "display": "AOK Rheinland/Hamburg"
          }
        ],
        "status": "active",
        "type": {
          "coding": [
            {
              "code": "GKV",
              "system": "http://fhir.de/CodeSystem/versicherungsart-de-basis"
            }
          ]
        },
        "beneficiary": {
          "reference": "Patient/9774f67f-a238-4daf-b4e6-679deeef3811"
        }
      }
    }
  ],
  "type": "document",
  "timestamp": "2020-05-04T08:30:00Z"
}
