{
  "resourceType": "Bundle",
  "id": "erp-abrufen-09-response-taskClose",
  "meta": {
    "profile": [
      "https://gematik.de/fhir/erp/StructureDefinition/GEM_ERP_PR_Bundle|1.3"
    ]
  },
  "identifier": {
    "system": "https://gematik.de/fhir/erp/NamingSystem/GEM_ERP_NS_PrescriptionId",
    "value": "160.123.456.789.123.58"
  },
  "link": [
    {
      "relation": "self",
      "url": "https://erp-ref.zentral.erp.splitdns.ti-dienste.de/Task/160.123.456.789.123.58/$close/"
    }
  ],
  "entry": [
    {
      "fullUrl": "urn:uuid:c624cf47-e235-4624-af71-0a09dc9254dc",
      "resource": {
        "resourceType": "Composition",
        "id": "c624cf47-e235-4624-af71-0a09dc9254dc",
        "meta": {
          "profile": [
            "https://gematik.de/fhir/erp/StructureDefinition/GEM_ERP_PR_Composition|1.3"
          ]
        },
        "extension": [
          {
            "valueIdentifier": {
              "system": "https://gematik.de/fhir/sid/telematik-id",
              "value": "3-SMC-B-Testkarte-883110000129070"
            },
            "url": "https://gematik.de/fhir/erp/StructureDefinition/GEM_ERP_EX_Beneficiary"
          }
        ],
        "author": [
          {
            "reference": "urn:uuid:65ea903d-b3ea-4b5e-acbd-3e8c2c695542"
          }
        ],
        "event": [
          {
            "period": {
              "start": "2021-11-26T09:48:36.483+00:00",
              "end": "2021-11-26T09:51:36.483+00:00"
            }
          }
        ],
        "section": [
          {
            "entry": [
              {
                "reference": "urn:uuid:073ef818-3d18-4cf0-a5b7-9321ec838f94"
              }
            ]
          }
        ],
        "status": "final",
        "type": {
          "coding": [
            {
              "code": "3",
              "system": "https://gematik.de/fhir/erp/CodeSystem/GEM_ERP_CS_DocumentType",
              "display": "Receipt"
            }
          ]
        },
        "date": "2021-11-26T09:51:36.483+00:00",
        "title": "Quittung"
      }
    },
    {
      "fullUrl": "urn:uuid:65ea903d-b3ea-4b5e-acbd-3e8c2c695542",
      "resource": {
        "resourceType": "Device",
        "id": "1",
        "meta": {
          "profile": [
            "https://gematik.de/fhir/erp/StructureDefinition/GEM_ERP_PR_Device|1.3"
          ]
        },
        "deviceName": [
          {
            "name": "E-Rezept-Fachdienst",
            "type": "user-friendly-name"
          }
        ],
        "version": [
          {
            "value": "1.4.0"
          }
        ],
        "contact": [
          {
            "system": "email",
            "value": "betrieb@gematik.de"
          }
        ],
        "status": "active",
        "serialNumber": "1.4.0"
      }
    },
    {
      "fullUrl": "urn:uuid:073ef818-3d18-4cf0-a5b7-9321ec838f94",
      "resource": {
        "resourceType": "Binary",
        "id": "073ef818-3d18-4cf0-a5b7-9321ec838f94",
        "contentType": "application/octet-stream",
        "data": "tJg8c5ZtdhzEEhJ0ZpAsUVFx5dKuYgQFs5oKgthi17M="
      }
    }
  ],
  "signature": {
    "type": [
      {
        "code": "1.2.840.10065.1.12.1.1",
        "system": "urn:iso-astm:E1762-95:2013"
      }
    ],
    "when": "2021-11-26T09:51:36.484+00:00",
    "who": {
      "reference": "https://erp.zentral.erp.splitdns.ti-dienste.de/Device/1"
    },
    "sigFormat": "application/pkcs7-mime",
    "data": "RGllcyBpc3QgZWluIEJlaXNwaWVs"
  },
  "type": "document",
  "timestamp": "2021-11-26T09:51:36.483+00:00"
}
