{
  "resourceType": "Bundle",
  "id": "erp-chargeItem-05-GET-ChargeItem-Response",
  "type": "collection",
  "timestamp": "2023-11-21T08:18:58.929+00:00",
  "entry": [
    {
      "fullUrl": "https://erp-ref.zentral.erp.splitdns.ti-dienste.de/ChargeItem/200.000.001.944.091.20",
      "resource": {
        "resourceType": "ChargeItem",
        "id": "200.000.001.944.091.20",
        "meta": {
          "profile": [
            "https://gematik.de/fhir/erpchrg/StructureDefinition/GEM_ERPCHRG_PR_ChargeItem|1.0"
          ]
        },
        "identifier": [
          {
            "system": "https://gematik.de/fhir/erp/NamingSystem/GEM_ERP_NS_PrescriptionId",
            "value": "200.000.001.944.091.20"
          }
        ],
        "status": "billable",
        "code": {
          "coding": [
            {
              "code": "not-applicable",
              "system": "http://terminology.hl7.org/CodeSystem/data-absent-reason"
            }
          ]
        },
        "subject": {
          "identifier": {
            "system": "http://fhir.de/sid/gkv/kvid-10",
            "value": "X110465770",
            "assigner": {
              "display": "KOA Hamburg"
            }
          }
        },
        "enterer": {
          "identifier": {
            "system": "https://gematik.de/fhir/sid/telematik-id",
            "value": "3-SMC-B-Testkarte-883110000116873"
          }
        },
        "enteredDate": "2023-04-21T07:12:29.316+00:00",
        "supportingInformation": [
          {
            "reference": "urn:uuid:c81baa1d-0000-0000-0001-000000000000",
            "display": "https://fhir.kbv.de/StructureDefinition/KBV_PR_ERP_Bundle"
          },
          {
            "reference": "urn:uuid:c81baa1d-0000-0000-0003-000000000000",
            "display": "https://gematik.de/fhir/erp/StructureDefinition/GEM_ERP_PR_Bundle"
          },
          {
            "reference": "urn:uuid:c81baa1d-0000-0000-0004-000000000000",
            "display": "http://fhir.abda.de/eRezeptAbgabedaten/StructureDefinition/DAV-PKV-PR-ERP-AbgabedatenBundle"
          }
        ]
      }
    },
    {
      "fullUrl": "urn:uuid:c81baa1d-0000-0000-0001-000000000000",
      "resource": {
        "resourceType": "Bundle",
        "id": "erp-bereitstellen-02-Prescription-Bundle",
        "meta": {
          "lastUpdated": "2021-07-04T08:30:00Z",
          "profile": [
            "https://fhir.kbv.de/StructureDefinition/KBV_PR_ERP_Bundle|1.1.0"
          ]
        },
        "identifier": {
          "system": "https://gematik.de/fhir/erp/NamingSystem/GEM_ERP_NS_PrescriptionId",
          "value": "160.123.456.789.123.58"
        },
        "type": "document",
        "timestamp": "2021-07-04T08:30:00Z",
        "entry": [
          {
            "fullUrl": "http://pvs.praxis-topp-gluecklich.local/fhir/Composition/b0e22b86-e7e9-46c1-80fe-e6e24442d77c",
            "resource": {
              "resourceType": "Composition",
              "id": "b0e22b86-e7e9-46c1-80fe-e6e24442d77c",
              "meta": {
                "profile": [
                  "https://fhir.kbv.de/StructureDefinition/KBV_PR_ERP_Composition|1.1.0"
                ]
              },
              "extension": [
                {
                  "url": "https://fhir.kbv.de/StructureDefinition/KBV_EX_FOR_Legal_basis",
                  "valueCoding": {
                    "code": "00",
                    "system": "https://fhir.kbv.de/CodeSystem/KBV_CS_SFHIR_KBV_STATUSKENNZEICHEN"
                  }
                }
              ],
              "status": "final",
              "type": {
                "coding": [
                  {
                    "code": "e16A",
                    "system": "https://fhir.kbv.de/CodeSystem/KBV_CS_SFHIR_KBV_FORMULAR_ART"
                  }
                ]
              },
              "subject": {
                "reference": "Patient/9774f67f-a238-4daf-b4e6-679deeef3811"
              },
              "date": "2021-07-03T11:30:02Z",
              "author": [
                {
                  "reference": "Practitioner/d8463daf-258e-4cad-a86a-6fd42fac161c",
                  "type": "Practitioner"
                },
                {
                  "type": "Device",
                  "identifier": {
                    "system": "https://fhir.kbv.de/NamingSystem/KBV_NS_FOR_Pruefnummer",
                    "value": "Y/400/1910/36/346"
                  }
                }
              ],
              "title": "elektronische Arzneimittelverordnung",
              "attester": [
                {
                  "mode": "legal",
                  "party": {
                    "reference": "Practitioner/20597e0e-cb2a-45b3-95f0-dc3dbdb617c3"
                  }
                }
              ],
              "custodian": {
                "reference": "Organization/cf042e44-086a-4d51-9c77-172f9a972e3b"
              },
              "section": [
                {
                  "code": {
                    "coding": [
                      {
                        "code": "Prescription",
                        "system": "https://fhir.kbv.de/CodeSystem/KBV_CS_ERP_Section_Type"
                      }
                    ]
                  },
                  "entry": [
                    {
                      "reference": "MedicationRequest/f58f4403-7a3a-4a12-bb15-b2fa25b02561"
                    }
                  ]
                },
                {
                  "code": {
                    "coding": [
                      {
                        "code": "Coverage",
                        "system": "https://fhir.kbv.de/CodeSystem/KBV_CS_ERP_Section_Type"
                      }
                    ]
                  },
                  "entry": [
                    {
                      "reference": "Coverage/1b1ffb6e-eb05-43d7-87eb-e7818fe9661a"
                    }
                  ]
                }
              ]
            }
          },
          {
            "fullUrl": "http://pvs.praxis-topp-gluecklich.local/fhir/MedicationRequest/f58f4403-7a3a-4a12-bb15-b2fa25b02561",
            "resource": {
              "resourceType": "MedicationRequest",
              "id": "f58f4403-7a3a-4a12-bb15-b2fa25b02561",
              "meta": {
                "profile": [
                  "https://fhir.kbv.de/StructureDefinition/KBV_PR_ERP_Prescription|1.1.0"
                ]
              },
              "extension": [
                {
                  "url": "https://fhir.kbv.de/StructureDefinition/KBV_EX_FOR_StatusCoPayment",
                  "valueCoding": {
                    "code": "0",
                    "system": "https://fhir.kbv.de/CodeSystem/KBV_CS_FOR_StatusCoPayment"
                  }
                },
                {
                  "url": "https://fhir.kbv.de/StructureDefinition/KBV_EX_ERP_EmergencyServicesFee",
                  "valueBoolean": false
                },
                {
                  "url": "https://fhir.kbv.de/StructureDefinition/KBV_EX_ERP_BVG",
                  "valueBoolean": false
                },
                {
                  "extension": [
                    {
                      "url": "Unfallkennzeichen",
                      "valueCoding": {
                        "code": "1",
                        "system": "https://fhir.kbv.de/CodeSystem/KBV_CS_FOR_Ursache_Type"
                      }
                    },
                    {
                      "url": "Unfalltag",
                      "valueDate": "2021-07-01"
                    }
                  ],
                  "url": "https://fhir.kbv.de/StructureDefinition/KBV_EX_FOR_Accident"
                },
                {
                  "extension": [
                    {
                      "url": "Kennzeichen",
                      "valueBoolean": true
                    },
                    {
                      "url": "Nummerierung",
                      "valueRatio": {
                        "numerator": {
                          "value": 2
                        },
                        "denominator": {
                          "value": 4
                        }
                      }
                    },
                    {
                      "url": "Zeitraum",
                      "valuePeriod": {
                        "start": "2021-07-02",
                        "end": "2021-09-30"
                      }
                    },
                    {
                      "url": "ID",
                      "valueIdentifier": {
                        "system": "urn:ietf:rfc:3986",
                        "value": "urn:uuid:24e2e10d-e962-4d1c-be4f-8760e690a5f0"
                      }
                    }
                  ],
                  "url": "https://fhir.kbv.de/StructureDefinition/KBV_EX_ERP_Multiple_Prescription"
                }
              ],
              "status": "active",
              "intent": "order",
              "medicationReference": {
                "reference": "Medication/e3a4efa7-84fc-465b-b14c-720195097783"
              },
              "subject": {
                "reference": "Patient/9774f67f-a238-4daf-b4e6-679deeef3811"
              },
              "authoredOn": "2021-07-02",
              "requester": {
                "reference": "Practitioner/d8463daf-258e-4cad-a86a-6fd42fac161c"
              },
              "insurance": [
                {
                  "reference": "Coverage/1b1ffb6e-eb05-43d7-87eb-e7818fe9661a"
                }
              ],
              "note": [
                {
                  "text": "Dummy-Hinweis für die Apotheke"
                }
              ],
              "dosageInstruction": [
                {
                  "extension": [
                    {
                      "url": "https://fhir.kbv.de/StructureDefinition/KBV_EX_ERP_DosageFlag",
                      "valueBoolean": false
                    }
                  ]
                }
              ],
              "dispenseRequest": {
                "quantity": {
                  "value": 2,
                  "code": "{Package}",
                  "system": "http://unitsofmeasure.org"
                }
              }
            }
          },
          {
            "fullUrl": "http://pvs.praxis-topp-gluecklich.local/fhir/Medication/e3a4efa7-84fc-465b-b14c-720195097783",
            "resource": {
              "resourceType": "Medication",
              "id": "e3a4efa7-84fc-465b-b14c-720195097783",
              "meta": {
                "profile": [
                  "https://fhir.kbv.de/StructureDefinition/KBV_PR_ERP_Medication_Ingredient|1.1.0"
                ]
              },
              "extension": [
                {
                  "url": "https://fhir.kbv.de/StructureDefinition/KBV_EX_ERP_Medication_Category",
                  "valueCoding": {
                    "code": "00",
                    "system": "https://fhir.kbv.de/CodeSystem/KBV_CS_ERP_Medication_Category"
                  }
                },
                {
                  "url": "https://fhir.kbv.de/StructureDefinition/KBV_EX_ERP_Medication_Vaccine",
                  "valueBoolean": false
                }
              ],
              "code": {
                "coding": [
                  {
                    "code": "wirkstoff",
                    "system": "https://fhir.kbv.de/CodeSystem/KBV_CS_ERP_Medication_Type"
                  }
                ]
              },
              "form": {
                "text": "Tabletten"
              },
              "amount": {
                "numerator": {
                  "extension": [
                    {
                      "url": "https://fhir.kbv.de/StructureDefinition/KBV_EX_ERP_Medication_PackagingSize",
                      "valueString": "20"
                    }
                  ],
                  "unit": "Stk"
                },
                "denominator": {
                  "value": 1
                }
              },
              "ingredient": [
                {
                  "itemCodeableConcept": {
                    "coding": [
                      {
                        "code": "Dummy-ASK",
                        "system": "http://fhir.de/CodeSystem/ask"
                      }
                    ],
                    "text": "Ibuprofen"
                  },
                  "strength": {
                    "numerator": {
                      "value": 800,
                      "unit": "mg"
                    },
                    "denominator": {
                      "value": 1
                    }
                  }
                }
              ]
            }
          },
          {
            "fullUrl": "http://pvs.praxis-topp-gluecklich.local/fhir/Patient/9774f67f-a238-4daf-b4e6-679deeef3811",
            "resource": {
              "resourceType": "Patient",
              "id": "9774f67f-a238-4daf-b4e6-679deeef3811",
              "meta": {
                "profile": [
                  "https://fhir.kbv.de/StructureDefinition/KBV_PR_FOR_Patient|1.1.0"
                ]
              },
              "identifier": [
                {
                  "type": {
                    "coding": [
                      {
                        "code": "GKV",
                        "system": "http://fhir.de/CodeSystem/identifier-type-de-basis"
                      }
                    ]
                  },
                  "system": "http://fhir.de/sid/gkv/kvid-10",
                  "value": "X234567890"
                }
              ],
              "name": [
                {
                  "use": "official",
                  "family": "Ludger Königsstein",
                  "_family": {
                    "extension": [
                      {
                        "url": "http://hl7.org/fhir/StructureDefinition/humanname-own-name",
                        "valueString": "Königsstein"
                      }
                    ]
                  },
                  "given": [
                    "Ludger"
                  ]
                }
              ],
              "birthDate": "1935-06-22",
              "address": [
                {
                  "type": "both",
                  "line": [
                    "Musterstr. 1"
                  ],
                  "_line": [
                    {
                      "extension": [
                        {
                          "url": "http://hl7.org/fhir/StructureDefinition/iso21090-ADXP-houseNumber",
                          "valueString": "1"
                        },
                        {
                          "url": "http://hl7.org/fhir/StructureDefinition/iso21090-ADXP-streetName",
                          "valueString": "Musterstr."
                        }
                      ]
                    }
                  ],
                  "city": "Berlin",
                  "postalCode": "10623"
                }
              ]
            }
          },
          {
            "fullUrl": "http://pvs.praxis-topp-gluecklich.local/fhir/Practitioner/20597e0e-cb2a-45b3-95f0-dc3dbdb617c3",
            "resource": {
              "resourceType": "Practitioner",
              "id": "20597e0e-cb2a-45b3-95f0-dc3dbdb617c3",
              "meta": {
                "profile": [
                  "https://fhir.kbv.de/StructureDefinition/KBV_PR_FOR_Practitioner|1.1.0"
                ]
              },
              "identifier": [
                {
                  "type": {
                    "coding": [
                      {
                        "code": "LANR",
                        "system": "http://terminology.hl7.org/CodeSystem/v2-0203"
                      }
                    ]
                  },
                  "system": "https://fhir.kbv.de/NamingSystem/KBV_NS_Base_ANR",
                  "value": "838382202"
                }
              ],
              "name": [
                {
                  "use": "official",
                  "family": "Topp-Glücklich",
                  "_family": {
                    "extension": [
                      {
                        "url": "http://hl7.org/fhir/StructureDefinition/humanname-own-name",
                        "valueString": "Topp-Glücklich"
                      }
                    ]
                  },
                  "given": [
                    "Hans"
                  ],
                  "prefix": [
                    "Dr. med."
                  ],
                  "_prefix": [
                    {
                      "extension": [
                        {
                          "url": "http://hl7.org/fhir/StructureDefinition/iso21090-EN-qualifier",
                          "valueCode": "AC"
                        }
                      ]
                    }
                  ]
                }
              ],
              "qualification": [
                {
                  "code": {
                    "coding": [
                      {
                        "code": "00",
                        "system": "https://fhir.kbv.de/CodeSystem/KBV_CS_FOR_Qualification_Type"
                      }
                    ]
                  }
                },
                {
                  "code": {
                    "text": "Hausarzt",
                    "coding": [
                      {
                        "system": "https://fhir.kbv.de/CodeSystem/KBV_CS_FOR_Berufsbezeichnung",
                        "code": "Berufsbezeichnung"
                      }
                    ]
                  }
                }
              ]
            }
          },
          {
            "fullUrl": "http://pvs.praxis-topp-gluecklich.local/fhir/Practitioner/d8463daf-258e-4cad-a86a-6fd42fac161c",
            "resource": {
              "resourceType": "Practitioner",
              "id": "d8463daf-258e-4cad-a86a-6fd42fac161c",
              "meta": {
                "profile": [
                  "https://fhir.kbv.de/StructureDefinition/KBV_PR_FOR_Practitioner|1.1.0"
                ]
              },
              "identifier": [
                {
                  "type": {
                    "coding": [
                      {
                        "code": "LANR",
                        "system": "http://terminology.hl7.org/CodeSystem/v2-0203"
                      }
                    ]
                  },
                  "system": "https://fhir.kbv.de/NamingSystem/KBV_NS_Base_ANR",
                  "value": "838382210"
                }
              ],
              "name": [
                {
                  "use": "official",
                  "family": "Meier",
                  "_family": {
                    "extension": [
                      {
                        "url": "http://hl7.org/fhir/StructureDefinition/humanname-own-name",
                        "valueString": "Meier"
                      }
                    ]
                  },
                  "given": [
                    "Jörgen"
                  ]
                }
              ],
              "qualification": [
                {
                  "code": {
                    "coding": [
                      {
                        "code": "03",
                        "system": "https://fhir.kbv.de/CodeSystem/KBV_CS_FOR_Qualification_Type"
                      }
                    ]
                  }
                },
                {
                  "code": {
                    "text": "Arzt in Weiterbildung",
                    "coding": [
                      {
                        "system": "https://fhir.kbv.de/CodeSystem/KBV_CS_FOR_Berufsbezeichnung",
                        "code": "Berufsbezeichnung"
                      }
                    ]
                  }
                }
              ]
            }
          },
          {
            "fullUrl": "http://pvs.praxis-topp-gluecklich.local/fhir/Organization/cf042e44-086a-4d51-9c77-172f9a972e3b",
            "resource": {
              "resourceType": "Organization",
              "id": "cf042e44-086a-4d51-9c77-172f9a972e3b",
              "meta": {
                "profile": [
                  "https://fhir.kbv.de/StructureDefinition/KBV_PR_FOR_Organization|1.1.0"
                ]
              },
              "identifier": [
                {
                  "type": {
                    "coding": [
                      {
                        "code": "BSNR",
                        "system": "http://terminology.hl7.org/CodeSystem/v2-0203"
                      }
                    ]
                  },
                  "system": "https://fhir.kbv.de/NamingSystem/KBV_NS_Base_BSNR",
                  "value": "031234567"
                }
              ],
              "name": "Hausarztpraxis Dr. Topp-Glücklich",
              "telecom": [
                {
                  "system": "phone",
                  "value": "0301234567"
                }
              ],
              "address": [
                {
                  "type": "both",
                  "line": [
                    "Musterstr. 2"
                  ],
                  "_line": [
                    {
                      "extension": [
                        {
                          "url": "http://hl7.org/fhir/StructureDefinition/iso21090-ADXP-houseNumber",
                          "valueString": "2"
                        },
                        {
                          "url": "http://hl7.org/fhir/StructureDefinition/iso21090-ADXP-streetName",
                          "valueString": "Musterstr."
                        }
                      ]
                    }
                  ],
                  "city": "Berlin",
                  "postalCode": "10623"
                }
              ]
            }
          },
          {
            "fullUrl": "http://pvs.praxis-topp-gluecklich.local/fhir/Coverage/1b1ffb6e-eb05-43d7-87eb-e7818fe9661a",
            "resource": {
              "resourceType": "Coverage",
              "id": "1b1ffb6e-eb05-43d7-87eb-e7818fe9661a",
              "meta": {
                "profile": [
                  "https://fhir.kbv.de/StructureDefinition/KBV_PR_FOR_Coverage|1.1.0"
                ]
              },
              "extension": [
                {
                  "url": "http://fhir.de/StructureDefinition/gkv/besondere-personengruppe",
                  "valueCoding": {
                    "code": "00",
                    "system": "https://fhir.kbv.de/CodeSystem/KBV_CS_SFHIR_KBV_PERSONENGRUPPE"
                  }
                },
                {
                  "url": "http://fhir.de/StructureDefinition/gkv/dmp-kennzeichen",
                  "valueCoding": {
                    "code": "00",
                    "system": "https://fhir.kbv.de/CodeSystem/KBV_CS_SFHIR_KBV_DMP"
                  }
                },
                {
                  "url": "http://fhir.de/StructureDefinition/gkv/wop",
                  "valueCoding": {
                    "code": "03",
                    "system": "https://fhir.kbv.de/CodeSystem/KBV_CS_SFHIR_ITA_WOP"
                  }
                },
                {
                  "url": "http://fhir.de/StructureDefinition/gkv/versichertenart",
                  "valueCoding": {
                    "code": "1",
                    "system": "https://fhir.kbv.de/CodeSystem/KBV_CS_SFHIR_KBV_VERSICHERTENSTATUS"
                  }
                }
              ],
              "status": "active",
              "type": {
                "coding": [
                  {
                    "code": "GKV",
                    "system": "http://fhir.de/CodeSystem/versicherungsart-de-basis"
                  }
                ]
              },
              "beneficiary": {
                "reference": "Patient/9774f67f-a238-4daf-b4e6-679deeef3811"
              },
              "payor": [
                {
                  "identifier": {
                    "system": "http://fhir.de/sid/arge-ik/iknr",
                    "value": "104212059"
                  },
                  "display": "AOK Rheinland/Hamburg"
                }
              ]
            }
          }
        ]
      }
    },
    {
      "fullUrl": "urn:uuid:c81baa1d-0000-0000-0003-000000000000",
      "resource": {
        "resourceType": "Bundle",
        "id": "erp-chargeitem-example-quittung",
        "meta": {
          "profile": [
            "https://gematik.de/fhir/erp/StructureDefinition/GEM_ERP_PR_Bundle|1.2"
          ]
        },
        "identifier": {
          "system": "https://gematik.de/fhir/erp/NamingSystem/GEM_ERP_NS_PrescriptionId",
          "value": "200.424.187.927.272.20"
        },
        "type": "document",
        "timestamp": "2024-02-08T18:14:54.961+00:00",
        "link": [
          {
            "relation": "self",
            "url": "https://erp-ref.zentral.erp.splitdns.ti-dienste.de/Task/200.424.187.927.272.20/$close/"
          }
        ],
        "entry": [
          {
            "fullUrl": "urn:uuid:451cb89a-78ce-435c-9359-20c1f76392a6",
            "resource": {
              "resourceType": "Composition",
              "id": "451cb89a-78ce-435c-9359-20c1f76392a6",
              "meta": {
                "profile": [
                  "https://gematik.de/fhir/erp/StructureDefinition/GEM_ERP_PR_Composition|1.2"
                ]
              },
              "extension": [
                {
                  "url": "https://gematik.de/fhir/erp/StructureDefinition/GEM_ERP_EX_Beneficiary",
                  "valueIdentifier": {
                    "system": "https://gematik.de/fhir/sid/telematik-id",
                    "value": "3-SMC-B-Testkarte-883110000116873"
                  }
                }
              ],
              "status": "final",
              "type": {
                "coding": [
                  {
                    "code": "3",
                    "system": "https://gematik.de/fhir/erp/CodeSystem/GEM_ERP_CS_DocumentType",
                    "display": "Receipt"
                  }
                ]
              },
              "date": "2024-02-08T18:14:54.957+00:00",
              "author": [
                {
                  "reference": "urn:uuid:8ab19abe-dac3-4441-83fe-cefa65761f41"
                }
              ],
              "title": "Quittung",
              "event": [
                {
                  "period": {
                    "start": "2024-02-08T18:14:53.402+00:00",
                    "end": "2024-02-08T18:14:54.957+00:00"
                  }
                }
              ],
              "section": [
                {
                  "entry": [
                    {
                      "reference": "urn:uuid:814460da-bf72-4ad1-b2cb-e31c0529f506"
                    }
                  ]
                }
              ]
            }
          },
          {
            "fullUrl": "urn:uuid:8ab19abe-dac3-4441-83fe-cefa65761f41",
            "resource": {
              "resourceType": "Device",
              "id": "1",
              "meta": {
                "profile": [
                  "https://gematik.de/fhir/erp/StructureDefinition/GEM_ERP_PR_Device|1.2"
                ]
              },
              "status": "active",
              "serialNumber": "1.13.0",
              "deviceName": [
                {
                  "name": "E-Rezept Fachdienst",
                  "type": "user-friendly-name"
                }
              ],
              "version": [
                {
                  "value": "1.13.0"
                }
              ],
              "contact": [
                {
                  "system": "email",
                  "value": "betrieb@gematik.de"
                }
              ]
            }
          },
          {
            "fullUrl": "urn:uuid:814460da-bf72-4ad1-b2cb-e31c0529f506",
            "resource": {
              "resourceType": "Binary",
              "id": "814460da-bf72-4ad1-b2cb-e31c0529f506",
              "meta": {
                "profile": [
                  "https://gematik.de/fhir/erp/StructureDefinition/GEM_ERP_PR_Digest|1.2"
                ]
              },
              "contentType": "application/octet-stream",
              "data": "Q0BenO7xJuQG5TMYpw83mHcjfDW/gYy1lOXkM/mrkRM="
            }
          }
        ],
        "signature": {
          "type": [
            {
              "code": "1.2.840.10065.1.12.1.1",
              "system": "urn:iso-astm:E1762-95:2013"
            }
          ],
          "when": "2024-02-08T18:14:56.838+00:00",
          "who": {
            "reference": "https://erp-ref.zentral.erp.splitdns.ti-dienste.de/Device/1"
          },
          "sigFormat": "application/pkcs7-mime",
          "data": ""
        }
      }
    },
    {
      "fullUrl": "urn:uuid:c81baa1d-0000-0000-0004-000000000000",
      "resource": {
        "resourceType": "Bundle",
        "id": "6d240a29-144f-477b-b8e7-92d4b4bcebfd",
        "meta": {
          "profile": [
            "http://fhir.abda.de/eRezeptAbgabedaten/StructureDefinition/DAV-PKV-PR-ERP-AbgabedatenBundle|1.2"
          ],
          "tag": [
            {
              "display": "Beispiel RezeptAbgabedatenPKV Bundle (PZN-1)"
            },
            {
              "display": "ACHTUNG! Der fachlich korrekte Inhalt der Beispielinstanz kann nicht gewährleistet werden. Wir sind jederzeit dankbar für Hinweise auf Fehler oder für Verbesserungsvorschläge."
            }
          ]
        },
        "identifier": {
          "system": "https://gematik.de/fhir/erp/NamingSystem/GEM_ERP_NS_PrescriptionId",
          "value": "200.424.187.927.272.20"
        },
        "type": "document",
        "timestamp": "2023-07-03T11:30:00Z",
        "entry": [
          {
            "fullUrl": "urn:uuid:0877a6ac-9433-43b2-bcd5-46046479c306",
            "resource": {
              "resourceType": "Composition",
              "id": "0877a6ac-9433-43b2-bcd5-46046479c306",
              "meta": {
                "profile": [
                  "http://fhir.abda.de/eRezeptAbgabedaten/StructureDefinition/DAV-PKV-PR-ERP-AbgabedatenComposition|1.2"
                ]
              },
              "status": "final",
              "type": {
                "coding": [
                  {
                    "code": "ERezeptAbgabedaten",
                    "system": "http://fhir.abda.de/eRezeptAbgabedaten/CodeSystem/DAV-CS-ERP-CompositionTypes"
                  }
                ]
              },
              "date": "2023-07-03T11:30:00Z",
              "author": [
                {
                  "reference": "urn:uuid:b998a7cd-f582-4a23-b86a-58e22402d105"
                }
              ],
              "title": "ERezeptAbgabedaten",
              "section": [
                {
                  "title": "Abgabeinformationen",
                  "entry": [
                    {
                      "reference": "urn:uuid:7b1e6c94-71fb-4bbe-9c5a-2e865efd8526"
                    }
                  ]
                },
                {
                  "title": "Apotheke",
                  "entry": [
                    {
                      "reference": "urn:uuid:b998a7cd-f582-4a23-b86a-58e22402d105"
                    }
                  ]
                }
              ]
            }
          },
          {
            "fullUrl": "urn:uuid:b998a7cd-f582-4a23-b86a-58e22402d105",
            "resource": {
              "resourceType": "Organization",
              "id": "b998a7cd-f582-4a23-b86a-58e22402d105",
              "meta": {
                "profile": [
                  "http://fhir.abda.de/eRezeptAbgabedaten/StructureDefinition/DAV-PKV-PR-ERP-Apotheke|1.2"
                ]
              },
              "identifier": [
                {
                  "system": "http://fhir.de/sid/arge-ik/iknr",
                  "value": "308412345"
                }
              ],
              "name": "Adler-Apotheke",
              "address": [
                {
                  "type": "physical",
                  "line": [
                    "Taunusstraße 89"
                  ],
                  "_line": [
                    {
                      "extension": [
                        {
                          "url": "http://hl7.org/fhir/StructureDefinition/iso21090-ADXP-streetName",
                          "valueString": "Taunusstraße"
                        },
                        {
                          "url": "http://hl7.org/fhir/StructureDefinition/iso21090-ADXP-houseNumber",
                          "valueString": "89"
                        }
                      ]
                    }
                  ],
                  "city": "Langen",
                  "postalCode": "63225",
                  "country": "D"
                }
              ]
            }
          },
          {
            "fullUrl": "urn:uuid:7b1e6c94-71fb-4bbe-9c5a-2e865efd8526",
            "resource": {
              "resourceType": "MedicationDispense",
              "id": "7b1e6c94-71fb-4bbe-9c5a-2e865efd8526",
              "meta": {
                "profile": [
                  "http://fhir.abda.de/eRezeptAbgabedaten/StructureDefinition/DAV-PKV-PR-ERP-Abgabeinformationen|1.2"
                ]
              },
              "extension": [
                {
                  "url": "http://fhir.abda.de/eRezeptAbgabedaten/StructureDefinition/DAV-EX-ERP-Abrechnungszeilen",
                  "valueReference": {
                    "reference": "urn:uuid:da94b6d8-f853-48b9-b101-be9280b81a71"
                  }
                },
                {
                  "url": "http://fhir.abda.de/eRezeptAbgabedaten/StructureDefinition/DAV-PKV-EX-ERP-AbrechnungsTyp",
                  "valueCodeableConcept": {
                    "coding": [
                      {
                        "code": "1",
                        "system": "http://fhir.abda.de/eRezeptAbgabedaten/CodeSystem/DAV-PKV-CS-ERP-AbrechnungsTyp"
                      }
                    ]
                  }
                }
              ],
              "status": "completed",
              "medicationCodeableConcept": {
                "coding": [
                  {
                    "code": "not-applicable",
                    "system": "http://terminology.hl7.org/CodeSystem/data-absent-reason"
                  }
                ]
              },
              "performer": [
                {
                  "actor": {
                    "reference": "urn:uuid:b998a7cd-f582-4a23-b86a-58e22402d105"
                  }
                }
              ],
              "authorizingPrescription": [
                {
                  "identifier": {
                    "system": "https://gematik.de/fhir/erp/NamingSystem/GEM_ERP_NS_PrescriptionId",
                    "value": "200.424.187.927.272.20"
                  }
                }
              ],
              "type": {
                "coding": [
                  {
                    "code": "Abgabeinformationen",
                    "system": "http://fhir.abda.de/eRezeptAbgabedaten/CodeSystem/DAV-CS-ERP-MedicationDispenseTyp"
                  }
                ]
              },
              "whenHandedOver": "2023-07-03"
            }
          },
          {
            "fullUrl": "urn:uuid:da94b6d8-f853-48b9-b101-be9280b81a71",
            "resource": {
              "resourceType": "Invoice",
              "id": "da94b6d8-f853-48b9-b101-be9280b81a71",
              "meta": {
                "profile": [
                  "http://fhir.abda.de/eRezeptAbgabedaten/StructureDefinition/DAV-PKV-PR-ERP-Abrechnungszeilen|1.2"
                ]
              },
              "status": "issued",
              "type": {
                "coding": [
                  {
                    "code": "Abrechnungszeilen",
                    "system": "http://fhir.abda.de/eRezeptAbgabedaten/CodeSystem/DAV-CS-ERP-InvoiceTyp"
                  }
                ]
              },
              "lineItem": [
                {
                  "sequence": 1,
                  "chargeItemCodeableConcept": {
                    "coding": [
                      {
                        "code": "03879429",
                        "system": "http://fhir.de/CodeSystem/ifa/pzn"
                      }
                    ],
                    "text": "BELOC-ZOK mite 47,5 mg Retardtabletten 30 St"
                  },
                  "priceComponent": [
                    {
                      "extension": [
                        {
                          "url": "http://fhir.abda.de/eRezeptAbgabedaten/StructureDefinition/DAV-EX-ERP-MwStSatz",
                          "valueDecimal": 19
                        },
                        {
                          "extension": [
                            {
                              "url": "Kategorie",
                              "valueCodeableConcept": {
                                "coding": [
                                  {
                                    "code": "0",
                                    "system": "http://fhir.abda.de/eRezeptAbgabedaten/CodeSystem/DAV-PKV-CS-ERP-KostenVersicherterKategorie"
                                  }
                                ]
                              }
                            },
                            {
                              "url": "Kostenbetrag",
                              "valueMoney": {
                                "value": 0,
                                "currency": "EUR"
                              }
                            }
                          ],
                          "url": "http://fhir.abda.de/eRezeptAbgabedaten/StructureDefinition/DAV-EX-ERP-KostenVersicherter"
                        }
                      ],
                      "type": "informational",
                      "factor": 1,
                      "amount": {
                        "value": 21.04,
                        "currency": "EUR"
                      }
                    }
                  ]
                }
              ],
              "totalGross": {
                "extension": [
                  {
                    "url": "http://fhir.abda.de/eRezeptAbgabedaten/StructureDefinition/DAV-EX-ERP-Gesamtzuzahlung",
                    "valueMoney": {
                      "value": 0,
                      "currency": "EUR"
                    }
                  }
                ],
                "value": 21.04,
                "currency": "EUR"
              }
            }
          }
        ]
      }
    }
  ]
}
