{
  "resourceType": "Bundle",
  "id": "erp-chargeitem-example-quittung",
  "meta": {
    "profile": [
      "https://gematik.de/fhir/erp/StructureDefinition/GEM_ERP_PR_Bundle|1.2"
    ]
  },
  "identifier": {
    "system": "https://gematik.de/fhir/erp/NamingSystem/GEM_ERP_NS_PrescriptionId",
    "value": "200.424.187.927.272.20"
  },
  "type": "document",
  "timestamp": "2024-02-08T18:14:54.961+00:00",
  "link": [
    {
      "relation": "self",
      "url": "https://erp-ref.zentral.erp.splitdns.ti-dienste.de/Task/200.424.187.927.272.20/$close/"
    }
  ],
  "entry": [
    {
      "fullUrl": "urn:uuid:451cb89a-78ce-435c-9359-20c1f76392a6",
      "resource": {
        "resourceType": "Composition",
        "id": "451cb89a-78ce-435c-9359-20c1f76392a6",
        "meta": {
          "profile": [
            "https://gematik.de/fhir/erp/StructureDefinition/GEM_ERP_PR_Composition|1.2"
          ]
        },
        "extension": [
          {
            "url": "https://gematik.de/fhir/erp/StructureDefinition/GEM_ERP_EX_Beneficiary",
            "valueIdentifier": {
              "system": "https://gematik.de/fhir/sid/telematik-id",
              "value": "3-SMC-B-Testkarte-883110000116873"
            }
          }
        ],
        "status": "final",
        "type": {
          "coding": [
            {
              "code": "3",
              "system": "https://gematik.de/fhir/erp/CodeSystem/GEM_ERP_CS_DocumentType",
              "display": "Receipt"
            }
          ]
        },
        "date": "2024-02-08T18:14:54.957+00:00",
        "author": [
          {
            "reference": "urn:uuid:8ab19abe-dac3-4441-83fe-cefa65761f41"
          }
        ],
        "title": "Quittung",
        "event": [
          {
            "period": {
              "start": "2024-02-08T18:14:53.402+00:00",
              "end": "2024-02-08T18:14:54.957+00:00"
            }
          }
        ],
        "section": [
          {
            "entry": [
              {
                "reference": "urn:uuid:814460da-bf72-4ad1-b2cb-e31c0529f506"
              }
            ]
          }
        ]
      }
    },
    {
      "fullUrl": "urn:uuid:8ab19abe-dac3-4441-83fe-cefa65761f41",
      "resource": {
        "resourceType": "Device",
        "id": "1",
        "meta": {
          "profile": [
            "https://gematik.de/fhir/erp/StructureDefinition/GEM_ERP_PR_Device|1.2"
          ]
        },
        "status": "active",
        "serialNumber": "1.13.0",
        "deviceName": [
          {
            "name": "E-Rezept Fachdienst",
            "type": "user-friendly-name"
          }
        ],
        "version": [
          {
            "value": "1.13.0"
          }
        ],
        "contact": [
          {
            "system": "email",
            "value": "betrieb@gematik.de"
          }
        ]
      }
    },
    {
      "fullUrl": "urn:uuid:814460da-bf72-4ad1-b2cb-e31c0529f506",
      "resource": {
        "resourceType": "Binary",
        "id": "814460da-bf72-4ad1-b2cb-e31c0529f506",
        "meta": {
          "profile": [
            "https://gematik.de/fhir/erp/StructureDefinition/GEM_ERP_PR_Digest|1.2"
          ]
        },
        "contentType": "application/octet-stream",
        "data": "Q0BenO7xJuQG5TMYpw83mHcjfDW/gYy1lOXkM/mrkRM="
      }
    }
  ],
  "signature": {
    "type": [
      {
        "code": "1.2.840.10065.1.12.1.1",
        "system": "urn:iso-astm:E1762-95:2013"
      }
    ],
    "when": "2024-02-08T18:14:56.838+00:00",
    "who": {
      "reference": "https://erp-ref.zentral.erp.splitdns.ti-dienste.de/Device/1"
    },
    "sigFormat": "application/pkcs7-mime",
    "data": ""
  }
}
