{
  "resourceType": "Bundle",
  "id": "erp-abrufen-07-request-taskCloseMultiple",
  "meta": {
    "profile": [
      "https://gematik.de/fhir/erp/StructureDefinition/GEM_ERP_PR_CloseOperationInputBundle|1.4"
    ]
  },
  "entry": [
    {
      "fullUrl": "urn:uuid:a3ddc2b1-826d-4b81-87b2-558834e00f50",
      "resource": {
        "resourceType": "MedicationDispense",
        "id": "a3ddc2b1-826d-4b81-87b2-558834e00f50",
        "meta": {
          "profile": [
            "https://gematik.de/fhir/erp/StructureDefinition/GEM_ERP_PR_MedicationDispense|1.4"
          ]
        },
        "contained": [
          {
            "meta": {
              "profile": [
                "https://fhir.kbv.de/StructureDefinition/KBV_PR_ERP_Medication_PZN|1.1.0"
              ]
            },
            "resourceType": "Medication",
            "id": "c2b10a5e-3d71-434c-86e0-824af208a2bf",
            "extension": [
              {
                "url": "https://fhir.kbv.de/StructureDefinition/KBV_EX_Base_Medication_Type",
                "valueCodeableConcept": {
                  "coding": [
                    {
                      "version": "http://snomed.info/sct/900000000000207008/version/20220331",
                      "code": "763158003",
                      "system": "http://snomed.info/sct",
                      "display": "Medicinal product (product)"
                    }
                  ]
                }
              },
              {
                "url": "http://fhir.de/StructureDefinition/normgroesse",
                "valueCode": "N1"
              },
              {
                "url": "https://fhir.kbv.de/StructureDefinition/KBV_EX_ERP_Medication_Category",
                "valueCoding": {
                  "code": "00",
                  "system": "https://fhir.kbv.de/CodeSystem/KBV_CS_ERP_Medication_Category"
                }
              },
              {
                "url": "https://fhir.kbv.de/StructureDefinition/KBV_EX_ERP_Medication_Vaccine",
                "valueBoolean": false
              }
            ],
            "code": {
              "coding": [
                {
                  "code": "14186244",
                  "system": "http://fhir.de/CodeSystem/ifa/pzn"
                }
              ],
              "text": "FLUSARION EH50/250UG/60 PC"
            },
            "form": {
              "coding": [
                {
                  "code": "IHP",
                  "system": "https://fhir.kbv.de/CodeSystem/KBV_CS_SFHIR_KBV_DARREICHUNGSFORM"
                }
              ]
            }
          }
        ],
        "identifier": [
          {
            "system": "https://gematik.de/fhir/erp/NamingSystem/GEM_ERP_NS_PrescriptionId",
            "value": "160.000.088.357.031.88"
          }
        ],
        "subject": {
          "identifier": {
            "system": "http://fhir.de/sid/gkv/kvid-10",
            "value": "K220635158"
          }
        },
        "performer": [
          {
            "actor": {
              "identifier": {
                "system": "https://gematik.de/fhir/sid/telematik-id",
                "value": "3-15.2.1456789123.191"
              }
            }
          }
        ],
        "status": "completed",
        "medicationReference": {
          "reference": "c2b10a5e-3d71-434c-86e0-824af208a2bf"
        },
        "whenHandedOver": "2021-11-30"
      }
    },
    {
      "fullUrl": "urn:uuid:854b6c62-8c8a-4ad6-b145-d5bac5f9f010",
      "resource": {
        "resourceType": "MedicationDispense",
        "id": "854b6c62-8c8a-4ad6-b145-d5bac5f9f010",
        "meta": {
          "profile": [
            "https://gematik.de/fhir/erp/StructureDefinition/GEM_ERP_PR_MedicationDispense|1.4"
          ]
        },
        "contained": [
          {
            "meta": {
              "profile": [
                "https://fhir.kbv.de/StructureDefinition/KBV_PR_ERP_Medication_PZN|1.1.0"
              ]
            },
            "resourceType": "Medication",
            "id": "756b422f-4df0-4afe-9d54-da534a44109e",
            "extension": [
              {
                "url": "https://fhir.kbv.de/StructureDefinition/KBV_EX_Base_Medication_Type",
                "valueCodeableConcept": {
                  "coding": [
                    {
                      "version": "http://snomed.info/sct/900000000000207008/version/20220331",
                      "code": "763158003",
                      "system": "http://snomed.info/sct",
                      "display": "Medicinal product (product)"
                    }
                  ]
                }
              },
              {
                "url": "http://fhir.de/StructureDefinition/normgroesse",
                "valueCode": "N1"
              },
              {
                "url": "https://fhir.kbv.de/StructureDefinition/KBV_EX_ERP_Medication_Category",
                "valueCoding": {
                  "code": "00",
                  "system": "https://fhir.kbv.de/CodeSystem/KBV_CS_ERP_Medication_Category"
                }
              },
              {
                "url": "https://fhir.kbv.de/StructureDefinition/KBV_EX_ERP_Medication_Vaccine",
                "valueBoolean": false
              }
            ],
            "code": {
              "coding": [
                {
                  "code": "14186244",
                  "system": "http://fhir.de/CodeSystem/ifa/pzn"
                }
              ],
              "text": "FLUSARION EH50/250UG/60 PC"
            },
            "form": {
              "coding": [
                {
                  "code": "IHP",
                  "system": "https://fhir.kbv.de/CodeSystem/KBV_CS_SFHIR_KBV_DARREICHUNGSFORM"
                }
              ]
            }
          }
        ],
        "identifier": [
          {
            "system": "https://gematik.de/fhir/erp/NamingSystem/GEM_ERP_NS_PrescriptionId",
            "value": "160.000.088.357.031.88"
          }
        ],
        "subject": {
          "identifier": {
            "system": "http://fhir.de/sid/gkv/kvid-10",
            "value": "K220635158"
          }
        },
        "performer": [
          {
            "actor": {
              "identifier": {
                "system": "https://gematik.de/fhir/sid/telematik-id",
                "value": "3-15.2.1456789123.191"
              }
            }
          }
        ],
        "status": "completed",
        "medicationReference": {
          "reference": "756b422f-4df0-4afe-9d54-da534a44109e"
        },
        "whenHandedOver": "2021-11-30"
      }
    }
  ],
  "type": "collection"
}
