{
  "resourceType": "Bundle",
  "id": "erp-chargeItem-05-GET-ChargeItem-Response",
  "entry": [
    {
      "fullUrl": "https://erp-ref.zentral.erp.splitdns.ti-dienste.de/ChargeItem/200.000.001.944.091.20",
      "resource": {
        "resourceType": "ChargeItem",
        "id": "200.000.001.944.091.20",
        "meta": {
          "profile": [
            "https://gematik.de/fhir/erpchrg/StructureDefinition/GEM_ERPCHRG_PR_ChargeItem|1.0"
          ]
        },
        "identifier": [
          {
            "system": "https://gematik.de/fhir/erp/NamingSystem/GEM_ERP_NS_PrescriptionId",
            "value": "200.000.001.944.091.20"
          }
        ],
        "subject": {
          "identifier": {
            "assigner": {
              "display": "KOA Hamburg"
            },
            "system": "http://fhir.de/sid/pkv/kvid-10",
            "value": "X110465770"
          }
        },
        "enterer": {
          "identifier": {
            "system": "https://gematik.de/fhir/sid/telematik-id",
            "value": "3-SMC-B-Testkarte-883110000116873"
          }
        },
        "supportingInformation": [
          {
            "reference": "urn:uuid:c81baa1d-0000-0000-0001-000000000000",
            "display": "https://fhir.kbv.de/StructureDefinition/KBV_PR_ERP_Bundle"
          },
          {
            "reference": "urn:uuid:c81baa1d-0000-0000-0003-000000000000",
            "display": "https://gematik.de/fhir/erp/StructureDefinition/GEM_ERP_PR_Bundle"
          },
          {
            "reference": "urn:uuid:c81baa1d-0000-0000-0004-000000000000",
            "display": "http://fhir.abda.de/eRezeptAbgabedaten/StructureDefinition/DAV-PKV-PR-ERP-AbgabedatenBundle"
          }
        ],
        "status": "billable",
        "code": {
          "coding": [
            {
              "code": "not-applicable",
              "system": "http://hl7.org/fhir/StructureDefinition/data-absent-reason"
            }
          ]
        },
        "enteredDate": "2023-04-21T07:12:29.316+00:00"
      }
    },
    {
      "fullUrl": "urn:uuid:c81baa1d-0000-0000-0001-000000000000",
      "resource": {
        "resourceType": "Bundle",
        "id": "1ad84b2a-b444-430c-9902-de9e07547cc8",
        "meta": {
          "profile": [
            "https://fhir.kbv.de/StructureDefinition/KBV_PR_ERP_Bundle|1.1.0"
          ]
        }
      }
    },
    {
      "fullUrl": "urn:uuid:c81baa1d-0000-0000-0004-000000000000",
      "resource": {
        "resourceType": "Bundle",
        "id": "21e93051-7bce-43b5-9687-26b5b73c7c71",
        "meta": {
          "profile": [
            "http://fhir.abda.de/eRezeptAbgabedaten/StructureDefinition/DAV-PKV-PR-ERP-AbgabedatenBundle|1.3"
          ],
          "lastUpdated": "2023-11-21T00:10:23.724+01:00"
        }
      }
    }
  ],
  "type": "collection",
  "timestamp": "2023-11-21T08:18:58.929+00:00"
}
