{
  "resourceType": "Parameters",
  "id": "erp-abrufen-07-request-taskCloseMultiple",
  "meta": {
    "profile": [
      "https://gematik.de/fhir/erp/StructureDefinition/GEM_ERP_PR_PAR_CloseOperation_Input|1.4"
    ]
  },
  "parameter": [
    {
      "name": "rxDispensation",
      "part": [
        {
          "name": "medicationDispense",
          "resource": {
            "resourceType": "MedicationDispense",
            "id": "a3ddc2b1-826d-4b81-87b2-558834e00f50",
            "meta": {
              "profile": [
                "https://gematik.de/fhir/erp/StructureDefinition/GEM_ERP_PR_MedicationDispense|1.4"
              ]
            },
            "identifier": [
              {
                "system": "https://gematik.de/fhir/erp/NamingSystem/GEM_ERP_NS_PrescriptionId",
                "value": "160.000.088.357.031.88"
              }
            ],
            "status": "completed",
            "medicationReference": {
              "reference": "Medication/c2b10a5e-3d71-434c-86e0-824af208a2bf"
            },
            "subject": {
              "identifier": {
                "system": "http://fhir.de/sid/gkv/kvid-10",
                "value": "K220635158"
              }
            },
            "performer": [
              {
                "actor": {
                  "identifier": {
                    "system": "https://gematik.de/fhir/sid/telematik-id",
                    "value": "3-15.2.1456789123.191"
                  }
                }
              }
            ],
            "whenHandedOver": "2023-11-30"
          }
        },
        {
          "name": "medication",
          "resource": {
            "resourceType": "Medication",
            "id": "c2b10a5e-3d71-434c-86e0-824af208a2bf",
            "meta": {
              "profile": [
                "https://gematik.de/fhir/erp/StructureDefinition/GEM_ERP_PR_Medication|1.4"
              ]
            },
            "extension": [
              {
                "url": "https://gematik.de/fhir/epa-medication/StructureDefinition/drug-category-extension",
                "valueCoding": {
                  "system": "https://gematik.de/fhir/epa-medication/CodeSystem/epa-drug-category-cs",
                  "code": "00"
                }
              },
              {
                "url": "https://gematik.de/fhir/epa-medication/StructureDefinition/medication-id-vaccine-extension",
                "valueBoolean": false
              },
              {
                "url": "http://fhir.de/StructureDefinition/normgroesse",
                "valueCode": "N1"
              }
            ],
            "code": {
              "coding": [
                {
                  "code": "14186244",
                  "system": "http://fhir.de/CodeSystem/ifa/pzn"
                }
              ],
              "text": "FLUSARION EH50/250UG/60 PC"
            },
            "form": {
              "coding": [
                {
                  "code": "IHP",
                  "system": "https://fhir.kbv.de/CodeSystem/KBV_CS_SFHIR_KBV_DARREICHUNGSFORM"
                }
              ]
            }
          }
        }
      ]
    },
    {
      "name": "rxDispensation",
      "part": [
        {
          "name": "medicationDispense",
          "resource": {
            "resourceType": "MedicationDispense",
            "id": "854b6c62-8c8a-4ad6-b145-d5bac5f9f010",
            "meta": {
              "profile": [
                "https://gematik.de/fhir/erp/StructureDefinition/GEM_ERP_PR_MedicationDispense|1.4"
              ]
            },
            "identifier": [
              {
                "system": "https://gematik.de/fhir/erp/NamingSystem/GEM_ERP_NS_PrescriptionId",
                "value": "160.000.088.357.031.88"
              }
            ],
            "status": "completed",
            "medicationReference": {
              "reference": "Medication/756b422f-4df0-4afe-9d54-da534a44109e"
            },
            "subject": {
              "identifier": {
                "system": "http://fhir.de/sid/gkv/kvid-10",
                "value": "K220635158"
              }
            },
            "performer": [
              {
                "actor": {
                  "identifier": {
                    "system": "https://gematik.de/fhir/sid/telematik-id",
                    "value": "3-15.2.1456789123.191"
                  }
                }
              }
            ],
            "whenHandedOver": "2023-11-30"
          }
        },
        {
          "name": "medication",
          "resource": {
            "resourceType": "Medication",
            "id": "756b422f-4df0-4afe-9d54-da534a44109e",
            "meta": {
              "profile": [
                "https://gematik.de/fhir/erp/StructureDefinition/GEM_ERP_PR_Medication|1.4"
              ]
            },
            "extension": [
              {
                "url": "https://gematik.de/fhir/epa-medication/StructureDefinition/drug-category-extension",
                "valueCoding": {
                  "system": "https://gematik.de/fhir/epa-medication/CodeSystem/epa-drug-category-cs",
                  "code": "00"
                }
              },
              {
                "url": "https://gematik.de/fhir/epa-medication/StructureDefinition/medication-id-vaccine-extension",
                "valueBoolean": false
              },
              {
                "url": "http://fhir.de/StructureDefinition/normgroesse",
                "valueCode": "N1"
              }
            ],
            "code": {
              "coding": [
                {
                  "code": "14186244",
                  "system": "http://fhir.de/CodeSystem/ifa/pzn"
                }
              ],
              "text": "FLUSARION EH50/250UG/60 PC"
            },
            "form": {
              "coding": [
                {
                  "code": "IHP",
                  "system": "https://fhir.kbv.de/CodeSystem/KBV_CS_SFHIR_KBV_DARREICHUNGSFORM"
                }
              ]
            }
          }
        }
      ]
    }
  ]
}
