{
  "resourceType": "Bundle",
  "id": "erp-diga-02-response-taskGetSingle",
  "meta": {
    "lastUpdated": "2025-10-01T15:29:00.434+00:00"
  },
  "type": "collection",
  "link": [
    {
      "relation": "self",
      "url": "https://erp.app.ti-dienste.de/Task/162.000.000.000.000.01"
    }
  ],
  "entry": [
    {
      "fullUrl": "https://erp.app.ti-dienste.de/Task/162.000.000.000.000.01",
      "resource": {
        "resourceType": "Task",
        "id": "162.000.000.000.000.01",
        "meta": {
          "profile": [
            "https://gematik.de/fhir/erp/StructureDefinition/GEM_ERP_PR_Task|1.5"
          ]
        },
        "intent": "order",
        "extension": [
          {
            "url": "https://gematik.de/fhir/erp/StructureDefinition/GEM_ERP_EX_PrescriptionType",
            "valueCoding": {
              "code": "162",
              "system": "https://gematik.de/fhir/erp/CodeSystem/GEM_ERP_CS_FlowType",
              "display": "Muster 16 (Digitale Gesundheitsanwendungen)"
            }
          },
          {
            "url": "https://gematik.de/fhir/erp/StructureDefinition/GEM_ERP_EX_AcceptDate",
            "valueDate": "2026-01-09"
          },
          {
            "url": "https://gematik.de/fhir/erp/StructureDefinition/GEM_ERP_EX_ExpiryDate",
            "valueDate": "2026-01-09"
          }
        ],
        "identifier": [
          {
            "use": "official",
            "system": "https://gematik.de/fhir/erp/NamingSystem/GEM_ERP_NS_PrescriptionId",
            "value": "162.000.000.000.000.01"
          },
          {
            "system": "https://gematik.de/fhir/erp/NamingSystem/GEM_ERP_NS_AccessCode",
            "use": "official",
            "value": "777bea0e13cc9c42ceec14aec3ddee2263325dc2c6c699db115f58fe423607ea"
          }
        ],
        "for": {
          "identifier": {
            "system": "http://fhir.de/sid/gkv/kvid-10",
            "value": "X123456789"
          }
        },
        "input": [
          {
            "type": {
              "coding": [
                {
                  "code": "2",
                  "system": "https://gematik.de/fhir/erp/CodeSystem/GEM_ERP_CS_DocumentType"
                }
              ]
            },
            "valueReference": {
              "reference": "3ebd56b4-5cdf-42bc-b26a-738d0b08068a"
            }
          }
        ],
        "status": "ready",
        "authoredOn": "2025-10-01T15:29:00+00:00",
        "lastModified": "2025-10-01T15:29:00.434+00:00",
        "performerType": [
          {
            "coding": [
              {
                "code": "urn:oid:1.2.276.0.76.4.59",
                "system": "https://gematik.de/fhir/erp/CodeSystem/GEM_ERP_CS_OrganizationType",
                "display": "Kostenträger"
              }
            ],
            "text": "Kostenträger"
          }
        ]
      }
    },
    {
      "fullUrl": "urn:uuid:3ebd56b4-5cdf-42bc-b26a-738d0b08068a",
      "resource": {
        "resourceType": "Bundle",
        "id": "3ebd56b4-5cdf-42bc-b26a-738d0b08068a",
        "meta": {
          "profile": [
            "https://fhir.kbv.de/StructureDefinition/KBV_PR_EVDGA_Bundle|1.2"
          ]
        },
        "type": "document",
        "identifier": {
          "system": "https://gematik.de/fhir/erp/NamingSystem/GEM_ERP_NS_PrescriptionId",
          "value": "162.000.000.000.000.01"
        },
        "timestamp": "2025-10-01T15:29:00.434+00:00",
        "entry": [
          {
            "fullUrl": "http://pvs.praxis-topp-gluecklich.local/fhir/Composition/55eb2cd5-27f0-46ef-87d1-1ffc30e85fd9",
            "resource": {
              "resourceType": "Composition",
              "id": "55eb2cd5-27f0-46ef-87d1-1ffc30e85fd9",
              "meta": {
                "profile": [
                  "https://fhir.kbv.de/StructureDefinition/KBV_PR_EVDGA_Composition|1.2"
                ]
              },
              "status": "final",
              "title": "elektronische Verordnung digitaler Gesundheitsanwendungen",
              "author": [
                {
                  "type": "Practitioner",
                  "reference": "Practitioner/1228772e-1c72-493b-8b5c-5ae54d25843d"
                },
                {
                  "type": "Device",
                  "identifier": {
                    "system": "https://fhir.kbv.de/NamingSystem/KBV_NS_FOR_Pruefnummer",
                    "value": "Y/450/2501/36/523"
                  }
                }
              ],
              "type": {
                "coding": [
                  {
                    "system": "https://fhir.kbv.de/CodeSystem/KBV_CS_SFHIR_KBV_FORMULAR_ART",
                    "code": "e16D"
                  }
                ]
              },
              "section": [
                {
                  "code": {
                    "coding": [
                      {
                        "system": "https://fhir.kbv.de/CodeSystem/KBV_CS_EVDGA_Section_Type",
                        "code": "Prescription"
                      }
                    ]
                  },
                  "entry": [
                    {
                      "reference": "DeviceRequest/a1533e28-4631-4afa-b5e6-f233fad87f53"
                    }
                  ]
                },
                {
                  "code": {
                    "coding": [
                      {
                        "system": "https://fhir.kbv.de/CodeSystem/KBV_CS_EVDGA_Section_Type",
                        "code": "HealthInsurance"
                      }
                    ]
                  },
                  "entry": [
                    {
                      "reference": "Coverage/2d3a92c2-c93c-47ad-8ab5-49b275be97ee"
                    }
                  ]
                }
              ],
              "extension": [
                {
                  "url": "https://fhir.kbv.de/StructureDefinition/KBV_EX_FOR_Legal_basis",
                  "valueCoding": {
                    "system": "https://fhir.kbv.de/CodeSystem/KBV_CS_SFHIR_KBV_STATUSKENNZEICHEN",
                    "code": "00"
                  }
                }
              ],
              "subject": {
                "reference": "Patient/40acd463-b25d-4ede-8b1f-2b0994f29aa5"
              },
              "date": "2025-10-01T15:29:00.434+00:00",
              "custodian": {
                "reference": "Organization/b87b9d90-c8db-4660-93eb-fed916caa2da"
              }
            }
          },
          {
            "fullUrl": "http://pvs.praxis-topp-gluecklich.local/fhir/DeviceRequest/a1533e28-4631-4afa-b5e6-f233fad87f53",
            "resource": {
              "resourceType": "DeviceRequest",
              "id": "a1533e28-4631-4afa-b5e6-f233fad87f53",
              "meta": {
                "profile": [
                  "https://fhir.kbv.de/StructureDefinition/KBV_PR_EVDGA_HealthAppRequest|1.2"
                ]
              },
              "status": "active",
              "intent": "order",
              "extension": [
                {
                  "url": "https://fhir.kbv.de/StructureDefinition/KBV_EX_FOR_SER",
                  "valueBoolean": false
                }
              ],
              "codeCodeableConcept": {
                "coding": [
                  {
                    "system": "http://fhir.de/CodeSystem/ifa/pzn",
                    "code": "19205615"
                  }
                ],
                "text": "Vantis KHK und Herzinfarkt 001"
              },
              "subject": {
                "reference": "Patient/40acd463-b25d-4ede-8b1f-2b0994f29aa5"
              },
              "authoredOn": "2025-10-01",
              "requester": {
                "reference": "Practitioner/1228772e-1c72-493b-8b5c-5ae54d25843d"
              },
              "insurance": [
                {
                  "reference": "Coverage/2d3a92c2-c93c-47ad-8ab5-49b275be97ee"
                }
              ]
            }
          },
          {
            "fullUrl": "http://pvs.praxis-topp-gluecklich.local/fhir/Patient/40acd463-b25d-4ede-8b1f-2b0994f29aa5",
            "resource": {
              "resourceType": "Patient",
              "id": "40acd463-b25d-4ede-8b1f-2b0994f29aa5",
              "meta": {
                "profile": [
                  "https://fhir.kbv.de/StructureDefinition/KBV_PR_FOR_Patient|1.2"
                ]
              },
              "name": [
                {
                  "use": "official",
                  "family": "Ludger Königsstein",
                  "_family": {
                    "extension": [
                      {
                        "url": "http://hl7.org/fhir/StructureDefinition/humanname-own-name",
                        "valueString": "Königsstein"
                      }
                    ]
                  },
                  "given": [
                    "Ludger"
                  ]
                }
              ],
              "identifier": [
                {
                  "type": {
                    "coding": [
                      {
                        "system": "http://fhir.de/CodeSystem/identifier-type-de-basis",
                        "code": "KVZ10"
                      }
                    ]
                  },
                  "system": "http://fhir.de/sid/gkv/kvid-10",
                  "value": "X234567890"
                }
              ],
              "address": [
                {
                  "type": "both",
                  "line": [
                    "Musterstr. 1"
                  ],
                  "_line": [
                    {
                      "extension": [
                        {
                          "url": "http://hl7.org/fhir/StructureDefinition/iso21090-ADXP-houseNumber",
                          "valueString": "1"
                        },
                        {
                          "url": "http://hl7.org/fhir/StructureDefinition/iso21090-ADXP-streetName",
                          "valueString": "Musterstr."
                        }
                      ]
                    }
                  ],
                  "city": "Berlin",
                  "postalCode": "10623"
                }
              ],
              "birthDate": "1935-06-22"
            }
          },
          {
            "fullUrl": "http://pvs.praxis-topp-gluecklich.local/fhir/Practitioner/1228772e-1c72-493b-8b5c-5ae54d25843d",
            "resource": {
              "resourceType": "Practitioner",
              "id": "1228772e-1c72-493b-8b5c-5ae54d25843d",
              "meta": {
                "profile": [
                  "https://fhir.kbv.de/StructureDefinition/KBV_PR_FOR_Practitioner|1.2"
                ]
              },
              "name": [
                {
                  "use": "official",
                  "family": "Meier",
                  "_family": {
                    "extension": [
                      {
                        "url": "http://hl7.org/fhir/StructureDefinition/humanname-own-name",
                        "valueString": "Meier"
                      }
                    ]
                  },
                  "given": [
                    "Jörgen"
                  ]
                }
              ],
              "qualification": [
                {
                  "code": {
                    "coding": [
                      {
                        "system": "https://fhir.kbv.de/CodeSystem/KBV_CS_FOR_Qualification_Type",
                        "code": "00"
                      }
                    ]
                  }
                },
                {
                  "code": {
                    "coding": [
                      {
                        "system": "https://fhir.kbv.de/CodeSystem/KBV_CS_FOR_Berufsbezeichnung",
                        "code": "Berufsbezeichnung"
                      }
                    ],
                    "text": "Hausarzt"
                  }
                }
              ],
              "identifier": [
                {
                  "type": {
                    "coding": [
                      {
                        "system": "http://terminology.hl7.org/CodeSystem/v2-0203",
                        "code": "LANR"
                      }
                    ]
                  },
                  "system": "https://fhir.kbv.de/NamingSystem/KBV_NS_Base_ANR",
                  "value": "838382210"
                }
              ]
            }
          },
          {
            "fullUrl": "http://pvs.praxis-topp-gluecklich.local/fhir/Organization/b87b9d90-c8db-4660-93eb-fed916caa2da",
            "resource": {
              "resourceType": "Organization",
              "id": "b87b9d90-c8db-4660-93eb-fed916caa2da",
              "meta": {
                "profile": [
                  "https://fhir.kbv.de/StructureDefinition/KBV_PR_FOR_Organization|1.2"
                ]
              },
              "telecom": [
                {
                  "system": "phone",
                  "value": "0301234567"
                }
              ],
              "address": [
                {
                  "type": "both",
                  "line": [
                    "Musterstr. 2"
                  ],
                  "_line": [
                    {
                      "extension": [
                        {
                          "url": "http://hl7.org/fhir/StructureDefinition/iso21090-ADXP-houseNumber",
                          "valueString": "2"
                        },
                        {
                          "url": "http://hl7.org/fhir/StructureDefinition/iso21090-ADXP-streetName",
                          "valueString": "Musterstr."
                        }
                      ]
                    }
                  ],
                  "city": "Berlin",
                  "postalCode": "10623"
                }
              ],
              "identifier": [
                {
                  "type": {
                    "coding": [
                      {
                        "system": "http://terminology.hl7.org/CodeSystem/v2-0203",
                        "code": "BSNR"
                      }
                    ]
                  },
                  "system": "https://fhir.kbv.de/NamingSystem/KBV_NS_Base_BSNR",
                  "value": "031234567"
                }
              ],
              "name": "Hausarztpraxis Dr. Topp-Glücklich"
            }
          },
          {
            "fullUrl": "http://pvs.praxis-topp-gluecklich.local/fhir/Coverage/2d3a92c2-c93c-47ad-8ab5-49b275be97ee",
            "resource": {
              "resourceType": "Coverage",
              "id": "2d3a92c2-c93c-47ad-8ab5-49b275be97ee",
              "meta": {
                "profile": [
                  "https://fhir.kbv.de/StructureDefinition/KBV_PR_FOR_Coverage|1.2"
                ]
              },
              "status": "active",
              "payor": [
                {
                  "identifier": {
                    "system": "http://fhir.de/sid/arge-ik/iknr",
                    "value": "104212059"
                  },
                  "display": "AOK Rheinland/Hamburg"
                }
              ],
              "extension": [
                {
                  "url": "http://fhir.de/StructureDefinition/gkv/besondere-personengruppe",
                  "valueCoding": {
                    "code": "00",
                    "system": "https://fhir.kbv.de/CodeSystem/KBV_CS_SFHIR_KBV_PERSONENGRUPPE"
                  }
                },
                {
                  "url": "http://fhir.de/StructureDefinition/gkv/dmp-kennzeichen",
                  "valueCoding": {
                    "code": "00",
                    "system": "https://fhir.kbv.de/CodeSystem/KBV_CS_SFHIR_KBV_DMP"
                  }
                },
                {
                  "url": "http://fhir.de/StructureDefinition/gkv/wop",
                  "valueCoding": {
                    "code": "03",
                    "system": "https://fhir.kbv.de/CodeSystem/KBV_CS_SFHIR_ITA_WOP"
                  }
                },
                {
                  "url": "http://fhir.de/StructureDefinition/gkv/versichertenart",
                  "valueCoding": {
                    "code": "1",
                    "system": "https://fhir.kbv.de/CodeSystem/KBV_CS_SFHIR_KBV_VERSICHERTENSTATUS"
                  }
                }
              ],
              "type": {
                "coding": [
                  {
                    "code": "GKV",
                    "system": "http://fhir.de/CodeSystem/versicherungsart-de-basis"
                  }
                ]
              },
              "beneficiary": {
                "reference": "Patient/9774f67f-a238-4daf-b4e6-Pat-GKV"
              }
            }
          }
        ]
      }
    }
  ]
}
