<Bundle xmlns="http://hl7.org/fhir"><id value="7d0078a1-bb3e-4d13-b318-2f2164820115"/><meta><lastUpdated value="2023-04-18T08:45:54.408+02:00"/><profile value="http://fhir.abda.de/eRezeptAbgabedaten/StructureDefinition/DAV-PKV-PR-ERP-AbgabedatenBundle|1.1"/></meta><identifier><system value="https://gematik.de/fhir/erp/NamingSystem/GEM_ERP_NS_PrescriptionId"/><value value="200.000.001.943.784.68"/></identifier><type value="document"/><timestamp value="2023-04-18T08:45:54.408+02:00"/><entry><fullUrl value="urn:uuid:f0d412fa-3a6d-4576-a795-666413fc610c"/><resource><Composition xmlns="http://hl7.org/fhir"><id value="f0d412fa-3a6d-4576-a795-666413fc610c"/><meta><profile value="http://fhir.abda.de/eRezeptAbgabedaten/StructureDefinition/DAV-PKV-PR-ERP-AbgabedatenComposition|1.1"/></meta><status value="final"/><type><coding><system value="http://fhir.abda.de/eRezeptAbgabedaten/CodeSystem/DAV-CS-ERP-CompositionTypes"/><code value="ERezeptAbgabedaten"/></coding></type><date value="2023-04-18T08:45:54+02:00"/><author><reference value="urn:uuid:c95d7f37-87a5-48af-a01b-28c75dd754fa"/></author><title value="ERezeptAbgabedaten"/><section><title value="Apotheke"/><entry><reference value="urn:uuid:c95d7f37-87a5-48af-a01b-28c75dd754fa"/></entry></section><section><title value="Abgabeinformationen"/><entry><reference value="urn:uuid:c7a54843-7ce1-4215-8871-d03b92ccf480"/></entry></section></Composition></resource></entry><entry><fullUrl value="urn:uuid:c95d7f37-87a5-48af-a01b-28c75dd754fa"/><resource><Organization xmlns="http://hl7.org/fhir"><id value="c95d7f37-87a5-48af-a01b-28c75dd754fa"/><meta><profile value="http://fhir.abda.de/eRezeptAbgabedaten/StructureDefinition/DAV-PKV-PR-ERP-Apotheke|1.1"/></meta><identifier><system value="http://fhir.de/sid/arge-ik/iknr"/><value value="596231810"/></identifier><name value="Apotheke Raynor Schein"/><address><type value="physical"/><line value="Imbach 0"><extension url="http://hl7.org/fhir/StructureDefinition/iso21090-ADXP-houseNumber"><valueString value="0"/></extension><extension url="http://hl7.org/fhir/StructureDefinition/iso21090-ADXP-streetName"><valueString value="Imbach"/></extension></line><city value="Zoestadt"/><postalCode value="28802"/><country value="D"/></address></Organization></resource></entry><entry><fullUrl value="urn:uuid:7966ed51-3d31-4f0a-bf1d-77a050bdd6b5"/><resource><Invoice xmlns="http://hl7.org/fhir"><id value="7966ed51-3d31-4f0a-bf1d-77a050bdd6b5"/><meta><profile value="http://fhir.abda.de/eRezeptAbgabedaten/StructureDefinition/DAV-PKV-PR-ERP-Abrechnungszeilen|1.1"/></meta><status value="issued"/><type><coding><system value="http://fhir.abda.de/eRezeptAbgabedaten/CodeSystem/DAV-CS-ERP-InvoiceTyp"/><code value="Abrechnungszeilen"/></coding></type><lineItem><sequence value="1"/><chargeItemCodeableConcept><coding><system value="http://fhir.de/CodeSystem/ifa/pzn"/><code value="74238139"/></coding></chargeItemCodeableConcept><priceComponent><extension url="http://fhir.abda.de/eRezeptAbgabedaten/StructureDefinition/DAV-EX-ERP-KostenVersicherter"><extension url="Kategorie"><valueCodeableConcept><coding><system value="http://fhir.abda.de/eRezeptAbgabedaten/CodeSystem/DAV-PKV-CS-ERP-KostenVersicherterKategorie"/><code value="0"/></coding></valueCodeableConcept></extension><extension url="Kostenbetrag"><valueMoney><value value="68.18"/><currency value="EUR"/></valueMoney></extension></extension><extension url="http://fhir.abda.de/eRezeptAbgabedaten/StructureDefinition/DAV-EX-ERP-MwStSatz"><valueDecimal value="19.74"/></extension><type value="informational"/><factor value="1"/><amount><value value="113.63"/><currency value="EUR"/></amount></priceComponent></lineItem><totalGross><extension url="http://fhir.abda.de/eRezeptAbgabedaten/StructureDefinition/DAV-EX-ERP-Gesamtzuzahlung"><valueMoney><value value="68.18"/><currency value="EUR"/></valueMoney></extension><value value="113.63"/><currency value="EUR"/></totalGross></Invoice></resource></entry><entry><fullUrl value="urn:uuid:c7a54843-7ce1-4215-8871-d03b92ccf480"/><resource><MedicationDispense xmlns="http://hl7.org/fhir"><id value="c7a54843-7ce1-4215-8871-d03b92ccf480"/><meta><profile value="http://fhir.abda.de/eRezeptAbgabedaten/StructureDefinition/DAV-PKV-PR-ERP-Abgabeinformationen|1.1"/></meta><extension url="http://fhir.abda.de/eRezeptAbgabedaten/StructureDefinition/DAV-PKV-EX-ERP-AbrechnungsTyp"><valueCodeableConcept><coding><system value="http://fhir.abda.de/eRezeptAbgabedaten/CodeSystem/DAV-PKV-CS-ERP-AbrechnungsTyp"/><code value="1"/></coding></valueCodeableConcept></extension><extension url="http://fhir.abda.de/eRezeptAbgabedaten/StructureDefinition/DAV-EX-ERP-Abrechnungszeilen"><valueReference><reference value="urn:uuid:7966ed51-3d31-4f0a-bf1d-77a050bdd6b5"/></valueReference></extension><status value="completed"/><medicationCodeableConcept><coding><system value="http://terminology.hl7.org/CodeSystem/data-absent-reason"/><code value="not-applicable"/></coding></medicationCodeableConcept><performer><actor><reference value="urn:uuid:c95d7f37-87a5-48af-a01b-28c75dd754fa"/></actor></performer><authorizingPrescription><identifier><system value="https://gematik.de/fhir/erp/NamingSystem/GEM_ERP_NS_PrescriptionId"/><value value="200.000.001.943.784.68"/></identifier></authorizingPrescription><type><coding><system value="http://fhir.abda.de/eRezeptAbgabedaten/CodeSystem/DAV-CS-ERP-MedicationDispenseTyp"/><code value="Abgabeinformationen"/></coding></type><whenHandedOver value="2023-04-18"/></MedicationDispense></resource></entry></Bundle>