{
  "resourceType": "Parameters",
  "id": "b6ebb6f4-9be3-4803-8bc5-83f6049b6124",
  "meta": {
    "profile": [ "https://gematik.de/fhir/epa-medication/StructureDefinition/epa-op-provide-dispensation-erp-input-parameters|1.0.3" ]
  },
  "parameter": [ {
    "name": "rxDispensation",
    "part": [ {
      "name": "prescriptionId",
      "valueIdentifier": {
        "system": "https://gematik.de/fhir/erp/NamingSystem/GEM_ERP_NS_PrescriptionId",
        "value": "160.100.000.000.013.03"
      }
    }, {
      "name": "authoredOn",
      "valueDate": "1970-01-01"
    }, {
      "name": "medicationDispense",
      "resource": {
        "resourceType": "MedicationDispense",
        "id": "4a95d952-4345-447e-8938-416f62a90650",
        "meta": {
          "profile": [ "https://gematik.de/fhir/epa-medication/StructureDefinition/epa-medication-dispense|1.0.3" ]
        },
        "identifier": [ {
          "system": "https://gematik.de/fhir/epa-medication/sid/rx-originator-process-identifier",
          "value": "22871e5b-7404-43b9-ac6f-a1addd635931_160.100.000.000.013.03"
        } ],
        "status": "completed",
        "category": {
          "coding": [ {
            "system": "https://gematik.de/fhir/epa-medication/CodeSystem/EPAMedicationDispenseCategoryCS",
            "code": "prescription",
            "display": "prescription dispense"
          } ]
        },
        "medicationReference": {
          "reference": "Medication/47c5201b-ffc9-4883-ab47-324f341a20ac"
        },
        "subject": {
          "identifier": {
            "system": "http://fhir.de/sid/gkv/kvid-10",
            "value": "K220645122"
          }
        },
        "performer": [ {
          "actor": {
            "reference": "Organization/d8625456-76d7-4752-99f2-4d468affd6be"
          }
        } ],
        "whenHandedOver": "2024-11-27"
      }
    }, {
      "name": "medication",
      "resource": {
        "resourceType": "Medication",
        "id": "47c5201b-ffc9-4883-ab47-324f341a20ac",
        "meta": {
          "profile": [ "https://gematik.de/fhir/epa-medication/StructureDefinition/epa-medication|1.0.3" ]
        },
        "extension": [ {
          "url": "https://gematik.de/fhir/epa-medication/StructureDefinition/drug-category-extension",
          "valueCoding": {
            "system": "https://gematik.de/fhir/epa-medication/CodeSystem/epa-drug-category-cs",
            "code": "00"
          }
        }, {
          "url": "https://gematik.de/fhir/epa-medication/StructureDefinition/medication-id-vaccine-extension",
          "valueBoolean": false
        }, {
          "url": "http://fhir.de/StructureDefinition/normgroesse",
          "valueCode": "N1"
        } ],
        "code": {
          "coding": [ {
            "system": "http://fhir.de/CodeSystem/ifa/pzn",
            "code": "16938263"
          } ],
          "text": "GONAL-f 150 I.E./0,25 ml Inj.Lsg."
        },
        "form": {
          "coding": [ {
            "system": "https://fhir.kbv.de/CodeSystem/KBV_CS_SFHIR_KBV_DARREICHUNGSFORM",
            "code": "PEN"
          } ]
        },
        "amount": {
          "numerator": {
            "extension": [ {
              "url": "https://gematik.de/fhir/epa-medication/StructureDefinition/medication-packaging-size-extension",
              "valueString": "1"
            } ],
            "unit": "St"
          },
          "denominator": {
            "value": 1
          }
        },
        "batch": {
          "lotNumber": "A9876543210-78",
          "expirationDate": "2025-12-31"
        }
      }
    }, {
      "name": "organization",
      "resource": {
        "resourceType": "Organization",
        "id": "d8625456-76d7-4752-99f2-4d468affd6be",
        "meta": {
          "profile": [ "https://gematik.de/fhir/directory/StructureDefinition/OrganizationDirectory|0.11.12" ],
          "tag": [ {
            "system": "https://gematik.de/fhir/directory/CodeSystem/Origin",
            "code": "ldap"
          } ]
        },
        "identifier": [ {
          "system": "https://gematik.de/fhir/sid/telematik-id",
          "value": "3-07.2.1234560000.10.789"
        } ],
        "type": [ {
          "coding": [ {
            "system": "https://gematik.de/fhir/directory/CodeSystem/OrganizationProfessionOID",
            "code": "1.2.276.0.76.4.58"
          } ]
        } ],
        "name": "Joaquin DeFlores"
      }
    } ]
  } ]
}