<ChargeItem xmlns="http://hl7.org/fhir">
   <id value="200.000.000.042.804.87"/>
   <meta>
      <profile value="https://gematik.de/fhir/erpchrg/StructureDefinition/GEM_ERPCHRG_PR_ChargeItem|1.0"/>
   </meta>
   <contained>
      <Binary xmlns="http://hl7.org/fhir">
         <id value="0e4a884e-6abe-4ee1-acff-772444b06fe7"/>
         <meta>
            <profile value="https://gematik.de/fhir/erp/StructureDefinition/GEM_ERP_PR_Binary|1.2"/>
         </meta>
         <contentType value="application/pkcs7-mime"/>
         <data value=""/>
      </Binary>
   </contained>
   <identifier>
      <system value="https://gematik.de/fhir/erp/NamingSystem/GEM_ERP_NS_PrescriptionId"/>
      <value value="200.000.000.042.804.87"/>
   </identifier>
   <status value="billable"/>
   <code>
      <coding>
         <system value="http://terminology.hl7.org/CodeSystem/data-absent-reason"/>
         <code value="not-applicable"/>
      </coding>
   </code>
   <subject>
      <identifier>
         <system value="http://fhir.de/sid/pkv/kvid-10"/>
         <value value="X110465770"/>
         <assigner>
            <display value="KOA Thüringen"/>
         </assigner>
      </identifier>
   </subject>
   <enterer>
      <identifier>
         <system value="https://gematik.de/fhir/sid/telematik-id"/>
         <value value="3-SMC-B-Testkarte-883110000116873"/>
      </identifier>
   </enterer>
   <enteredDate value="2023-11-27T08:41:02+01:00"/>
   <supportingInformation>
      <reference value="Bundle/200.000.000.042.804.87"/>
      <display value="https://fhir.kbv.de/StructureDefinition/KBV_PR_ERP_Bundle"/>
   </supportingInformation>
   <supportingInformation>
      <reference value="#0e4a884e-6abe-4ee1-acff-772444b06fe7"/>
      <display value="Binary"/>
   </supportingInformation>
</ChargeItem>