<Bundle xmlns="http://hl7.org/fhir"><id value="eaeddcfa-7af4-4f87-a316-807cff6f1378"/><meta><profile value="https://fhir.kbv.de/StructureDefinition/KBV_PR_ERP_Bundle|1.1.0"/></meta><identifier><system value="https://gematik.de/fhir/erp/NamingSystem/GEM_ERP_NS_PrescriptionId"/><value value="169.000.011.663.677.38"/></identifier><type value="document"/><timestamp value="2025-03-28T09:06:51.754+01:00"/><entry><fullUrl value="https://pvs.gematik.de/fhir/Composition/7575534a-2fcf-476f-a238-479788ecfb1a"/><resource><Composition xmlns="http://hl7.org/fhir"><id value="7575534a-2fcf-476f-a238-479788ecfb1a"/><meta><profile value="https://fhir.kbv.de/StructureDefinition/KBV_PR_ERP_Composition|1.1.0"/></meta><extension url="https://fhir.kbv.de/StructureDefinition/KBV_EX_FOR_Legal_basis"><valueCoding><system value="https://fhir.kbv.de/CodeSystem/KBV_CS_SFHIR_KBV_STATUSKENNZEICHEN"/><code value="00"/></valueCoding></extension><status value="final"/><type><coding><system value="https://fhir.kbv.de/CodeSystem/KBV_CS_SFHIR_KBV_FORMULAR_ART"/><code value="e16A"/></coding></type><subject><reference value="Patient/fcbed8bf-1815-4d15-9fae-792f175334c2"/></subject><date value="2025-03-28T09:06:51+01:00"/><author><type value="Device"/><identifier><system value="https://fhir.kbv.de/NamingSystem/KBV_NS_FOR_Pruefnummer"/><value value="GEMATIK/410/2109/36/123"/></identifier></author><author><reference value="Practitioner/c070b195-a9b5-4e1c-9f1c-d0447a79f502"/><type value="Practitioner"/></author><title value="elektronische Arzneimittelverordnung"/><custodian><reference value="Organization/95091668-75a9-40cf-9d1e-321db5a194eb"/></custodian><section><code><coding><system value="https://fhir.kbv.de/CodeSystem/KBV_CS_ERP_Section_Type"/><code value="Coverage"/></coding></code><entry><reference value="Coverage/df0fbb71-eb82-447b-a31a-30e193168c1c"/></entry></section><section><code><coding><system value="https://fhir.kbv.de/CodeSystem/KBV_CS_ERP_Section_Type"/><code value="Prescription"/></coding></code><entry><reference value="MedicationRequest/c7fe1051-5c5a-4a78-a2ff-f9db6593d258"/></entry></section></Composition></resource></entry><entry><fullUrl value="https://pvs.gematik.de/fhir/Coverage/df0fbb71-eb82-447b-a31a-30e193168c1c"/><resource><Coverage xmlns="http://hl7.org/fhir"><id value="df0fbb71-eb82-447b-a31a-30e193168c1c"/><meta><profile value="https://fhir.kbv.de/StructureDefinition/KBV_PR_FOR_Coverage|1.1.0"/></meta><extension url="http://fhir.de/StructureDefinition/gkv/besondere-personengruppe"><valueCoding><system value="https://fhir.kbv.de/CodeSystem/KBV_CS_SFHIR_KBV_PERSONENGRUPPE"/><code value="00"/></valueCoding></extension><extension url="http://fhir.de/StructureDefinition/gkv/dmp-kennzeichen"><valueCoding><system value="https://fhir.kbv.de/CodeSystem/KBV_CS_SFHIR_KBV_DMP"/><code value="00"/></valueCoding></extension><extension url="http://fhir.de/StructureDefinition/gkv/wop"><valueCoding><system value="https://fhir.kbv.de/CodeSystem/KBV_CS_SFHIR_ITA_WOP"/><code value="61"/></valueCoding></extension><extension url="http://fhir.de/StructureDefinition/gkv/versichertenart"><valueCoding><system value="https://fhir.kbv.de/CodeSystem/KBV_CS_SFHIR_KBV_VERSICHERTENSTATUS"/><code value="1"/></valueCoding></extension><status value="active"/><type><coding><system value="http://fhir.de/CodeSystem/versicherungsart-de-basis"/><code value="GKV"/></coding></type><beneficiary><reference value="Patient/f576b876-70ba-4a79-88b0-1c6e2e3e0247"/></beneficiary><payor><identifier><system value="http://fhir.de/sid/arge-ik/iknr"/><value value="103525567"/></identifier><display value="BKK der SIEMAG"/></payor></Coverage></resource></entry><entry><fullUrl value="https://pvs.gematik.de/fhir/Patient/fcbed8bf-1815-4d15-9fae-792f175334c2"/><resource><Patient xmlns="http://hl7.org/fhir"><id value="fcbed8bf-1815-4d15-9fae-792f175334c2"/><meta><profile value="https://fhir.kbv.de/StructureDefinition/KBV_PR_FOR_Patient|1.1.0"/></meta><identifier><type><coding><system value="http://fhir.de/CodeSystem/identifier-type-de-basis"/><code value="GKV"/></coding></type><system value="http://fhir.de/sid/gkv/kvid-10"/><value value="X110670787"/></identifier><name><use value="official"/><family value="Bäcker"><extension url="http://hl7.org/fhir/StructureDefinition/humanname-own-name"><valueString value="Bäcker"/></extension></family><given value="Hanna"/></name><birthDate value="2000-07-03"/><address><type value="both"/><line value="Elsterstr. 235"><extension url="http://hl7.org/fhir/StructureDefinition/iso21090-ADXP-houseNumber"><valueString value="235"/></extension><extension url="http://hl7.org/fhir/StructureDefinition/iso21090-ADXP-streetName"><valueString value="Elsterstr."/></extension></line><city value="West Linneaheim"/><postalCode value="48680"/><country value="D"/></address></Patient></resource></entry><entry><fullUrl value="https://pvs.gematik.de/fhir/Practitioner/c070b195-a9b5-4e1c-9f1c-d0447a79f502"/><resource><Practitioner xmlns="http://hl7.org/fhir"><id value="c070b195-a9b5-4e1c-9f1c-d0447a79f502"/><meta><profile value="https://fhir.kbv.de/StructureDefinition/KBV_PR_FOR_Practitioner|1.1.0"/></meta><identifier><type><coding><system value="http://terminology.hl7.org/CodeSystem/v2-0203"/><code value="LANR"/></coding></type><system value="https://fhir.kbv.de/NamingSystem/KBV_NS_Base_ANR"/><value value="273788098"/></identifier><name><use value="official"/><family value="Schraßer"><extension url="http://hl7.org/fhir/StructureDefinition/humanname-own-name"><valueString value="Schraßer"/></extension></family><given value="Dr."/><prefix value="Dr."><extension url="http://hl7.org/fhir/StructureDefinition/iso21090-EN-qualifier"><valueCode value="AC"/></extension></prefix></name><qualification><code><coding><system value="https://fhir.kbv.de/CodeSystem/KBV_CS_FOR_Qualification_Type"/><code value="00"/></coding></code></qualification><qualification><code><coding><system value="https://fhir.kbv.de/CodeSystem/KBV_CS_FOR_Berufsbezeichnung"/><code value="Berufsbezeichnung"/></coding><text value="Super-Facharzt für alles Mögliche"/></code></qualification></Practitioner></resource></entry><entry><fullUrl value="https://pvs.gematik.de/fhir/Organization/95091668-75a9-40cf-9d1e-321db5a194eb"/><resource><Organization xmlns="http://hl7.org/fhir"><id value="95091668-75a9-40cf-9d1e-321db5a194eb"/><meta><profile value="https://fhir.kbv.de/StructureDefinition/KBV_PR_FOR_Organization|1.1.0"/></meta><identifier><type><coding><system value="http://terminology.hl7.org/CodeSystem/v2-0203"/><code value="BSNR"/></coding></type><system value="https://fhir.kbv.de/NamingSystem/KBV_NS_Base_BSNR"/><value value="497383765"/></identifier><name value="Arztpraxis Schraßer"/><telecom><system value="phone"/><value value="+49-824-3154605"/></telecom><telecom><system value="email"/><value value="simon.steigauf@dombrowski.info"/></telecom><address><type value="both"/><line value="Lurchenweg 51b"><extension url="http://hl7.org/fhir/StructureDefinition/iso21090-ADXP-houseNumber"><valueString value="51b"/></extension><extension url="http://hl7.org/fhir/StructureDefinition/iso21090-ADXP-streetName"><valueString value="Lurchenweg"/></extension></line><city value="Neu Yannis"/><postalCode value="82555"/><country value="D"/></address></Organization></resource></entry><entry><fullUrl value="https://pvs.gematik.de/fhir/Medication/062e166b-e6bb-4c56-b5f3-f107b12cc7fd"/><resource><Medication xmlns="http://hl7.org/fhir"><id value="062e166b-e6bb-4c56-b5f3-f107b12cc7fd"/><meta><profile value="https://fhir.kbv.de/StructureDefinition/KBV_PR_ERP_Medication_PZN|1.1.0"/></meta><extension url="https://fhir.kbv.de/StructureDefinition/KBV_EX_Base_Medication_Type"><valueCodeableConcept><coding><system value="http://snomed.info/sct"/><version value="http://snomed.info/sct/900000000000207008/version/20220331"/><code value="763158003"/><display value="Medicinal product (product)"/></coding></valueCodeableConcept></extension><extension url="https://fhir.kbv.de/StructureDefinition/KBV_EX_ERP_Medication_Category"><valueCoding><system value="https://fhir.kbv.de/CodeSystem/KBV_CS_ERP_Medication_Category"/><code value="00"/></valueCoding></extension><extension url="https://fhir.kbv.de/StructureDefinition/KBV_EX_ERP_Medication_Vaccine"><valueBoolean value="false"/></extension><extension url="http://fhir.de/StructureDefinition/normgroesse"><valueCode value="NB"/></extension><code><coding><system value="http://fhir.de/CodeSystem/ifa/pzn"/><code value="77938366"/></coding><text value="Finalgon® Ampullen 50 mg"/></code><form><coding><system value="https://fhir.kbv.de/CodeSystem/KBV_CS_SFHIR_KBV_DARREICHUNGSFORM"/><code value="TAB"/></coding></form><amount><numerator><extension url="https://fhir.kbv.de/StructureDefinition/KBV_EX_ERP_Medication_PackagingSize"><valueString value="1"/></extension><unit value="Stk"/></numerator><denominator><value value="1"/></denominator></amount></Medication></resource></entry><entry><fullUrl value="https://pvs.gematik.de/fhir/MedicationRequest/c7fe1051-5c5a-4a78-a2ff-f9db6593d258"/><resource><MedicationRequest xmlns="http://hl7.org/fhir"><id value="c7fe1051-5c5a-4a78-a2ff-f9db6593d258"/><meta><profile value="https://fhir.kbv.de/StructureDefinition/KBV_PR_ERP_Prescription|1.1.0"/></meta><extension url="https://fhir.kbv.de/StructureDefinition/KBV_EX_ERP_BVG"><valueBoolean value="false"/></extension><extension url="https://fhir.kbv.de/StructureDefinition/KBV_EX_ERP_EmergencyServicesFee"><valueBoolean value="false"/></extension><extension url="https://fhir.kbv.de/StructureDefinition/KBV_EX_ERP_Multiple_Prescription"><extension url="Kennzeichen"><valueBoolean value="false"/></extension></extension><extension url="https://fhir.kbv.de/StructureDefinition/KBV_EX_FOR_StatusCoPayment"><valueCoding><system value="https://fhir.kbv.de/CodeSystem/KBV_CS_FOR_StatusCoPayment"/><code value="2"/></valueCoding></extension><status value="active"/><intent value="order"/><medicationReference><reference value="Medication/062e166b-e6bb-4c56-b5f3-f107b12cc7fd"/></medicationReference><subject><reference value="Patient/fcbed8bf-1815-4d15-9fae-792f175334c2"/></subject><authoredOn value="2025-03-28"/><requester><reference value="Practitioner/c070b195-a9b5-4e1c-9f1c-d0447a79f502"/></requester><insurance><reference value="Coverage/df0fbb71-eb82-447b-a31a-30e193168c1c"/></insurance><dosageInstruction><extension url="https://fhir.kbv.de/StructureDefinition/KBV_EX_ERP_DosageFlag"><valueBoolean value="true"/></extension><text value="0-2-0-2-2-3-3"/></dosageInstruction><dispenseRequest><quantity><value value="1"/><system value="http://unitsofmeasure.org"/><code value="{Package}"/></quantity></dispenseRequest><substitution><allowedBoolean value="false"/></substitution></MedicationRequest></resource></entry></Bundle>