<Bundle xmlns="http://hl7.org/fhir">
   <id value="a93df9b1-0000-0000-0003-000000000000"/>
   <meta>
      <profile value="https://gematik.de/fhir/erp/StructureDefinition/GEM_ERP_PR_Bundle|1.4"/>
   </meta>
   <identifier>
      <system value="https://gematik.de/fhir/erp/NamingSystem/GEM_ERP_NS_PrescriptionId"/>
      <value value="169.000.011.663.677.38"/>
   </identifier>
   <type value="document"/>
   <timestamp value="2025-03-28T08:06:52.481+00:00"/>
   <link>
      <relation value="self"/>
      <url value="https://erp-ref.zentral.erp.splitdns.ti-dienste.de/Task/169.000.011.663.677.38/$close/"/>
   </link>
   <entry>
      <fullUrl value="urn:uuid:cffd589d-292d-4616-9213-4c59ce831b3e"/>
      <resource>
         <Composition xmlns="http://hl7.org/fhir">
            <id value="cffd589d-292d-4616-9213-4c59ce831b3e"/>
            <meta>
               <profile value="https://gematik.de/fhir/erp/StructureDefinition/GEM_ERP_PR_Composition|1.4"/>
            </meta>
            <extension url="https://gematik.de/fhir/erp/StructureDefinition/GEM_ERP_EX_Beneficiary">
               <valueIdentifier>
                  <system value="https://gematik.de/fhir/sid/telematik-id"/>
                  <value value="3-SMC-B-Testkarte--883110000163973"/>
               </valueIdentifier>
            </extension>
            <status value="final"/>
            <type>
               <coding>
                  <system value="https://gematik.de/fhir/erp/CodeSystem/GEM_ERP_CS_DocumentType"/>
                  <code value="3"/>
                  <display value="Receipt"/>
               </coding>
            </type>
            <date value="2025-03-28T08:06:52.475+00:00"/>
            <author>
               <reference value="urn:uuid:ec11a58c-60ad-4db9-bce8-f31f76da1aa1"/>
            </author>
            <title value="Quittung"/>
            <event>
               <period>
                  <start value="2025-03-28T08:06:52.227+00:00"/>
                  <end value="2025-03-28T08:06:52.475+00:00"/>
               </period>
            </event>
            <section>
               <entry>
                  <reference value="urn:uuid:be5124c5-baa8-47f4-9405-28aaf4eb0de3"/>
               </entry>
            </section>
         </Composition>
      </resource>
   </entry>
   <entry>
      <fullUrl value="urn:uuid:ec11a58c-60ad-4db9-bce8-f31f76da1aa1"/>
      <resource>
         <Device xmlns="http://hl7.org/fhir">
            <id value="1"/>
            <meta>
               <profile value="https://gematik.de/fhir/erp/StructureDefinition/GEM_ERP_PR_Device|1.4"/>
            </meta>
            <status value="active"/>
            <serialNumber value="1.17.0"/>
            <deviceName>
               <name value="E-Rezept Fachdienst"/>
               <type value="user-friendly-name"/>
            </deviceName>
            <version>
               <value value="1.17.0"/>
            </version>
            <contact>
               <system value="email"/>
               <value value="betrieb@gematik.de"/>
            </contact>
         </Device>
      </resource>
   </entry>
   <entry>
      <fullUrl value="urn:uuid:be5124c5-baa8-47f4-9405-28aaf4eb0de3"/>
      <resource>
         <Binary xmlns="http://hl7.org/fhir">
            <id value="be5124c5-baa8-47f4-9405-28aaf4eb0de3"/>
            <meta>
               <versionId value="1"/>
               <profile value="https://gematik.de/fhir/erp/StructureDefinition/GEM_ERP_PR_Digest|1.4"/>
            </meta>
            <contentType value="application/octet-stream"/>
            <data value="bf/8VkITHsFGNqS0aO3SQxgtbzC31hE5gmPx/V4H/ag="/>
         </Binary>
      </resource>
   </entry>
   <signature>
      <type>
         <system value="urn:iso-astm:E1762-95:2013"/>
         <code value="1.2.840.10065.1.12.1.1"/>
      </type>
      <when value="2025-03-28T08:06:52.482+00:00"/>
      <who>
         <reference value="urn:uuid:ec11a58c-60ad-4db9-bce8-f31f76da1aa1"/>
      </who>
      <sigFormat value="application/pkcs7-mime"/>
      <data value=""/>
   </signature>
</Bundle>