<Bundle xmlns="http://hl7.org/fhir"><id value="a8e27512-4fbf-4291-98ae-2ffa9cc1e54c"/><meta><lastUpdated value="2023-04-21T09:11:09.203+02:00"/><profile value="https://fhir.kbv.de/StructureDefinition/KBV_PR_ERP_Bundle|1.1.0"/></meta><identifier><system value="https://gematik.de/fhir/erp/NamingSystem/GEM_ERP_NS_PrescriptionId"/><value value="160.000.040.327.797.13"/></identifier><type value="document"/><timestamp value="2023-04-21T09:11:09.203+02:00"/><entry><fullUrl value="https://pvs.gematik.de/fhir/Composition/d7c2286b-2f75-45c8-8b16-24bdd5c2905e"/><resource><Composition xmlns="http://hl7.org/fhir"><id value="d7c2286b-2f75-45c8-8b16-24bdd5c2905e"/><meta><profile value="https://fhir.kbv.de/StructureDefinition/KBV_PR_ERP_Composition|1.1.0"/></meta><extension url="https://fhir.kbv.de/StructureDefinition/KBV_EX_FOR_Legal_basis"><valueCoding><system value="https://fhir.kbv.de/CodeSystem/KBV_CS_SFHIR_KBV_STATUSKENNZEICHEN"/><code value="00"/></valueCoding></extension><status value="final"/><type><coding><system value="https://fhir.kbv.de/CodeSystem/KBV_CS_SFHIR_KBV_FORMULAR_ART"/><code value="e16A"/></coding></type><subject><reference value="Patient/51c2720e-1f10-4758-8337-44c7eff14bac"/></subject><date value="2023-04-21T09:11:09+02:00"/><author><reference value="Practitioner/cdfe5ff3-ded5-4451-8690-7622f62ba494"/><type value="Practitioner"/></author><author><type value="Device"/><identifier><system value="https://fhir.kbv.de/NamingSystem/KBV_NS_FOR_Pruefnummer"/><value value="GEMATIK/410/2109/36/123"/></identifier></author><title value="elektronische Arzneimittelverordnung"/><custodian><reference value="Organization/85a52d5f-0176-4c5f-88f9-f5d11a5e761e"/></custodian><section><code><coding><system value="https://fhir.kbv.de/CodeSystem/KBV_CS_ERP_Section_Type"/><code value="Coverage"/></coding></code><entry><reference value="Coverage/fd68ffff-94b5-4d36-9b1e-bab48e2054e2"/></entry></section><section><code><coding><system value="https://fhir.kbv.de/CodeSystem/KBV_CS_ERP_Section_Type"/><code value="Prescription"/></coding></code><entry><reference value="MedicationRequest/29abdb52-a1c5-4521-9e45-3dff6f2ffd76"/></entry></section></Composition></resource></entry><entry><fullUrl value="https://pvs.gematik.de/fhir/MedicationRequest/29abdb52-a1c5-4521-9e45-3dff6f2ffd76"/><resource><MedicationRequest xmlns="http://hl7.org/fhir"><id value="29abdb52-a1c5-4521-9e45-3dff6f2ffd76"/><meta><profile value="https://fhir.kbv.de/StructureDefinition/KBV_PR_ERP_Prescription|1.1.0"/></meta><extension url="https://fhir.kbv.de/StructureDefinition/KBV_EX_ERP_BVG"><valueBoolean value="false"/></extension><extension url="https://fhir.kbv.de/StructureDefinition/KBV_EX_ERP_EmergencyServicesFee"><valueBoolean value="false"/></extension><extension url="https://fhir.kbv.de/StructureDefinition/KBV_EX_ERP_Multiple_Prescription"><extension url="Kennzeichen"><valueBoolean value="false"/></extension></extension><extension url="https://fhir.kbv.de/StructureDefinition/KBV_EX_FOR_StatusCoPayment"><valueCoding><system value="https://fhir.kbv.de/CodeSystem/KBV_CS_FOR_StatusCoPayment"/><code value="0"/></valueCoding></extension><status value="active"/><intent value="order"/><medicationReference><reference value="Medication/12906ab6-5172-4a7c-b444-8045b3cd7d31"/></medicationReference><subject><reference value="Patient/51c2720e-1f10-4758-8337-44c7eff14bac"/></subject><authoredOn value="2023-04-21"/><requester><reference value="Practitioner/cdfe5ff3-ded5-4451-8690-7622f62ba494"/></requester><insurance><reference value="Coverage/fd68ffff-94b5-4d36-9b1e-bab48e2054e2"/></insurance><dosageInstruction><extension url="https://fhir.kbv.de/StructureDefinition/KBV_EX_ERP_DosageFlag"><valueBoolean value="true"/></extension><text value="1-0-0-0"/></dosageInstruction><dispenseRequest><quantity><value value="1"/><system value="http://unitsofmeasure.org"/><code value="{Package}"/></quantity></dispenseRequest><substitution><allowedBoolean value="true"/></substitution></MedicationRequest></resource></entry><entry><fullUrl value="https://pvs.gematik.de/fhir/Medication/12906ab6-5172-4a7c-b444-8045b3cd7d31"/><resource><Medication xmlns="http://hl7.org/fhir"><id value="12906ab6-5172-4a7c-b444-8045b3cd7d31"/><meta><profile value="https://fhir.kbv.de/StructureDefinition/KBV_PR_ERP_Medication_PZN|1.1.0"/></meta><extension url="https://fhir.kbv.de/StructureDefinition/KBV_EX_Base_Medication_Type"><valueCodeableConcept><coding><system value="http://snomed.info/sct"/><version value="http://snomed.info/sct/900000000000207008/version/20220331"/><code value="763158003"/><display value="Medicinal product (product)"/></coding></valueCodeableConcept></extension><extension url="https://fhir.kbv.de/StructureDefinition/KBV_EX_ERP_Medication_Category"><valueCoding><system value="https://fhir.kbv.de/CodeSystem/KBV_CS_ERP_Medication_Category"/><code value="00"/></valueCoding></extension><extension url="https://fhir.kbv.de/StructureDefinition/KBV_EX_ERP_Medication_Vaccine"><valueBoolean value="false"/></extension><extension url="http://fhir.de/StructureDefinition/normgroesse"><valueCode value="NB"/></extension><code><coding><system value="http://fhir.de/CodeSystem/ifa/pzn"/><code value="12345678"/></coding><text value="Schmerzmittel"/></code><form><coding><system value="https://fhir.kbv.de/CodeSystem/KBV_CS_SFHIR_KBV_DARREICHUNGSFORM"/><code value="TAB"/></coding></form><amount><numerator><extension url="https://fhir.kbv.de/StructureDefinition/KBV_EX_ERP_Medication_PackagingSize"><valueString value="1"/></extension><unit value="Stk"/></numerator><denominator><value value="1"/></denominator></amount></Medication></resource></entry><entry><fullUrl value="https://pvs.gematik.de/fhir/Patient/51c2720e-1f10-4758-8337-44c7eff14bac"/><resource><Patient xmlns="http://hl7.org/fhir"><id value="51c2720e-1f10-4758-8337-44c7eff14bac"/><meta><profile value="https://fhir.kbv.de/StructureDefinition/KBV_PR_FOR_Patient|1.1.0"/></meta><identifier><type><coding><system value="http://fhir.de/CodeSystem/identifier-type-de-basis"/><code value="PKV"/></coding></type><system value="http://fhir.de/sid/pkv/kvid-10"/><value value="X110406067"/></identifier><name><use value="official"/><family value="Straßer"><extension url="http://hl7.org/fhir/StructureDefinition/humanname-own-name"><valueString value="Straßer"/></extension></family><given value="Fridolin"/></name><birthDate value="1989-03-18"/><address><type value="both"/><line value="Stöckenstr. 316"><extension url="http://hl7.org/fhir/StructureDefinition/iso21090-ADXP-houseNumber"><valueString value="316"/></extension><extension url="http://hl7.org/fhir/StructureDefinition/iso21090-ADXP-streetName"><valueString value="Stöckenstr."/></extension></line><city value="Alt Finleygrün"/><postalCode value="19311"/><country value="D"/></address></Patient></resource></entry><entry><fullUrl value="https://pvs.gematik.de/fhir/Organization/85a52d5f-0176-4c5f-88f9-f5d11a5e761e"/><resource><Organization xmlns="http://hl7.org/fhir"><id value="85a52d5f-0176-4c5f-88f9-f5d11a5e761e"/><meta><profile value="https://fhir.kbv.de/StructureDefinition/KBV_PR_FOR_Organization|1.1.0"/></meta><identifier><type><coding><system value="http://terminology.hl7.org/CodeSystem/v2-0203"/><code value="BSNR"/></coding></type><system value="https://fhir.kbv.de/NamingSystem/KBV_NS_Base_BSNR"/><value value="737636613"/></identifier><name value="Arztpraxis Claudius"/><telecom><system value="phone"/><value value="+49-1482-57073334"/></telecom><telecom><system value="email"/><value value="marta.lieder@lack.info"/></telecom><address><type value="both"/><line value="Yitzhak-Rabin-Str. 93c"><extension url="http://hl7.org/fhir/StructureDefinition/iso21090-ADXP-houseNumber"><valueString value="93c"/></extension><extension url="http://hl7.org/fhir/StructureDefinition/iso21090-ADXP-streetName"><valueString value="Yitzhak-Rabin-Str."/></extension></line><city value="Nord Patriciascheid"/><postalCode value="44436"/><country value="D"/></address></Organization></resource></entry><entry><fullUrl value="https://pvs.gematik.de/fhir/Coverage/fd68ffff-94b5-4d36-9b1e-bab48e2054e2"/><resource><Coverage xmlns="http://hl7.org/fhir"><id value="fd68ffff-94b5-4d36-9b1e-bab48e2054e2"/><meta><profile value="https://fhir.kbv.de/StructureDefinition/KBV_PR_FOR_Coverage|1.1.0"/></meta><extension url="http://fhir.de/StructureDefinition/gkv/besondere-personengruppe"><valueCoding><system value="https://fhir.kbv.de/CodeSystem/KBV_CS_SFHIR_KBV_PERSONENGRUPPE"/><code value="00"/></valueCoding></extension><extension url="http://fhir.de/StructureDefinition/gkv/dmp-kennzeichen"><valueCoding><system value="https://fhir.kbv.de/CodeSystem/KBV_CS_SFHIR_KBV_DMP"/><code value="00"/></valueCoding></extension><extension url="http://fhir.de/StructureDefinition/gkv/wop"><valueCoding><system value="https://fhir.kbv.de/CodeSystem/KBV_CS_SFHIR_ITA_WOP"/><code value="17"/></valueCoding></extension><extension url="http://fhir.de/StructureDefinition/gkv/versichertenart"><valueCoding><system value="https://fhir.kbv.de/CodeSystem/KBV_CS_SFHIR_KBV_VERSICHERTENSTATUS"/><code value="1"/></valueCoding></extension><status value="active"/><type><coding><system value="http://fhir.de/CodeSystem/versicherungsart-de-basis"/><code value="BEI"/></coding></type><beneficiary><reference value="Patient/0e9ed48a-3bfa-4628-b8b8-112685d1eaf2"/></beneficiary><payor><identifier><system value="http://fhir.de/sid/arge-ik/iknr"/><value value="024876640"/></identifier><display value="KVED Krankenversicherungs-AG Rheinhessen"/></payor></Coverage></resource></entry><entry><fullUrl value="https://pvs.gematik.de/fhir/Practitioner/cdfe5ff3-ded5-4451-8690-7622f62ba494"/><resource><Practitioner xmlns="http://hl7.org/fhir"><id value="cdfe5ff3-ded5-4451-8690-7622f62ba494"/><meta><profile value="https://fhir.kbv.de/StructureDefinition/KBV_PR_FOR_Practitioner|1.1.0"/></meta><identifier><type><coding><system value="http://terminology.hl7.org/CodeSystem/v2-0203"/><code value="LANR"/></coding></type><system value="https://fhir.kbv.de/NamingSystem/KBV_NS_Base_ANR"/><value value="751002542"/></identifier><name><use value="official"/><family value="Claudius"><extension url="http://hl7.org/fhir/StructureDefinition/humanname-own-name"><valueString value="Claudius"/></extension></family><given value="Bernd"/><prefix value="Dr."><extension url="http://hl7.org/fhir/StructureDefinition/iso21090-EN-qualifier"><valueCode value="AC"/></extension></prefix></name><qualification><code><coding><system value="https://fhir.kbv.de/CodeSystem/KBV_CS_FOR_Qualification_Type"/><code value="00"/></coding></code></qualification><qualification><code><coding><system value="https://fhir.kbv.de/CodeSystem/KBV_CS_FOR_Berufsbezeichnung"/><code value="Berufsbezeichnung"/></coding><text value="Super-Facharzt für alles Mögliche"/></code></qualification></Practitioner></resource></entry></Bundle>