<Bundle xmlns="http://hl7.org/fhir"><id value="8f23c149-e528-4317-b763-b24a4ab43e15"/><meta><lastUpdated value="2024-02-08T19:12:40.114+01:00"/><profile value="https://fhir.kbv.de/StructureDefinition/KBV_PR_ERP_Bundle|1.1.0"/></meta><identifier><system value="https://gematik.de/fhir/erp/NamingSystem/GEM_ERP_NS_PrescriptionId"/><value value="160.000.226.119.804.57"/></identifier><type value="document"/><timestamp value="2024-02-08T19:12:40.114+01:00"/><entry><fullUrl value="https://pvs.gematik.de/fhir/Composition/6b600cc9-284d-4dc3-b239-fbabaf57aea4"/><resource><Composition xmlns="http://hl7.org/fhir"><id value="6b600cc9-284d-4dc3-b239-fbabaf57aea4"/><meta><profile value="https://fhir.kbv.de/StructureDefinition/KBV_PR_ERP_Composition|1.1.0"/></meta><extension url="https://fhir.kbv.de/StructureDefinition/KBV_EX_FOR_Legal_basis"><valueCoding><system value="https://fhir.kbv.de/CodeSystem/KBV_CS_SFHIR_KBV_STATUSKENNZEICHEN"/><code value="00"/></valueCoding></extension><status value="final"/><type><coding><system value="https://fhir.kbv.de/CodeSystem/KBV_CS_SFHIR_KBV_FORMULAR_ART"/><code value="e16A"/></coding></type><subject><reference value="Patient/aa8de05b-e93b-43d5-a3c6-f5bce82379a6"/></subject><date value="2024-02-08T19:12:40+01:00"/><author><reference value="Practitioner/ed559035-8ea1-4bea-9c5d-3794fd978693"/><type value="Practitioner"/></author><author><type value="Device"/><identifier><system value="https://fhir.kbv.de/NamingSystem/KBV_NS_FOR_Pruefnummer"/><value value="GEMATIK/410/2109/36/123"/></identifier></author><title value="elektronische Arzneimittelverordnung"/><custodian><reference value="Organization/632456b5-bd4a-4a99-9b70-89c207f5ecb0"/></custodian><section><code><coding><system value="https://fhir.kbv.de/CodeSystem/KBV_CS_ERP_Section_Type"/><code value="Coverage"/></coding></code><entry><reference value="Coverage/356601ef-c3ba-44a2-acdd-1bf9f2318193"/></entry></section><section><code><coding><system value="https://fhir.kbv.de/CodeSystem/KBV_CS_ERP_Section_Type"/><code value="Prescription"/></coding></code><entry><reference value="MedicationRequest/eb7a1844-3d72-48e9-9b8d-c6b40ab4ebc7"/></entry></section></Composition></resource></entry><entry><fullUrl value="https://pvs.gematik.de/fhir/Medication/bc8cf36b-bd3e-4755-baf6-9ee63919f51a"/><resource><Medication xmlns="http://hl7.org/fhir"><id value="bc8cf36b-bd3e-4755-baf6-9ee63919f51a"/><meta><profile value="https://fhir.kbv.de/StructureDefinition/KBV_PR_ERP_Medication_PZN|1.1.0"/></meta><extension url="https://fhir.kbv.de/StructureDefinition/KBV_EX_Base_Medication_Type"><valueCodeableConcept><coding><system value="http://snomed.info/sct"/><version value="http://snomed.info/sct/900000000000207008/version/20220331"/><code value="763158003"/><display value="Medicinal product (product)"/></coding></valueCodeableConcept></extension><extension url="https://fhir.kbv.de/StructureDefinition/KBV_EX_ERP_Medication_Category"><valueCoding><system value="https://fhir.kbv.de/CodeSystem/KBV_CS_ERP_Medication_Category"/><code value="00"/></valueCoding></extension><extension url="https://fhir.kbv.de/StructureDefinition/KBV_EX_ERP_Medication_Vaccine"><valueBoolean value="false"/></extension><extension url="http://fhir.de/StructureDefinition/normgroesse"><valueCode value="NB"/></extension><code><coding><system value="http://fhir.de/CodeSystem/ifa/pzn"/><code value="12345678"/></coding><text value="Schmerzmittel"/></code><form><coding><system value="https://fhir.kbv.de/CodeSystem/KBV_CS_SFHIR_KBV_DARREICHUNGSFORM"/><code value="TAB"/></coding></form><amount><numerator><extension url="https://fhir.kbv.de/StructureDefinition/KBV_EX_ERP_Medication_PackagingSize"><valueString value="1"/></extension><unit value="Stk"/></numerator><denominator><value value="1"/></denominator></amount></Medication></resource></entry><entry><fullUrl value="https://pvs.gematik.de/fhir/Patient/aa8de05b-e93b-43d5-a3c6-f5bce82379a6"/><resource><Patient xmlns="http://hl7.org/fhir"><id value="aa8de05b-e93b-43d5-a3c6-f5bce82379a6"/><meta><profile value="https://fhir.kbv.de/StructureDefinition/KBV_PR_FOR_Patient|1.1.0"/></meta><identifier><type><coding><system value="http://fhir.de/CodeSystem/identifier-type-de-basis"/><code value="PKV"/></coding></type><system value="http://fhir.de/sid/pkv/kvid-10"/><value value="X110406067"/></identifier><name><use value="official"/><family value="Straßer"><extension url="http://hl7.org/fhir/StructureDefinition/humanname-own-name"><valueString value="Straßer"/></extension></family><given value="Fridolin"/></name><birthDate value="1974-09-01"/><address><type value="both"/><line value="Ilmstr. 12"><extension url="http://hl7.org/fhir/StructureDefinition/iso21090-ADXP-houseNumber"><valueString value="12"/></extension><extension url="http://hl7.org/fhir/StructureDefinition/iso21090-ADXP-streetName"><valueString value="Ilmstr."/></extension></line><city value="Sorayastadt"/><postalCode value="02264"/><country value="D"/></address></Patient></resource></entry><entry><fullUrl value="https://pvs.gematik.de/fhir/Organization/632456b5-bd4a-4a99-9b70-89c207f5ecb0"/><resource><Organization xmlns="http://hl7.org/fhir"><id value="632456b5-bd4a-4a99-9b70-89c207f5ecb0"/><meta><profile value="https://fhir.kbv.de/StructureDefinition/KBV_PR_FOR_Organization|1.1.0"/></meta><identifier><type><coding><system value="http://terminology.hl7.org/CodeSystem/v2-0203"/><code value="BSNR"/></coding></type><system value="https://fhir.kbv.de/NamingSystem/KBV_NS_Base_BSNR"/><value value="387705491"/></identifier><name value="Arztpraxis Ulmenwald"/><telecom><system value="phone"/><value value="(07229) 1819107"/></telecom><telecom><system value="email"/><value value="robert.bogenrieder@normann.name"/></telecom><address><type value="both"/><line value="Hermann-König-Str. 9"><extension url="http://hl7.org/fhir/StructureDefinition/iso21090-ADXP-houseNumber"><valueString value="9"/></extension><extension url="http://hl7.org/fhir/StructureDefinition/iso21090-ADXP-streetName"><valueString value="Hermann-König-Str."/></extension></line><city value="Eleadorf"/><postalCode value="83780"/><country value="D"/></address></Organization></resource></entry><entry><fullUrl value="https://pvs.gematik.de/fhir/Coverage/356601ef-c3ba-44a2-acdd-1bf9f2318193"/><resource><Coverage xmlns="http://hl7.org/fhir"><id value="356601ef-c3ba-44a2-acdd-1bf9f2318193"/><meta><profile value="https://fhir.kbv.de/StructureDefinition/KBV_PR_FOR_Coverage|1.1.0"/></meta><extension url="http://fhir.de/StructureDefinition/gkv/besondere-personengruppe"><valueCoding><system value="https://fhir.kbv.de/CodeSystem/KBV_CS_SFHIR_KBV_PERSONENGRUPPE"/><code value="00"/></valueCoding></extension><extension url="http://fhir.de/StructureDefinition/gkv/dmp-kennzeichen"><valueCoding><system value="https://fhir.kbv.de/CodeSystem/KBV_CS_SFHIR_KBV_DMP"/><code value="00"/></valueCoding></extension><extension url="http://fhir.de/StructureDefinition/gkv/wop"><valueCoding><system value="https://fhir.kbv.de/CodeSystem/KBV_CS_SFHIR_ITA_WOP"/><code value="02"/></valueCoding></extension><extension url="http://fhir.de/StructureDefinition/gkv/versichertenart"><valueCoding><system value="https://fhir.kbv.de/CodeSystem/KBV_CS_SFHIR_KBV_VERSICHERTENSTATUS"/><code value="1"/></valueCoding></extension><status value="active"/><type><coding><system value="http://fhir.de/CodeSystem/versicherungsart-de-basis"/><code value="BEI"/></coding></type><beneficiary><reference value="Patient/481861c3-f604-4fd7-bf7c-ffd9deb58c95"/></beneficiary><payor><identifier><system value="http://fhir.de/sid/arge-ik/iknr"/><value value="449880231"/></identifier><display value="KOA Nordbaden"/></payor></Coverage></resource></entry><entry><fullUrl value="https://pvs.gematik.de/fhir/Practitioner/ed559035-8ea1-4bea-9c5d-3794fd978693"/><resource><Practitioner xmlns="http://hl7.org/fhir"><id value="ed559035-8ea1-4bea-9c5d-3794fd978693"/><meta><profile value="https://fhir.kbv.de/StructureDefinition/KBV_PR_FOR_Practitioner|1.1.0"/></meta><identifier><type><coding><system value="http://terminology.hl7.org/CodeSystem/v2-0203"/><code value="LANR"/></coding></type><system value="https://fhir.kbv.de/NamingSystem/KBV_NS_Base_ANR"/><value value="362157489"/></identifier><name><use value="official"/><family value="Ulmenwald"><extension url="http://hl7.org/fhir/StructureDefinition/humanname-own-name"><valueString value="Ulmenwald"/></extension></family><given value="Adelheid"/><prefix value="Dr."><extension url="http://hl7.org/fhir/StructureDefinition/iso21090-EN-qualifier"><valueCode value="AC"/></extension></prefix></name><qualification><code><coding><system value="https://fhir.kbv.de/CodeSystem/KBV_CS_FOR_Qualification_Type"/><code value="00"/></coding></code></qualification><qualification><code><coding><system value="https://fhir.kbv.de/CodeSystem/KBV_CS_FOR_Berufsbezeichnung"/><code value="Berufsbezeichnung"/></coding><text value="Super-Facharzt für alles Mögliche"/></code></qualification></Practitioner></resource></entry><entry><fullUrl value="https://pvs.gematik.de/fhir/MedicationRequest/eb7a1844-3d72-48e9-9b8d-c6b40ab4ebc7"/><resource><MedicationRequest xmlns="http://hl7.org/fhir"><id value="eb7a1844-3d72-48e9-9b8d-c6b40ab4ebc7"/><meta><profile value="https://fhir.kbv.de/StructureDefinition/KBV_PR_ERP_Prescription|1.1.0"/></meta><extension url="https://fhir.kbv.de/StructureDefinition/KBV_EX_ERP_BVG"><valueBoolean value="false"/></extension><extension url="https://fhir.kbv.de/StructureDefinition/KBV_EX_ERP_EmergencyServicesFee"><valueBoolean value="false"/></extension><extension url="https://fhir.kbv.de/StructureDefinition/KBV_EX_ERP_Multiple_Prescription"><extension url="Kennzeichen"><valueBoolean value="false"/></extension></extension><extension url="https://fhir.kbv.de/StructureDefinition/KBV_EX_FOR_StatusCoPayment"><valueCoding><system value="https://fhir.kbv.de/CodeSystem/KBV_CS_FOR_StatusCoPayment"/><code value="1"/></valueCoding></extension><status value="active"/><intent value="order"/><medicationReference><reference value="Medication/bc8cf36b-bd3e-4755-baf6-9ee63919f51a"/></medicationReference><subject><reference value="Patient/aa8de05b-e93b-43d5-a3c6-f5bce82379a6"/></subject><authoredOn value="2024-02-08"/><requester><reference value="Practitioner/ed559035-8ea1-4bea-9c5d-3794fd978693"/></requester><insurance><reference value="Coverage/356601ef-c3ba-44a2-acdd-1bf9f2318193"/></insurance><dispenseRequest><quantity><value value="1"/><system value="http://unitsofmeasure.org"/><code value="{Package}"/></quantity></dispenseRequest><substitution><allowedBoolean value="false"/></substitution></MedicationRequest></resource></entry></Bundle>