{
  "resourceType": "Bundle",
  "id": "eaf7a038-bfa0-4bc9-91d8-008eef4a2538",
  "type": "collection",
  "timestamp": "2025-03-28T08:05:40.749+00:00",
  "link": [ {
    "relation": "self",
    "url": "https://erp-ref.zentral.erp.splitdns.ti-dienste.de/Task/209.000.000.120.120.74"
  } ],
  "entry": [ {
    "fullUrl": "https://erp-ref.zentral.erp.splitdns.ti-dienste.de/Task/209.000.000.120.120.74",
    "resource": {
      "resourceType": "Task",
      "id": "209.000.000.120.120.74",
      "meta": {
        "profile": [ "https://gematik.de/fhir/erp/StructureDefinition/GEM_ERP_PR_Task|1.4" ]
      },
      "extension": [ {
        "url": "https://gematik.de/fhir/erp/StructureDefinition/GEM_ERP_EX_PrescriptionType",
        "valueCoding": {
          "system": "https://gematik.de/fhir/erp/CodeSystem/GEM_ERP_CS_FlowType",
          "code": "209",
          "display": "PKV (Direkte Zuweisung)"
        }
      }, {
        "url": "https://gematik.de/fhir/erp/StructureDefinition/GEM_ERP_EX_ExpiryDate",
        "valueDate": "2026-03-28"
      }, {
        "url": "https://gematik.de/fhir/erp/StructureDefinition/GEM_ERP_EX_AcceptDate",
        "valueDate": "2026-03-28"
      } ],
      "identifier": [ {
        "use": "official",
        "system": "https://gematik.de/fhir/erp/NamingSystem/GEM_ERP_NS_PrescriptionId",
        "value": "209.000.000.120.120.74"
      } ],
      "status": "ready",
      "intent": "order",
      "for": {
        "identifier": {
          "system": "http://fhir.de/sid/gkv/kvid-10",
          "value": "X110645443"
        }
      },
      "authoredOn": "2025-03-28T08:05:40.111+00:00",
      "lastModified": "2025-03-28T08:05:40.361+00:00",
      "performerType": [ {
        "coding": [ {
          "system": "https://gematik.de/fhir/erp/CodeSystem/GEM_ERP_CS_OrganizationType",
          "code": "urn:oid:1.2.276.0.76.4.54",
          "display": "Öffentliche Apotheke"
        } ],
        "text": "Öffentliche Apotheke"
      } ],
      "input": [ {
        "type": {
          "coding": [ {
            "system": "https://gematik.de/fhir/erp/CodeSystem/GEM_ERP_CS_DocumentType",
            "code": "2"
          } ]
        },
        "valueReference": {
          "reference": "d138d501-0000-0000-0002-000000000000"
        }
      } ]
    }
  }, {
    "fullUrl": "urn:uuid:d138d501-0000-0000-0002-000000000000",
    "resource": {
      "resourceType": "Bundle",
      "id": "d138d501-0000-0000-0002-000000000000",
      "meta": {
        "profile": [ "https://fhir.kbv.de/StructureDefinition/KBV_PR_ERP_Bundle|1.1.0" ]
      },
      "identifier": {
        "system": "https://gematik.de/fhir/erp/NamingSystem/GEM_ERP_NS_PrescriptionId",
        "value": "209.000.000.120.120.74"
      },
      "type": "document",
      "timestamp": "2025-03-28T09:05:40.205+01:00",
      "entry": [ {
        "fullUrl": "https://pvs.gematik.de/fhir/Composition/37dc0bc5-7757-4002-8c43-2f7df9e6b9ac",
        "resource": {
          "resourceType": "Composition",
          "id": "37dc0bc5-7757-4002-8c43-2f7df9e6b9ac",
          "meta": {
            "profile": [ "https://fhir.kbv.de/StructureDefinition/KBV_PR_ERP_Composition|1.1.0" ]
          },
          "extension": [ {
            "url": "https://fhir.kbv.de/StructureDefinition/KBV_EX_FOR_Legal_basis",
            "valueCoding": {
              "system": "https://fhir.kbv.de/CodeSystem/KBV_CS_SFHIR_KBV_STATUSKENNZEICHEN",
              "code": "00"
            }
          } ],
          "status": "final",
          "type": {
            "coding": [ {
              "system": "https://fhir.kbv.de/CodeSystem/KBV_CS_SFHIR_KBV_FORMULAR_ART",
              "code": "e16A"
            } ]
          },
          "subject": {
            "reference": "Patient/00c57370-dea4-4ca6-b598-4b88538d2c33"
          },
          "date": "2025-03-28T09:05:40+01:00",
          "author": [ {
            "type": "Device",
            "identifier": {
              "system": "https://fhir.kbv.de/NamingSystem/KBV_NS_FOR_Pruefnummer",
              "value": "GEMATIK/410/2109/36/123"
            }
          }, {
            "reference": "Practitioner/65d40b59-79cf-4013-ab3b-1ecff02fbefd",
            "type": "Practitioner"
          } ],
          "title": "elektronische Arzneimittelverordnung",
          "custodian": {
            "reference": "Organization/b69bb62a-761d-438f-8cfd-dc3847958d9e"
          },
          "section": [ {
            "code": {
              "coding": [ {
                "system": "https://fhir.kbv.de/CodeSystem/KBV_CS_ERP_Section_Type",
                "code": "Coverage"
              } ]
            },
            "entry": [ {
              "reference": "Coverage/5c12e1de-b9b8-4780-962b-3a0c12fba348"
            } ]
          }, {
            "code": {
              "coding": [ {
                "system": "https://fhir.kbv.de/CodeSystem/KBV_CS_ERP_Section_Type",
                "code": "Prescription"
              } ]
            },
            "entry": [ {
              "reference": "MedicationRequest/1ed7a995-bdc1-4902-8348-efaea0bc8d35"
            } ]
          } ]
        }
      }, {
        "fullUrl": "https://pvs.gematik.de/fhir/Coverage/5c12e1de-b9b8-4780-962b-3a0c12fba348",
        "resource": {
          "resourceType": "Coverage",
          "id": "5c12e1de-b9b8-4780-962b-3a0c12fba348",
          "meta": {
            "profile": [ "https://fhir.kbv.de/StructureDefinition/KBV_PR_FOR_Coverage|1.1.0" ]
          },
          "extension": [ {
            "url": "http://fhir.de/StructureDefinition/gkv/besondere-personengruppe",
            "valueCoding": {
              "system": "https://fhir.kbv.de/CodeSystem/KBV_CS_SFHIR_KBV_PERSONENGRUPPE",
              "code": "00"
            }
          }, {
            "url": "http://fhir.de/StructureDefinition/gkv/dmp-kennzeichen",
            "valueCoding": {
              "system": "https://fhir.kbv.de/CodeSystem/KBV_CS_SFHIR_KBV_DMP",
              "code": "00"
            }
          }, {
            "url": "http://fhir.de/StructureDefinition/gkv/wop",
            "valueCoding": {
              "system": "https://fhir.kbv.de/CodeSystem/KBV_CS_SFHIR_ITA_WOP",
              "code": "93"
            }
          }, {
            "url": "http://fhir.de/StructureDefinition/gkv/versichertenart",
            "valueCoding": {
              "system": "https://fhir.kbv.de/CodeSystem/KBV_CS_SFHIR_KBV_VERSICHERTENSTATUS",
              "code": "1"
            }
          } ],
          "status": "active",
          "type": {
            "coding": [ {
              "system": "http://fhir.de/CodeSystem/versicherungsart-de-basis",
              "code": "PKV"
            } ]
          },
          "beneficiary": {
            "reference": "Patient/47c7aedc-a04e-4d96-b7f4-27e672339609"
          },
          "payor": [ {
            "identifier": {
              "system": "http://fhir.de/sid/arge-ik/iknr",
              "value": "168141347"
            },
            "display": "Bayerische Beamtenkrankenkasse"
          } ]
        }
      }, {
        "fullUrl": "https://pvs.gematik.de/fhir/Patient/00c57370-dea4-4ca6-b598-4b88538d2c33",
        "resource": {
          "resourceType": "Patient",
          "id": "00c57370-dea4-4ca6-b598-4b88538d2c33",
          "meta": {
            "profile": [ "https://fhir.kbv.de/StructureDefinition/KBV_PR_FOR_Patient|1.1.0" ]
          },
          "identifier": [ {
            "type": {
              "coding": [ {
                "system": "http://fhir.de/CodeSystem/identifier-type-de-basis",
                "code": "PKV"
              } ]
            },
            "system": "http://fhir.de/sid/pkv/kvid-10",
            "value": "X110645443"
          } ],
          "name": [ {
            "use": "official",
            "family": "Angermänn",
            "_family": {
              "extension": [ {
                "url": "http://hl7.org/fhir/StructureDefinition/humanname-own-name",
                "valueString": "Angermänn"
              } ]
            },
            "given": [ "Günther" ]
          } ],
          "birthDate": "1971-08-31",
          "address": [ {
            "type": "both",
            "line": [ "Behringstr. 8" ],
            "_line": [ {
              "extension": [ {
                "url": "http://hl7.org/fhir/StructureDefinition/iso21090-ADXP-houseNumber",
                "valueString": "8"
              }, {
                "url": "http://hl7.org/fhir/StructureDefinition/iso21090-ADXP-streetName",
                "valueString": "Behringstr."
              } ]
            } ],
            "city": "Alt Jennygrün",
            "postalCode": "88943",
            "country": "D"
          } ]
        }
      }, {
        "fullUrl": "https://pvs.gematik.de/fhir/Practitioner/65d40b59-79cf-4013-ab3b-1ecff02fbefd",
        "resource": {
          "resourceType": "Practitioner",
          "id": "65d40b59-79cf-4013-ab3b-1ecff02fbefd",
          "meta": {
            "profile": [ "https://fhir.kbv.de/StructureDefinition/KBV_PR_FOR_Practitioner|1.1.0" ]
          },
          "identifier": [ {
            "type": {
              "coding": [ {
                "system": "http://terminology.hl7.org/CodeSystem/v2-0203",
                "code": "LANR"
              } ]
            },
            "system": "https://fhir.kbv.de/NamingSystem/KBV_NS_Base_ANR",
            "value": "566423187"
          } ],
          "name": [ {
            "use": "official",
            "family": "Schraßer",
            "_family": {
              "extension": [ {
                "url": "http://hl7.org/fhir/StructureDefinition/humanname-own-name",
                "valueString": "Schraßer"
              } ]
            },
            "given": [ "Dr." ],
            "prefix": [ "Dr." ],
            "_prefix": [ {
              "extension": [ {
                "url": "http://hl7.org/fhir/StructureDefinition/iso21090-EN-qualifier",
                "valueCode": "AC"
              } ]
            } ]
          } ],
          "qualification": [ {
            "code": {
              "coding": [ {
                "system": "https://fhir.kbv.de/CodeSystem/KBV_CS_FOR_Qualification_Type",
                "code": "00"
              } ]
            }
          }, {
            "code": {
              "coding": [ {
                "system": "https://fhir.kbv.de/CodeSystem/KBV_CS_FOR_Berufsbezeichnung",
                "code": "Berufsbezeichnung"
              } ],
              "text": "Super-Facharzt für alles Mögliche"
            }
          } ]
        }
      }, {
        "fullUrl": "https://pvs.gematik.de/fhir/Organization/b69bb62a-761d-438f-8cfd-dc3847958d9e",
        "resource": {
          "resourceType": "Organization",
          "id": "b69bb62a-761d-438f-8cfd-dc3847958d9e",
          "meta": {
            "profile": [ "https://fhir.kbv.de/StructureDefinition/KBV_PR_FOR_Organization|1.1.0" ]
          },
          "identifier": [ {
            "type": {
              "coding": [ {
                "system": "http://terminology.hl7.org/CodeSystem/v2-0203",
                "code": "BSNR"
              } ]
            },
            "system": "https://fhir.kbv.de/NamingSystem/KBV_NS_Base_BSNR",
            "value": "466474010"
          } ],
          "name": "Arztpraxis Schraßer",
          "telecom": [ {
            "system": "phone",
            "value": "(0951) 907485409"
          }, {
            "system": "email",
            "value": "leonora.kölotzei@leipold.de"
          } ],
          "address": [ {
            "type": "both",
            "line": [ "An der Lehmkuhle 36c" ],
            "_line": [ {
              "extension": [ {
                "url": "http://hl7.org/fhir/StructureDefinition/iso21090-ADXP-houseNumber",
                "valueString": "36c"
              }, {
                "url": "http://hl7.org/fhir/StructureDefinition/iso21090-ADXP-streetName",
                "valueString": "An der Lehmkuhle"
              } ]
            } ],
            "city": "Ranftlland",
            "postalCode": "17785",
            "country": "D"
          } ]
        }
      }, {
        "fullUrl": "https://pvs.gematik.de/fhir/Medication/f184d068-2223-4e9c-b2aa-dbe56484db52",
        "resource": {
          "resourceType": "Medication",
          "id": "f184d068-2223-4e9c-b2aa-dbe56484db52",
          "meta": {
            "profile": [ "https://fhir.kbv.de/StructureDefinition/KBV_PR_ERP_Medication_PZN|1.1.0" ]
          },
          "extension": [ {
            "url": "https://fhir.kbv.de/StructureDefinition/KBV_EX_Base_Medication_Type",
            "valueCodeableConcept": {
              "coding": [ {
                "system": "http://snomed.info/sct",
                "version": "http://snomed.info/sct/900000000000207008/version/20220331",
                "code": "763158003",
                "display": "Medicinal product (product)"
              } ]
            }
          }, {
            "url": "https://fhir.kbv.de/StructureDefinition/KBV_EX_ERP_Medication_Category",
            "valueCoding": {
              "system": "https://fhir.kbv.de/CodeSystem/KBV_CS_ERP_Medication_Category",
              "code": "00"
            }
          }, {
            "url": "https://fhir.kbv.de/StructureDefinition/KBV_EX_ERP_Medication_Vaccine",
            "valueBoolean": false
          }, {
            "url": "http://fhir.de/StructureDefinition/normgroesse",
            "valueCode": "NB"
          } ],
          "code": {
            "coding": [ {
              "system": "http://fhir.de/CodeSystem/ifa/pzn",
              "code": "61080177"
            } ],
            "text": "BoxaGrippal® forte Liquidum"
          },
          "form": {
            "coding": [ {
              "system": "https://fhir.kbv.de/CodeSystem/KBV_CS_SFHIR_KBV_DARREICHUNGSFORM",
              "code": "TAB"
            } ]
          },
          "amount": {
            "numerator": {
              "extension": [ {
                "url": "https://fhir.kbv.de/StructureDefinition/KBV_EX_ERP_Medication_PackagingSize",
                "valueString": "1"
              } ],
              "unit": "Stk"
            },
            "denominator": {
              "value": 1
            }
          }
        }
      }, {
        "fullUrl": "https://pvs.gematik.de/fhir/MedicationRequest/1ed7a995-bdc1-4902-8348-efaea0bc8d35",
        "resource": {
          "resourceType": "MedicationRequest",
          "id": "1ed7a995-bdc1-4902-8348-efaea0bc8d35",
          "meta": {
            "profile": [ "https://fhir.kbv.de/StructureDefinition/KBV_PR_ERP_Prescription|1.1.0" ]
          },
          "extension": [ {
            "url": "https://fhir.kbv.de/StructureDefinition/KBV_EX_ERP_BVG",
            "valueBoolean": false
          }, {
            "url": "https://fhir.kbv.de/StructureDefinition/KBV_EX_ERP_EmergencyServicesFee",
            "valueBoolean": false
          }, {
            "url": "https://fhir.kbv.de/StructureDefinition/KBV_EX_ERP_Multiple_Prescription",
            "extension": [ {
              "url": "Kennzeichen",
              "valueBoolean": true
            }, {
              "url": "Nummerierung",
              "valueRatio": {
                "numerator": {
                  "value": 4
                },
                "denominator": {
                  "value": 4
                }
              }
            }, {
              "url": "Zeitraum",
              "valuePeriod": {
                "start": "2025-12-23"
              }
            }, {
              "url": "ID",
              "valueIdentifier": {
                "system": "urn:ietf:rfc:3986",
                "value": "urn:uuid:586943d6-57f7-4e57-81ef-d3b49bcc2887"
              }
            } ]
          }, {
            "url": "https://fhir.kbv.de/StructureDefinition/KBV_EX_FOR_StatusCoPayment",
            "valueCoding": {
              "system": "https://fhir.kbv.de/CodeSystem/KBV_CS_FOR_StatusCoPayment",
              "code": "0"
            }
          } ],
          "status": "active",
          "intent": "order",
          "medicationReference": {
            "reference": "Medication/f184d068-2223-4e9c-b2aa-dbe56484db52"
          },
          "subject": {
            "reference": "Patient/00c57370-dea4-4ca6-b598-4b88538d2c33"
          },
          "authoredOn": "2025-03-28",
          "requester": {
            "reference": "Practitioner/65d40b59-79cf-4013-ab3b-1ecff02fbefd"
          },
          "insurance": [ {
            "reference": "Coverage/5c12e1de-b9b8-4780-962b-3a0c12fba348"
          } ],
          "dosageInstruction": [ {
            "extension": [ {
              "url": "https://fhir.kbv.de/StructureDefinition/KBV_EX_ERP_DosageFlag",
              "valueBoolean": true
            } ],
            "text": "2-2-0-0-3-3-2"
          } ],
          "dispenseRequest": {
            "quantity": {
              "value": 1,
              "system": "http://unitsofmeasure.org",
              "code": "{Package}"
            }
          },
          "substitution": {
            "allowedBoolean": false
          }
        }
      } ],
      "signature": {
        "type": [ {
          "system": "urn:iso-astm:E1762-95:2013",
          "code": "1.2.840.10065.1.12.1.5"
        } ],
        "when": "2025-03-28T08:05:40.749+00:00",
        "who": {
          "reference": "https://erp-ref.zentral.erp.splitdns.ti-dienste.de/Device/1"
        },
        "targetFormat": "application/fhir+json",
        "sigFormat": "application/jose",
        "data": ""
      }
    }
  } ]
}