<Bundle xmlns="http://hl7.org/fhir">
   <id value="a049507a-0d00-0000-0003-000000000000"/>
   <meta>
      <profile value="https://gematik.de/fhir/erp/StructureDefinition/GEM_ERP_PR_Bundle|1.2"/>
   </meta>
   <identifier>
      <system value="https://gematik.de/fhir/erp/NamingSystem/GEM_ERP_NS_PrescriptionId"/>
      <value value="160.000.226.119.753.16"/>
   </identifier>
   <type value="document"/>
   <timestamp value="2024-02-08T18:03:24.613+00:00"/>
   <link>
      <relation value="self"/>
      <url value="https://erp-ref.zentral.erp.splitdns.ti-dienste.de/Task/160.000.226.119.753.16/$close/"/>
   </link>
   <entry>
      <fullUrl value="urn:uuid:788e69b9-9a78-45a1-9de6-fb5edb236989"/>
      <resource>
         <Composition xmlns="http://hl7.org/fhir">
            <meta>
               <profile value="https://gematik.de/fhir/erp/StructureDefinition/GEM_ERP_PR_Composition|1.2"/>
            </meta>
            <extension url="https://gematik.de/fhir/erp/StructureDefinition/GEM_ERP_EX_Beneficiary">
               <valueIdentifier>
                  <system value="https://gematik.de/fhir/sid/telematik-id"/>
                  <value value="3-SMC-B-Testkarte-883110000116873"/>
               </valueIdentifier>
            </extension>
            <status value="final"/>
            <type>
               <coding>
                  <system value="https://gematik.de/fhir/erp/CodeSystem/GEM_ERP_CS_DocumentType"/>
                  <code value="3"/>
                  <display value="Receipt"/>
               </coding>
            </type>
            <date value="2024-02-08T18:03:24.611+00:00"/>
            <author>
               <reference value="urn:uuid:8d31c6a7-be60-42e1-aec8-2a1c46d067f4"/>
            </author>
            <title value="Quittung"/>
            <event>
               <period>
                  <start value="2024-02-08T18:03:23.075+00:00"/>
                  <end value="2024-02-08T18:03:24.611+00:00"/>
               </period>
            </event>
            <section>
               <entry>
                  <reference value="urn:uuid:47decbcb-a411-4298-8b61-eab2374c818a"/>
               </entry>
            </section>
         </Composition>
      </resource>
   </entry>
   <entry>
      <fullUrl value="urn:uuid:8d31c6a7-be60-42e1-aec8-2a1c46d067f4"/>
      <resource>
         <Device xmlns="http://hl7.org/fhir">
            <id value="1"/>
            <meta>
               <profile value="https://gematik.de/fhir/erp/StructureDefinition/GEM_ERP_PR_Device|1.2"/>
            </meta>
            <status value="active"/>
            <serialNumber value="1.13.0"/>
            <deviceName>
               <name value="E-Rezept Fachdienst"/>
               <type value="user-friendly-name"/>
            </deviceName>
            <version>
               <value value="1.13.0"/>
            </version>
            <contact>
               <system value="email"/>
               <value value="betrieb@gematik.de"/>
            </contact>
         </Device>
      </resource>
   </entry>
   <entry>
      <fullUrl value="urn:uuid:47decbcb-a411-4298-8b61-eab2374c818a"/>
      <resource>
         <Binary xmlns="http://hl7.org/fhir">
            <meta>
               <profile value="https://gematik.de/fhir/erp/StructureDefinition/GEM_ERP_PR_Digest|1.2"/>
            </meta>
            <contentType value="application/octet-stream"/>
            <data value="hcjUMWK000GMe4zsJtNu+00hM7f9yHWp7ewiMeXy6KY="/>
         </Binary>
      </resource>
   </entry>
   <signature>
      <type>
         <system value="urn:iso-astm:E1762-95:2013"/>
         <code value="1.2.840.10065.1.12.1.1"/>
      </type>
      <when value="2024-02-08T18:03:24.614+00:00"/>
      <who>
         <reference value="urn:uuid:8d31c6a7-be60-42e1-aec8-2a1c46d067f4"/>
      </who>
      <sigFormat value="application/pkcs7-mime"/>
      <data value=""/>
   </signature>
</Bundle>