{
  "resourceType": "Bundle",
  "id": "bcdbbfa8-2a46-490f-9d2e-4794968d6232",
  "meta": {
    "profile": [
      "http://fhir.abda.de/eRezeptAbgabedaten/StructureDefinition/DAV-PR-ERP-AbgabedatenBundle|1.3"
    ],
    "tag": [
      {
        "display": "Beispiel für Abgabedaten für eine Wirkstoff-Mehrfachverordnung (2/2) (d9118e05-6e13-4df6-af50-552401cf9ba2)"
      },
      {
        "display": "ACHTUNG! Der fachlich korrekte Inhalt der Beispielinstanz kann nicht gewährleistet werden. Wir sind jederzeit dankbar für Hinweise auf Fehler oder für Verbesserungsvorschläge."
      }
    ]
  },
  "identifier": {
    "system": "https://gematik.de/fhir/erp/NamingSystem/GEM_ERP_NS_PrescriptionId",
    "value": "160.100.000.000.027.58"
  },
  "type": "document",
  "timestamp": "2023-09-30T10:00:00+00:00",
  "entry": [
    {
      "fullUrl": "urn:uuid:e1ee7860-315c-4366-8179-c1b6a5ae23ac",
      "resource": {
        "resourceType": "Composition",
        "id": "e1ee7860-315c-4366-8179-c1b6a5ae23ac",
        "meta": {
          "profile": [
            "http://fhir.abda.de/eRezeptAbgabedaten/StructureDefinition/DAV-PR-ERP-AbgabedatenComposition|1.3"
          ]
        },
        "status": "final",
        "type": {
          "coding": [
            {
              "system": "http://fhir.abda.de/eRezeptAbgabedaten/CodeSystem/DAV-CS-ERP-CompositionTypes",
              "code": "ERezeptAbgabedaten"
            }
          ]
        },
        "date": "2023-09-30T10:00:00Z",
        "author": [
          {
            "reference": "urn:uuid:5aca7744-8c99-49c4-8912-f69f352d01cf"
          }
        ],
        "title": "ERezeptAbgabedaten",
        "section": [
          {
            "title": "Abgabeinformationen",
            "entry": [
              {
                "reference": "urn:uuid:af8cc513-9005-4c62-be72-8609cf4ad24d"
              }
            ]
          },
          {
            "title": "Apotheke",
            "entry": [
              {
                "reference": "urn:uuid:5aca7744-8c99-49c4-8912-f69f352d01cf"
              }
            ]
          }
        ]
      }
    },
    {
      "fullUrl": "urn:uuid:5aca7744-8c99-49c4-8912-f69f352d01cf",
      "resource": {
        "resourceType": "Organization",
        "id": "5aca7744-8c99-49c4-8912-f69f352d01cf",
        "meta": {
          "profile": [
            "http://fhir.abda.de/eRezeptAbgabedaten/StructureDefinition/DAV-PR-ERP-Apotheke|1.3"
          ]
        },
        "identifier": [
          {
            "system": "http://fhir.de/sid/arge-ik/iknr",
            "value": "308412345"
          }
        ],
        "name": "Adler-Apotheke",
        "address": [
          {
            "type": "physical",
            "line": [
              "Taunusstraße 89"
            ],
            "_line": [
              {
                "extension": [
                  {
                    "url": "http://hl7.org/fhir/StructureDefinition/iso21090-ADXP-streetName",
                    "valueString": "Taunusstraße"
                  },
                  {
                    "url": "http://hl7.org/fhir/StructureDefinition/iso21090-ADXP-houseNumber",
                    "valueString": "89"
                  }
                ]
              }
            ],
            "city": "Langen",
            "postalCode": "63225",
            "country": "D"
          }
        ]
      }
    },
    {
      "fullUrl": "urn:uuid:af8cc513-9005-4c62-be72-8609cf4ad24d",
      "resource": {
        "resourceType": "MedicationDispense",
        "id": "af8cc513-9005-4c62-be72-8609cf4ad24d",
        "meta": {
          "profile": [
            "http://fhir.abda.de/eRezeptAbgabedaten/StructureDefinition/DAV-PR-ERP-Abgabeinformationen|1.3"
          ]
        },
        "extension": [
          {
            "url": "http://fhir.abda.de/eRezeptAbgabedaten/StructureDefinition/DAV-EX-ERP-Abrechnungszeilen",
            "valueReference": {
              "reference": "urn:uuid:1db6d075-c11b-4075-b6ae-febeced0c833"
            }
          }
        ],
        "status": "completed",
        "medicationCodeableConcept": {
          "coding": [
            {
              "system": "http://terminology.hl7.org/CodeSystem/data-absent-reason",
              "code": "not-applicable"
            }
          ]
        },
        "performer": [
          {
            "actor": {
              "reference": "urn:uuid:5aca7744-8c99-49c4-8912-f69f352d01cf"
            }
          }
        ],
        "authorizingPrescription": [
          {
            "identifier": {
              "system": "https://gematik.de/fhir/erp/NamingSystem/GEM_ERP_NS_PrescriptionId",
              "value": "160.100.000.000.027.58"
            }
          }
        ],
        "type": {
          "coding": [
            {
              "system": "http://fhir.abda.de/eRezeptAbgabedaten/CodeSystem/DAV-CS-ERP-MedicationDispenseTyp",
              "code": "Abgabeinformationen"
            }
          ]
        },
        "whenHandedOver": "2023-09-30"
      }
    },
    {
      "fullUrl": "urn:uuid:1db6d075-c11b-4075-b6ae-febeced0c833",
      "resource": {
        "resourceType": "Invoice",
        "id": "1db6d075-c11b-4075-b6ae-febeced0c833",
        "meta": {
          "profile": [
            "http://fhir.abda.de/eRezeptAbgabedaten/StructureDefinition/DAV-PR-ERP-Abrechnungszeilen|1.3"
          ]
        },
        "status": "issued",
        "type": {
          "coding": [
            {
              "system": "http://fhir.abda.de/eRezeptAbgabedaten/CodeSystem/DAV-CS-ERP-InvoiceTyp",
              "code": "Abrechnungszeilen"
            }
          ]
        },
        "lineItem": [
          {
            "extension": [
              {
                "extension": [
                  {
                    "extension": [
                      {
                        "extension": [
                          {
                            "url": "Schluessel",
                            "valueCodeableConcept": {
                              "coding": [
                                {
                                  "system": "http://fhir.abda.de/eRezeptAbgabedaten/CodeSystem/DAV-CS-ERP-ZusatzattributFAMSchluesselMarkt",
                                  "code": "1"
                                }
                              ]
                            }
                          },
                          {
                            "url": "Gruppe",
                            "valueCodeableConcept": {
                              "coding": [
                                {
                                  "system": "http://fhir.abda.de/eRezeptAbgabedaten/CodeSystem/DAV-CS-ERP-ZusatzattributGruppe",
                                  "code": "1"
                                }
                              ]
                            }
                          }
                        ],
                        "url": "Markt"
                      },
                      {
                        "extension": [
                          {
                            "url": "Gruppe",
                            "valueCodeableConcept": {
                              "coding": [
                                {
                                  "system": "http://fhir.abda.de/eRezeptAbgabedaten/CodeSystem/DAV-CS-ERP-ZusatzattributGruppe",
                                  "code": "2"
                                }
                              ]
                            }
                          },
                          {
                            "url": "Schluessel",
                            "valueCodeableConcept": {
                              "coding": [
                                {
                                  "system": "http://fhir.abda.de/eRezeptAbgabedaten/CodeSystem/DAV-CS-ERP-ZusatzattributFAMSchluesselAbgaberangfolge",
                                  "code": "1"
                                }
                              ]
                            }
                          }
                        ],
                        "url": "Rabattvertragserfuellung"
                      },
                      {
                        "extension": [
                          {
                            "url": "Gruppe",
                            "valueCodeableConcept": {
                              "coding": [
                                {
                                  "system": "http://fhir.abda.de/eRezeptAbgabedaten/CodeSystem/DAV-CS-ERP-ZusatzattributGruppe",
                                  "code": "3"
                                }
                              ]
                            }
                          },
                          {
                            "url": "Schluessel",
                            "valueCodeableConcept": {
                              "coding": [
                                {
                                  "system": "http://fhir.abda.de/eRezeptAbgabedaten/CodeSystem/DAV-CS-ERP-ZusatzattributFAMSchluesselAbgaberangfolge",
                                  "code": "0"
                                }
                              ]
                            }
                          }
                        ],
                        "url": "PreisguenstigesFAM"
                      },
                      {
                        "extension": [
                          {
                            "url": "Gruppe",
                            "valueCodeableConcept": {
                              "coding": [
                                {
                                  "system": "http://fhir.abda.de/eRezeptAbgabedaten/CodeSystem/DAV-CS-ERP-ZusatzattributGruppe",
                                  "code": "4"
                                }
                              ]
                            }
                          },
                          {
                            "url": "Schluessel",
                            "valueCodeableConcept": {
                              "coding": [
                                {
                                  "system": "http://fhir.abda.de/eRezeptAbgabedaten/CodeSystem/DAV-CS-ERP-ZusatzattributFAMSchluesselImportFAM",
                                  "code": "0"
                                }
                              ]
                            }
                          }
                        ],
                        "url": "ImportFAM"
                      }
                    ],
                    "url": "ZusatzattributFAM"
                  }
                ],
                "url": "http://fhir.abda.de/eRezeptAbgabedaten/StructureDefinition/DAV-EX-ERP-Zusatzattribute"
              },
              {
                "url": "http://fhir.abda.de/eRezeptAbgabedaten/StructureDefinition/DAV-EX-ERP-Chargenbezeichnung",
                "valueString": "A123456789-1"
              }
            ],
            "sequence": 1,
            "chargeItemCodeableConcept": {
              "coding": [
                {
                  "system": "http://fhir.de/CodeSystem/ifa/pzn",
                  "code": "02846592"
                }
              ]
            },
            "priceComponent": [
              {
                "extension": [
                  {
                    "url": "http://fhir.abda.de/eRezeptAbgabedaten/StructureDefinition/DAV-EX-ERP-MwStSatz",
                    "valueDecimal": 19.00
                  },
                  {
                    "extension": [
                      {
                        "url": "Kategorie",
                        "valueCodeableConcept": {
                          "coding": [
                            {
                              "system": "http://fhir.abda.de/eRezeptAbgabedaten/CodeSystem/DAV-CS-ERP-KostenVersicherterKategorie",
                              "code": "0"
                            }
                          ]
                        }
                      },
                      {
                        "url": "Kostenbetrag",
                        "valueMoney": {
                          "value": 0.00,
                          "currency": "EUR"
                        }
                      }
                    ],
                    "url": "http://fhir.abda.de/eRezeptAbgabedaten/StructureDefinition/DAV-EX-ERP-KostenVersicherter"
                  }
                ],
                "type": "informational",
                "factor": 1,
                "amount": {
                  "value": 16.67,
                  "currency": "EUR"
                }
              }
            ]
          }
        ],
        "totalGross": {
          "extension": [
            {
              "url": "http://fhir.abda.de/eRezeptAbgabedaten/StructureDefinition/DAV-EX-ERP-Gesamtzuzahlung",
              "valueMoney": {
                "value": 0.00,
                "currency": "EUR"
              }
            }
          ],
          "value": 16.67,
          "currency": "EUR"
        }
      }
    }
  ]
}