{
  "resourceType": "Bundle",
  "id": "1ad84b2a-b444-430c-9902-025214aafdb3",
  "meta": {
    "profile": [
      "https://fhir.kbv.de/StructureDefinition/KBV_PR_ERP_Bundle|1.1.0"
    ]
  },
  "identifier": {
    "system": "https://gematik.de/fhir/erp/NamingSystem/GEM_ERP_NS_PrescriptionId",
    "value": "200.424.187.927.272.20"
  },
  "type": "document",
  "timestamp": "2023-07-03T08:30:00+00:00",
  "entry": [
    {
      "fullUrl": "http://pvs.praxis.local/fhir/Composition/edcd7128-f902-4803-a6bf-0342a8b752ea",
      "resource": {
        "resourceType": "Composition",
        "id": "edcd7128-f902-4803-a6bf-0342a8b752ea",
        "meta": {
          "profile": [
            "https://fhir.kbv.de/StructureDefinition/KBV_PR_ERP_Composition|1.1.0"
          ]
        },
        "extension": [
          {
            "url": "https://fhir.kbv.de/StructureDefinition/KBV_EX_FOR_Legal_basis",
            "valueCoding": {
              "system": "https://fhir.kbv.de/CodeSystem/KBV_CS_SFHIR_KBV_STATUSKENNZEICHEN",
              "code": "00"
            }
          },
          {
            "url": "https://fhir.kbv.de/StructureDefinition/KBV_EX_FOR_PKV_Tariff",
            "valueCoding": {
              "system": "https://fhir.kbv.de/CodeSystem/KBV_CS_SFHIR_KBV_PKV_TARIFF",
              "code": "01"
            }
          }
        ],
        "status": "final",
        "type": {
          "coding": [
            {
              "system": "https://fhir.kbv.de/CodeSystem/KBV_CS_SFHIR_KBV_FORMULAR_ART",
              "code": "e16A"
            }
          ]
        },
        "subject": {
          "reference": "Patient/7de73a99-5f79-42b2-9d64-db8f5cf9e538"
        },
        "date": "2023-07-03T08:00:00Z",
        "author": [
          {
            "reference": "Practitioner/a7936076-8a99-4687-aefa-2d9a8cc57cb0",
            "type": "Practitioner"
          },
          {
            "type": "Device",
            "identifier": {
              "system": "https://fhir.kbv.de/NamingSystem/KBV_NS_FOR_Pruefnummer",
              "value": "Y/400/2107/36/999"
            }
          }
        ],
        "title": "elektronische Arzneimittelverordnung",
        "custodian": {
          "reference": "Organization/7a851661-24e5-418a-a275-5f3ed4c5dc19"
        },
        "section": [
          {
            "code": {
              "coding": [
                {
                  "system": "https://fhir.kbv.de/CodeSystem/KBV_CS_ERP_Section_Type",
                  "code": "Prescription"
                }
              ]
            },
            "entry": [
              {
                "reference": "MedicationRequest/82562d84-18c6-4ac6-bbdc-dbbfa8348375"
              }
            ]
          },
          {
            "code": {
              "coding": [
                {
                  "system": "https://fhir.kbv.de/CodeSystem/KBV_CS_ERP_Section_Type",
                  "code": "Coverage"
                }
              ]
            },
            "entry": [
              {
                "reference": "Coverage/ecf6ddb9-3601-4d0b-8998-030e94b8bdf9"
              }
            ]
          }
        ]
      }
    },
    {
      "fullUrl": "http://pvs.praxis.local/fhir/MedicationRequest/82562d84-18c6-4ac6-bbdc-dbbfa8348375",
      "resource": {
        "resourceType": "MedicationRequest",
        "id": "82562d84-18c6-4ac6-bbdc-dbbfa8348375",
        "meta": {
          "profile": [
            "https://fhir.kbv.de/StructureDefinition/KBV_PR_ERP_Prescription|1.1.0"
          ]
        },
        "extension": [
          {
            "url": "https://fhir.kbv.de/StructureDefinition/KBV_EX_ERP_EmergencyServicesFee",
            "valueBoolean": false
          },
          {
            "url": "https://fhir.kbv.de/StructureDefinition/KBV_EX_ERP_BVG",
            "valueBoolean": false
          },
          {
            "extension": [
              {
                "url": "Kennzeichen",
                "valueBoolean": false
              }
            ],
            "url": "https://fhir.kbv.de/StructureDefinition/KBV_EX_ERP_Multiple_Prescription"
          }
        ],
        "status": "active",
        "intent": "order",
        "medicationReference": {
          "reference": "Medication/b4c2bba5-23bd-4be3-b58f-a70621edd84f"
        },
        "subject": {
          "reference": "Patient/7de73a99-5f79-42b2-9d64-db8f5cf9e538"
        },
        "authoredOn": "2023-07-03",
        "requester": {
          "reference": "Practitioner/a7936076-8a99-4687-aefa-2d9a8cc57cb0"
        },
        "insurance": [
          {
            "reference": "Coverage/ecf6ddb9-3601-4d0b-8998-030e94b8bdf9"
          }
        ],
        "dosageInstruction": [
          {
            "extension": [
              {
                "url": "https://fhir.kbv.de/StructureDefinition/KBV_EX_ERP_DosageFlag",
                "valueBoolean": true
              }
            ],
            "text": "1-0-0-0"
          }
        ],
        "dispenseRequest": {
          "quantity": {
            "value": 1,
            "system": "http://unitsofmeasure.org",
            "code": "{Package}"
          }
        },
        "substitution": {
          "allowedBoolean": true
        }
      }
    },
    {
      "fullUrl": "http://pvs.praxis.local/fhir/Medication/b4c2bba5-23bd-4be3-b58f-a70621edd84f",
      "resource": {
        "resourceType": "Medication",
        "id": "b4c2bba5-23bd-4be3-b58f-a70621edd84f",
        "meta": {
          "profile": [
            "https://fhir.kbv.de/StructureDefinition/KBV_PR_ERP_Medication_PZN|1.1.0"
          ]
        },
        "extension": [
          {
            "url": "https://fhir.kbv.de/StructureDefinition/KBV_EX_Base_Medication_Type",
            "valueCodeableConcept": {
              "coding": [
                {
                  "system": "http://snomed.info/sct",
                  "version": "http://snomed.info/sct/900000000000207008/version/20220331",
                  "code": "763158003",
                  "display": "Medicinal product (product)"
                }
              ]
            }
          },
          {
            "url": "https://fhir.kbv.de/StructureDefinition/KBV_EX_ERP_Medication_Category",
            "valueCoding": {
              "system": "https://fhir.kbv.de/CodeSystem/KBV_CS_ERP_Medication_Category",
              "code": "00"
            }
          },
          {
            "url": "https://fhir.kbv.de/StructureDefinition/KBV_EX_ERP_Medication_Vaccine",
            "valueBoolean": false
          },
          {
            "url": "http://fhir.de/StructureDefinition/normgroesse",
            "valueCode": "N1"
          }
        ],
        "code": {
          "coding": [
            {
              "system": "http://fhir.de/CodeSystem/ifa/pzn",
              "code": "03879429"
            }
          ],
          "text": "Beloc-Zok® mite 47,5 mg, 30 Retardtabletten N1"
        },
        "form": {
          "coding": [
            {
              "system": "https://fhir.kbv.de/CodeSystem/KBV_CS_SFHIR_KBV_DARREICHUNGSFORM",
              "code": "RET"
            }
          ]
        },
        "amount": {
          "numerator": {
            "extension": [
              {
                "url": "https://fhir.kbv.de/StructureDefinition/KBV_EX_ERP_Medication_PackagingSize",
                "valueString": "30"
              }
            ],
            "unit": "Stück"
          },
          "denominator": {
            "value": 1
          }
        }
      }
    },
    {
      "fullUrl": "http://pvs.praxis.local/fhir/Patient/7de73a99-5f79-42b2-9d64-db8f5cf9e538",
      "resource": {
        "resourceType": "Patient",
        "id": "7de73a99-5f79-42b2-9d64-db8f5cf9e538",
        "meta": {
          "profile": [
            "https://fhir.kbv.de/StructureDefinition/KBV_PR_FOR_Patient|1.1.0"
          ]
        },
        "identifier": [
          {
            "type": {
              "coding": [
                {
                  "system": "http://fhir.de/CodeSystem/identifier-type-de-basis",
                  "code": "PKV"
                }
              ]
            },
            "system": "http://fhir.de/sid/pkv/kvid-10",
            "value": "P123464117"
          }
        ],
        "name": [
          {
            "use": "official",
            "family": "Privati",
            "_family": {
              "extension": [
                {
                  "url": "http://hl7.org/fhir/StructureDefinition/humanname-own-name",
                  "valueString": "Privati"
                }
              ]
            },
            "given": [
              "Paula"
            ]
          }
        ],
        "birthDate": "1935-06-22",
        "address": [
          {
            "type": "both",
            "line": [
              "Blumenweg 18"
            ],
            "_line": [
              {
                "extension": [
                  {
                    "url": "http://hl7.org/fhir/StructureDefinition/iso21090-ADXP-streetName",
                    "valueString": "Blumenweg"
                  },
                  {
                    "url": "http://hl7.org/fhir/StructureDefinition/iso21090-ADXP-houseNumber",
                    "valueString": "18"
                  }
                ]
              }
            ],
            "city": "Esens",
            "postalCode": "26427",
            "country": "D"
          }
        ]
      }
    },
    {
      "fullUrl": "http://pvs.praxis.local/fhir/Practitioner/a7936076-8a99-4687-aefa-2d9a8cc57cb0",
      "resource": {
        "resourceType": "Practitioner",
        "id": "a7936076-8a99-4687-aefa-2d9a8cc57cb0",
        "meta": {
          "profile": [
            "https://fhir.kbv.de/StructureDefinition/KBV_PR_FOR_Practitioner|1.1.0"
          ]
        },
        "identifier": [
          {
            "type": {
              "coding": [
                {
                  "system": "http://terminology.hl7.org/CodeSystem/v2-0203",
                  "code": "LANR"
                }
              ]
            },
            "system": "https://fhir.kbv.de/NamingSystem/KBV_NS_Base_ANR",
            "value": "987654423"
          },
          {
            "type": {
              "coding": [
                {
                  "system": "http://terminology.hl7.org/CodeSystem/v2-0203",
                  "code": "PRN"
                }
              ]
            },
            "system": "https://gematik.de/fhir/sid/telematik-id",
            "value": "1-748382202"
          }
        ],
        "name": [
          {
            "use": "official",
            "family": "Schneider",
            "_family": {
              "extension": [
                {
                  "url": "http://hl7.org/fhir/StructureDefinition/humanname-own-name",
                  "valueString": "Schneider"
                }
              ]
            },
            "given": [
              "Emma"
            ],
            "prefix": [
              "Dr. med."
            ],
            "_prefix": [
              {
                "extension": [
                  {
                    "url": "http://hl7.org/fhir/StructureDefinition/iso21090-EN-qualifier",
                    "valueCode": "AC"
                  }
                ]
              }
            ]
          }
        ],
        "qualification": [
          {
            "code": {
              "coding": [
                {
                  "system": "https://fhir.kbv.de/CodeSystem/KBV_CS_FOR_Qualification_Type",
                  "code": "00"
                }
              ]
            }
          },
          {
            "code": {
              "coding": [
                {
                  "system": "https://fhir.kbv.de/CodeSystem/KBV_CS_FOR_Berufsbezeichnung",
                  "code": "Berufsbezeichnung"
                }
              ],
              "text": "Fachärztin für Innere Medizin"
            }
          }
        ]
      }
    },
    {
      "fullUrl": "http://pvs.praxis.local/fhir/Organization/7a851661-24e5-418a-a275-5f3ed4c5dc19",
      "resource": {
        "resourceType": "Organization",
        "id": "7a851661-24e5-418a-a275-5f3ed4c5dc19",
        "meta": {
          "profile": [
            "https://fhir.kbv.de/StructureDefinition/KBV_PR_FOR_Organization|1.1.0"
          ]
        },
        "identifier": [
          {
            "type": {
              "coding": [
                {
                  "system": "http://terminology.hl7.org/CodeSystem/v2-0203",
                  "code": "BSNR"
                }
              ]
            },
            "system": "https://fhir.kbv.de/NamingSystem/KBV_NS_Base_BSNR",
            "value": "721111100"
          }
        ],
        "name": "MVZ",
        "telecom": [
          {
            "system": "phone",
            "value": "0301234567"
          },
          {
            "system": "fax",
            "value": "030123456789"
          },
          {
            "system": "email",
            "value": "mvz@e-mail.de"
          }
        ],
        "address": [
          {
            "type": "both",
            "line": [
              "Herbert-Lewin-Platz 2"
            ],
            "_line": [
              {
                "extension": [
                  {
                    "url": "http://hl7.org/fhir/StructureDefinition/iso21090-ADXP-streetName",
                    "valueString": "Herbert-Lewin-Platz"
                  },
                  {
                    "url": "http://hl7.org/fhir/StructureDefinition/iso21090-ADXP-houseNumber",
                    "valueString": "2"
                  }
                ]
              }
            ],
            "city": "Berlin",
            "postalCode": "10623",
            "country": "D"
          }
        ]
      }
    },
    {
      "fullUrl": "http://pvs.praxis.local/fhir/Coverage/ecf6ddb9-3601-4d0b-8998-030e94b8bdf9",
      "resource": {
        "resourceType": "Coverage",
        "id": "ecf6ddb9-3601-4d0b-8998-030e94b8bdf9",
        "meta": {
          "profile": [
            "https://fhir.kbv.de/StructureDefinition/KBV_PR_FOR_Coverage|1.1.0"
          ]
        },
        "extension": [
          {
            "url": "http://fhir.de/StructureDefinition/gkv/besondere-personengruppe",
            "valueCoding": {
              "system": "https://fhir.kbv.de/CodeSystem/KBV_CS_SFHIR_KBV_PERSONENGRUPPE",
              "code": "00"
            }
          },
          {
            "url": "http://fhir.de/StructureDefinition/gkv/dmp-kennzeichen",
            "valueCoding": {
              "system": "https://fhir.kbv.de/CodeSystem/KBV_CS_SFHIR_KBV_DMP",
              "code": "00"
            }
          },
          {
            "url": "http://fhir.de/StructureDefinition/gkv/versichertenart",
            "valueCoding": {
              "system": "https://fhir.kbv.de/CodeSystem/KBV_CS_SFHIR_KBV_VERSICHERTENSTATUS",
              "code": "1"
            }
          }
        ],
        "status": "active",
        "type": {
          "coding": [
            {
              "system": "http://fhir.de/CodeSystem/versicherungsart-de-basis",
              "code": "PKV"
            }
          ]
        },
        "beneficiary": {
          "reference": "Patient/7de73a99-5f79-42b2-9d64-db8f5cf9e538"
        },
        "payor": [
          {
            "identifier": {
              "system": "http://fhir.de/sid/arge-ik/iknr",
              "value": "168140346"
            },
            "display": "Allianz Private Krankenversicherungs-AG"
          }
        ]
      }
    }
  ]
}