{
  "resourceType": "Bundle",
  "id": "c65887d2-4dc1-4be0-8faf-385407a49c4e",
  "meta": {
    "profile": [
      "http://fhir.abda.de/eRezeptAbgabedaten/StructureDefinition/DAV-PKV-PR-ERP-AbgabedatenBundle|1.3"
    ],
    "tag": [
      {
        "display": "Beispiel RezeptAbgabedatenPKV Bundle (PZN-15)"
      },
      {
        "display": "ACHTUNG! Der fachlich korrekte Inhalt der Beispielinstanz kann nicht gewährleistet werden. Wir sind jederzeit dankbar für Hinweise auf Fehler oder für Verbesserungsvorschläge."
      }
    ]
  },
  "identifier": {
    "system": "https://gematik.de/fhir/erp/NamingSystem/GEM_ERP_NS_PrescriptionId",
    "value": "200.385.450.404.964.44"
  },
  "type": "document",
  "timestamp": "2025-02-03T11:30:00+00:00",
  "entry": [
    {
      "fullUrl": "urn:uuid:67718ab5-605d-41a5-8ca0-ca0f5306ef1c",
      "resource": {
        "resourceType": "Composition",
        "id": "67718ab5-605d-41a5-8ca0-ca0f5306ef1c",
        "meta": {
          "profile": [
            "http://fhir.abda.de/eRezeptAbgabedaten/StructureDefinition/DAV-PKV-PR-ERP-AbgabedatenComposition|1.3"
          ]
        },
        "status": "final",
        "type": {
          "coding": [
            {
              "system": "http://fhir.abda.de/eRezeptAbgabedaten/CodeSystem/DAV-CS-ERP-CompositionTypes",
              "code": "ERezeptAbgabedaten"
            }
          ]
        },
        "date": "2025-02-03T11:30:00Z",
        "author": [
          {
            "reference": "urn:uuid:3ebc3dc9-1253-44f4-bd95-fed27b8bcfd5"
          }
        ],
        "title": "ERezeptAbgabedaten",
        "section": [
          {
            "title": "Abgabeinformationen",
            "entry": [
              {
                "reference": "urn:uuid:b5541d87-bd34-4b32-8f8c-32b3b6fb8269"
              }
            ]
          },
          {
            "title": "Apotheke",
            "entry": [
              {
                "reference": "urn:uuid:3ebc3dc9-1253-44f4-bd95-fed27b8bcfd5"
              }
            ]
          }
        ]
      }
    },
    {
      "fullUrl": "urn:uuid:3ebc3dc9-1253-44f4-bd95-fed27b8bcfd5",
      "resource": {
        "resourceType": "Organization",
        "id": "3ebc3dc9-1253-44f4-bd95-fed27b8bcfd5",
        "meta": {
          "profile": [
            "http://fhir.abda.de/eRezeptAbgabedaten/StructureDefinition/DAV-PKV-PR-ERP-Apotheke|1.3"
          ]
        },
        "identifier": [
          {
            "system": "http://fhir.de/sid/arge-ik/iknr",
            "value": "308412345"
          }
        ],
        "name": "Adler-Apotheke",
        "address": [
          {
            "type": "physical",
            "line": [
              "Taunusstraße 89"
            ],
            "_line": [
              {
                "extension": [
                  {
                    "url": "http://hl7.org/fhir/StructureDefinition/iso21090-ADXP-streetName",
                    "valueString": "Taunusstraße"
                  },
                  {
                    "url": "http://hl7.org/fhir/StructureDefinition/iso21090-ADXP-houseNumber",
                    "valueString": "89"
                  }
                ]
              }
            ],
            "city": "Langen",
            "postalCode": "63225",
            "country": "D"
          }
        ]
      }
    },
    {
      "fullUrl": "urn:uuid:b5541d87-bd34-4b32-8f8c-32b3b6fb8269",
      "resource": {
        "resourceType": "MedicationDispense",
        "id": "b5541d87-bd34-4b32-8f8c-32b3b6fb8269",
        "meta": {
          "profile": [
            "http://fhir.abda.de/eRezeptAbgabedaten/StructureDefinition/DAV-PKV-PR-ERP-Abgabeinformationen|1.3"
          ]
        },
        "extension": [
          {
            "url": "http://fhir.abda.de/eRezeptAbgabedaten/StructureDefinition/DAV-EX-ERP-Abrechnungszeilen",
            "valueReference": {
              "reference": "urn:uuid:2f2559ad-6169-40c9-a1a9-e1e538743759"
            }
          },
          {
            "url": "http://fhir.abda.de/eRezeptAbgabedaten/StructureDefinition/DAV-PKV-EX-ERP-AbrechnungsTyp",
            "valueCodeableConcept": {
              "coding": [
                {
                  "system": "http://fhir.abda.de/eRezeptAbgabedaten/CodeSystem/DAV-PKV-CS-ERP-AbrechnungsTyp",
                  "code": "1"
                }
              ]
            }
          }
        ],
        "status": "completed",
        "medicationCodeableConcept": {
          "coding": [
            {
              "system": "http://terminology.hl7.org/CodeSystem/data-absent-reason",
              "code": "not-applicable"
            }
          ]
        },
        "performer": [
          {
            "actor": {
              "reference": "urn:uuid:3ebc3dc9-1253-44f4-bd95-fed27b8bcfd5"
            }
          }
        ],
        "authorizingPrescription": [
          {
            "identifier": {
              "system": "https://gematik.de/fhir/erp/NamingSystem/GEM_ERP_NS_PrescriptionId",
              "value": "200.385.450.404.964.44"
            }
          }
        ],
        "type": {
          "coding": [
            {
              "system": "http://fhir.abda.de/eRezeptAbgabedaten/CodeSystem/DAV-CS-ERP-MedicationDispenseTyp",
              "code": "Abgabeinformationen"
            }
          ]
        },
        "whenHandedOver": "2025-02-03",
        "substitution": {
          "extension": [
            {
              "extension": [
                {
                  "url": "ArtRezeptaenderung",
                  "valueCodeableConcept": {
                    "coding": [
                      {
                        "system": "http://fhir.abda.de/eRezeptAbgabedaten/CodeSystem/DAV-PKV-CS-ERP-ArtRezeptaenderung",
                        "code": "13"
                      }
                    ]
                  }
                },
                {
                  "url": "RueckspracheArzt",
                  "valueCodeableConcept": {
                    "coding": [
                      {
                        "system": "http://fhir.abda.de/eRezeptAbgabedaten/CodeSystem/DAV-CS-ERP-RueckspracheArzt",
                        "code": "2"
                      }
                    ]
                  }
                }
              ],
              "url": "http://fhir.abda.de/eRezeptAbgabedaten/StructureDefinition/DAV-EX-ERP-Rezeptaenderung"
            }
          ],
          "wasSubstituted": true
        }
      }
    },
    {
      "fullUrl": "urn:uuid:2f2559ad-6169-40c9-a1a9-e1e538743759",
      "resource": {
        "resourceType": "Invoice",
        "id": "2f2559ad-6169-40c9-a1a9-e1e538743759",
        "meta": {
          "profile": [
            "http://fhir.abda.de/eRezeptAbgabedaten/StructureDefinition/DAV-PKV-PR-ERP-Abrechnungszeilen|1.3"
          ]
        },
        "status": "issued",
        "type": {
          "coding": [
            {
              "system": "http://fhir.abda.de/eRezeptAbgabedaten/CodeSystem/DAV-CS-ERP-InvoiceTyp",
              "code": "Abrechnungszeilen"
            }
          ]
        },
        "lineItem": [
          {
            "sequence": 1,
            "chargeItemCodeableConcept": {
              "coding": [
                {
                  "system": "http://fhir.de/CodeSystem/ifa/pzn",
                  "code": "04351707"
                }
              ],
              "text": "Benazepril AL 10mg 98 Filmtabletten N3"
            },
            "priceComponent": [
              {
                "extension": [
                  {
                    "url": "http://fhir.abda.de/eRezeptAbgabedaten/StructureDefinition/DAV-EX-ERP-MwStSatz",
                    "valueDecimal": 19.00
                  },
                  {
                    "extension": [
                      {
                        "url": "Kategorie",
                        "valueCodeableConcept": {
                          "coding": [
                            {
                              "system": "http://fhir.abda.de/eRezeptAbgabedaten/CodeSystem/DAV-PKV-CS-ERP-KostenVersicherterKategorie",
                              "code": "0"
                            }
                          ]
                        }
                      },
                      {
                        "url": "Kostenbetrag",
                        "valueMoney": {
                          "value": 0.00,
                          "currency": "EUR"
                        }
                      }
                    ],
                    "url": "http://fhir.abda.de/eRezeptAbgabedaten/StructureDefinition/DAV-EX-ERP-KostenVersicherter"
                  }
                ],
                "type": "informational",
                "factor": 2,
                "amount": {
                  "value": 30.74,
                  "currency": "EUR"
                }
              }
            ]
          },
          {
            "sequence": 2,
            "chargeItemCodeableConcept": {
              "coding": [
                {
                  "system": "http://TA1.abda.de",
                  "code": "17717446"
                }
              ],
              "text": "Lieferengpasspauschale"
            },
            "priceComponent": [
              {
                "extension": [
                  {
                    "url": "http://fhir.abda.de/eRezeptAbgabedaten/StructureDefinition/DAV-EX-ERP-MwStSatz",
                    "valueDecimal": 19.00
                  },
                  {
                    "extension": [
                      {
                        "url": "Kategorie",
                        "valueCodeableConcept": {
                          "coding": [
                            {
                              "system": "http://fhir.abda.de/eRezeptAbgabedaten/CodeSystem/DAV-PKV-CS-ERP-KostenVersicherterKategorie",
                              "code": "0"
                            }
                          ]
                        }
                      },
                      {
                        "url": "Kostenbetrag",
                        "valueMoney": {
                          "value": 0.00,
                          "currency": "EUR"
                        }
                      }
                    ],
                    "url": "http://fhir.abda.de/eRezeptAbgabedaten/StructureDefinition/DAV-EX-ERP-KostenVersicherter"
                  }
                ],
                "type": "informational",
                "factor": 1,
                "amount": {
                  "value": 0.60,
                  "currency": "EUR"
                }
              }
            ]
          }
        ],
        "totalGross": {
          "extension": [
            {
              "url": "http://fhir.abda.de/eRezeptAbgabedaten/StructureDefinition/DAV-EX-ERP-Gesamtzuzahlung",
              "valueMoney": {
                "value": 0.00,
                "currency": "EUR"
              }
            }
          ],
          "value": 31.34,
          "currency": "EUR"
        }
      }
    }
  ]
}