{
  "resourceType" : "Bundle",
  "id" : "6b04b3da-dd22-422b-bc8c-db2a18760f1d",
  "type" : "collection",
  "timestamp" : "2023-11-27T07:26:13.280+00:00",
  "link" : [ {
    "relation" : "self",
    "url" : "https://erp-test.zentral.erp.splitdns.ti-dienste.de/Task/160.000.006.420.698.29"
  } ],
  "entry" : [ {
    "fullUrl" : "https://erp-test.zentral.erp.splitdns.ti-dienste.de/Task/160.000.006.420.698.29",
    "resource" : {
      "resourceType" : "Task",
      "id" : "160.000.006.420.698.29",
      "meta" : {
        "profile" : [ "https://gematik.de/fhir/erp/StructureDefinition/GEM_ERP_PR_Task|1.2" ]
      },
      "extension" : [ {
        "url" : "https://gematik.de/fhir/erp/StructureDefinition/GEM_ERP_EX_PrescriptionType",
        "valueCoding" : {
          "system" : "https://gematik.de/fhir/erp/CodeSystem/GEM_ERP_CS_FlowType",
          "code" : "160",
          "display" : "Muster 16 (Apothekenpflichtige Arzneimittel)"
        }
      }, {
        "url" : "https://gematik.de/fhir/erp/StructureDefinition/GEM_ERP_EX_ExpiryDate",
        "valueDate" : "2024-02-27"
      }, {
        "url" : "https://gematik.de/fhir/erp/StructureDefinition/GEM_ERP_EX_AcceptDate",
        "valueDate" : "2023-12-25"
      } ],
      "identifier" : [ {
        "use" : "official",
        "system" : "https://gematik.de/fhir/erp/NamingSystem/GEM_ERP_NS_PrescriptionId",
        "value" : "160.000.006.420.698.29"
      }, {
        "use" : "official",
        "system" : "https://gematik.de/fhir/erp/NamingSystem/GEM_ERP_NS_AccessCode",
        "value" : "d86a4e16bbeda58fa85075b86c233bfbb3bf47b6914788e862db05467ab3e2ce"
      } ],
      "status" : "ready",
      "intent" : "order",
      "for" : {
        "identifier" : {
          "system" : "http://fhir.de/sid/gkv/kvid-10",
          "value" : "X110498565"
        }
      },
      "authoredOn" : "2023-11-27T07:26:09.995+00:00",
      "lastModified" : "2023-11-27T07:26:10.429+00:00",
      "performerType" : [ {
        "coding" : [ {
          "system" : "https://gematik.de/fhir/erp/CodeSystem/GEM_ERP_CS_OrganizationType",
          "code" : "urn:oid:1.2.276.0.76.4.54",
          "display" : "Öffentliche Apotheke"
        } ],
        "text" : "Öffentliche Apotheke"
      } ],
      "input" : [ {
        "type" : {
          "coding" : [ {
            "system" : "https://gematik.de/fhir/erp/CodeSystem/GEM_ERP_CS_DocumentType",
            "code" : "2"
          } ]
        },
        "valueReference" : {
          "reference" : "a0daf861-0000-0000-0002-000000000000"
        }
      } ]
    }
  }, {
    "fullUrl" : "urn:uuid:a0daf861-0000-0000-0002-000000000000",
    "resource" : {
      "resourceType" : "Bundle",
      "meta" : {
        "lastUpdated" : "2023-11-27T08:26:10.110+01:00",
        "profile" : [ "https://fhir.kbv.de/StructureDefinition/KBV_PR_ERP_Bundle|1.1.0" ]
      },
      "identifier" : {
        "system" : "https://gematik.de/fhir/erp/NamingSystem/GEM_ERP_NS_PrescriptionId",
        "value" : "160.000.006.420.698.29"
      },
      "type" : "document",
      "timestamp" : "2023-11-27T08:26:10.110+01:00",
      "entry" : [ {
        "fullUrl" : "https://pvs.gematik.de/fhir/Composition/9352927b-91e0-4f66-896a-c8439bb73406",
        "resource" : {
          "resourceType" : "Composition",
          "id" : "9352927b-91e0-4f66-896a-c8439bb73406",
          "meta" : {
            "profile" : [ "https://fhir.kbv.de/StructureDefinition/KBV_PR_ERP_Composition|1.1.0" ]
          },
          "extension" : [ {
            "url" : "https://fhir.kbv.de/StructureDefinition/KBV_EX_FOR_Legal_basis",
            "valueCoding" : {
              "system" : "https://fhir.kbv.de/CodeSystem/KBV_CS_SFHIR_KBV_STATUSKENNZEICHEN",
              "code" : "00"
            }
          } ],
          "status" : "final",
          "type" : {
            "coding" : [ {
              "system" : "https://fhir.kbv.de/CodeSystem/KBV_CS_SFHIR_KBV_FORMULAR_ART",
              "code" : "e16A"
            } ]
          },
          "subject" : {
            "reference" : "Patient/d447c9f0-85d2-4fc0-9f76-b0260fab7eb6"
          },
          "date" : "2023-11-27T08:26:10+01:00",
          "author" : [ {
            "reference" : "Practitioner/e4d309d6-28d4-4ae4-952b-382618835385",
            "type" : "Practitioner"
          }, {
            "type" : "Device",
            "identifier" : {
              "system" : "https://fhir.kbv.de/NamingSystem/KBV_NS_FOR_Pruefnummer",
              "value" : "GEMATIK/410/2109/36/123"
            }
          } ],
          "title" : "elektronische Arzneimittelverordnung",
          "custodian" : {
            "reference" : "Organization/52621126-a279-4b18-bf34-f35fa759810a"
          },
          "section" : [ {
            "code" : {
              "coding" : [ {
                "system" : "https://fhir.kbv.de/CodeSystem/KBV_CS_ERP_Section_Type",
                "code" : "Coverage"
              } ]
            },
            "entry" : [ {
              "reference" : "Coverage/b2956812-a67e-4166-898c-1966a2fc1fd5"
            } ]
          }, {
            "code" : {
              "coding" : [ {
                "system" : "https://fhir.kbv.de/CodeSystem/KBV_CS_ERP_Section_Type",
                "code" : "Prescription"
              } ]
            },
            "entry" : [ {
              "reference" : "MedicationRequest/0334f4b2-98db-4e1c-be82-8f5864c050d0"
            } ]
          } ]
        }
      }, {
        "fullUrl" : "https://pvs.gematik.de/fhir/Medication/e60aca3a-d89c-405f-8f62-9e797c6618ef",
        "resource" : {
          "resourceType" : "Medication",
          "id" : "e60aca3a-d89c-405f-8f62-9e797c6618ef",
          "meta" : {
            "profile" : [ "https://fhir.kbv.de/StructureDefinition/KBV_PR_ERP_Medication_PZN|1.1.0" ]
          },
          "extension" : [ {
            "url" : "https://fhir.kbv.de/StructureDefinition/KBV_EX_Base_Medication_Type",
            "valueCodeableConcept" : {
              "coding" : [ {
                "system" : "http://snomed.info/sct",
                "version" : "http://snomed.info/sct/900000000000207008/version/20220331",
                "code" : "763158003",
                "display" : "Medicinal product (product)"
              } ]
            }
          }, {
            "url" : "https://fhir.kbv.de/StructureDefinition/KBV_EX_ERP_Medication_Category",
            "valueCoding" : {
              "system" : "https://fhir.kbv.de/CodeSystem/KBV_CS_ERP_Medication_Category",
              "code" : "00"
            }
          }, {
            "url" : "https://fhir.kbv.de/StructureDefinition/KBV_EX_ERP_Medication_Vaccine",
            "valueBoolean" : false
          }, {
            "url" : "http://fhir.de/StructureDefinition/normgroesse",
            "valueCode" : "NB"
          } ],
          "code" : {
            "coding" : [ {
              "system" : "http://fhir.de/CodeSystem/ifa/pzn",
              "code" : "12345678"
            } ],
            "text" : "Schmerzmittel"
          },
          "form" : {
            "coding" : [ {
              "system" : "https://fhir.kbv.de/CodeSystem/KBV_CS_SFHIR_KBV_DARREICHUNGSFORM",
              "code" : "TAB"
            } ]
          },
          "amount" : {
            "numerator" : {
              "extension" : [ {
                "url" : "https://fhir.kbv.de/StructureDefinition/KBV_EX_ERP_Medication_PackagingSize",
                "valueString" : "1"
              } ],
              "unit" : "Stk"
            },
            "denominator" : {
              "value" : 1
            }
          }
        }
      }, {
        "fullUrl" : "https://pvs.gematik.de/fhir/Patient/d447c9f0-85d2-4fc0-9f76-b0260fab7eb6",
        "resource" : {
          "resourceType" : "Patient",
          "id" : "d447c9f0-85d2-4fc0-9f76-b0260fab7eb6",
          "meta" : {
            "profile" : [ "https://fhir.kbv.de/StructureDefinition/KBV_PR_FOR_Patient|1.1.0" ]
          },
          "identifier" : [ {
            "type" : {
              "coding" : [ {
                "system" : "http://fhir.de/CodeSystem/identifier-type-de-basis",
                "code" : "GKV"
              } ]
            },
            "system" : "http://fhir.de/sid/gkv/kvid-10",
            "value" : "X110498565"
          } ],
          "name" : [ {
            "use" : "official",
            "family" : "Hüllmann",
            "_family" : {
              "extension" : [ {
                "url" : "http://hl7.org/fhir/StructureDefinition/humanname-own-name",
                "valueString" : "Hüllmann"
              } ]
            },
            "given" : [ "Sina" ]
          } ],
          "birthDate" : "1984-10-15",
          "address" : [ {
            "type" : "both",
            "line" : [ "Stephan-Lochner-Str. 98b" ],
            "_line" : [ {
              "extension" : [ {
                "url" : "http://hl7.org/fhir/StructureDefinition/iso21090-ADXP-houseNumber",
                "valueString" : "98b"
              }, {
                "url" : "http://hl7.org/fhir/StructureDefinition/iso21090-ADXP-streetName",
                "valueString" : "Stephan-Lochner-Str."
              } ]
            } ],
            "city" : "Hansenhagen",
            "postalCode" : "76533",
            "country" : "D"
          } ]
        }
      }, {
        "fullUrl" : "https://pvs.gematik.de/fhir/Organization/52621126-a279-4b18-bf34-f35fa759810a",
        "resource" : {
          "resourceType" : "Organization",
          "id" : "52621126-a279-4b18-bf34-f35fa759810a",
          "meta" : {
            "profile" : [ "https://fhir.kbv.de/StructureDefinition/KBV_PR_FOR_Organization|1.1.0" ]
          },
          "identifier" : [ {
            "type" : {
              "coding" : [ {
                "system" : "http://terminology.hl7.org/CodeSystem/v2-0203",
                "code" : "BSNR"
              } ]
            },
            "system" : "https://fhir.kbv.de/NamingSystem/KBV_NS_Base_BSNR",
            "value" : "515597722"
          } ],
          "name" : "Arztpraxis Schraßer",
          "telecom" : [ {
            "system" : "phone",
            "value" : "+49-4870-71067255"
          }, {
            "system" : "email",
            "value" : "lisanne.nastvogel@lott.name"
          } ],
          "address" : [ {
            "type" : "both",
            "line" : [ "Feldsiefer Weg 8" ],
            "_line" : [ {
              "extension" : [ {
                "url" : "http://hl7.org/fhir/StructureDefinition/iso21090-ADXP-houseNumber",
                "valueString" : "8"
              }, {
                "url" : "http://hl7.org/fhir/StructureDefinition/iso21090-ADXP-streetName",
                "valueString" : "Feldsiefer Weg"
              } ]
            } ],
            "city" : "Beushausenbrunn",
            "postalCode" : "78712",
            "country" : "D"
          } ]
        }
      }, {
        "fullUrl" : "https://pvs.gematik.de/fhir/Coverage/b2956812-a67e-4166-898c-1966a2fc1fd5",
        "resource" : {
          "resourceType" : "Coverage",
          "id" : "b2956812-a67e-4166-898c-1966a2fc1fd5",
          "meta" : {
            "profile" : [ "https://fhir.kbv.de/StructureDefinition/KBV_PR_FOR_Coverage|1.1.0" ]
          },
          "extension" : [ {
            "url" : "http://fhir.de/StructureDefinition/gkv/besondere-personengruppe",
            "valueCoding" : {
              "system" : "https://fhir.kbv.de/CodeSystem/KBV_CS_SFHIR_KBV_PERSONENGRUPPE",
              "code" : "00"
            }
          }, {
            "url" : "http://fhir.de/StructureDefinition/gkv/dmp-kennzeichen",
            "valueCoding" : {
              "system" : "https://fhir.kbv.de/CodeSystem/KBV_CS_SFHIR_KBV_DMP",
              "code" : "00"
            }
          }, {
            "url" : "http://fhir.de/StructureDefinition/gkv/wop",
            "valueCoding" : {
              "system" : "https://fhir.kbv.de/CodeSystem/KBV_CS_SFHIR_ITA_WOP",
              "code" : "71"
            }
          }, {
            "url" : "http://fhir.de/StructureDefinition/gkv/versichertenart",
            "valueCoding" : {
              "system" : "https://fhir.kbv.de/CodeSystem/KBV_CS_SFHIR_KBV_VERSICHERTENSTATUS",
              "code" : "1"
            }
          } ],
          "status" : "active",
          "type" : {
            "coding" : [ {
              "system" : "http://fhir.de/CodeSystem/versicherungsart-de-basis",
              "code" : "GKV"
            } ]
          },
          "beneficiary" : {
            "reference" : "Patient/11992c36-af06-47f9-b0df-2ceeb6224eaa"
          },
          "payor" : [ {
            "identifier" : {
              "system" : "http://fhir.de/sid/arge-ik/iknr",
              "value" : "101202961"
            },
            "display" : "IKK gesund plus"
          } ]
        }
      }, {
        "fullUrl" : "https://pvs.gematik.de/fhir/Practitioner/e4d309d6-28d4-4ae4-952b-382618835385",
        "resource" : {
          "resourceType" : "Practitioner",
          "id" : "e4d309d6-28d4-4ae4-952b-382618835385",
          "meta" : {
            "profile" : [ "https://fhir.kbv.de/StructureDefinition/KBV_PR_FOR_Practitioner|1.1.0" ]
          },
          "identifier" : [ {
            "type" : {
              "coding" : [ {
                "system" : "http://terminology.hl7.org/CodeSystem/v2-0203",
                "code" : "LANR"
              } ]
            },
            "system" : "https://fhir.kbv.de/NamingSystem/KBV_NS_Base_ANR",
            "value" : "252329310"
          } ],
          "name" : [ {
            "use" : "official",
            "family" : "Schraßer",
            "_family" : {
              "extension" : [ {
                "url" : "http://hl7.org/fhir/StructureDefinition/humanname-own-name",
                "valueString" : "Schraßer"
              } ]
            },
            "given" : [ "Dr." ],
            "prefix" : [ "Dr." ],
            "_prefix" : [ {
              "extension" : [ {
                "url" : "http://hl7.org/fhir/StructureDefinition/iso21090-EN-qualifier",
                "valueCode" : "AC"
              } ]
            } ]
          } ],
          "qualification" : [ {
            "code" : {
              "coding" : [ {
                "system" : "https://fhir.kbv.de/CodeSystem/KBV_CS_FOR_Qualification_Type",
                "code" : "00"
              } ]
            }
          }, {
            "code" : {
              "coding" : [ {
                "system" : "https://fhir.kbv.de/CodeSystem/KBV_CS_FOR_Berufsbezeichnung",
                "code" : "Berufsbezeichnung"
              } ],
              "text" : "Super-Facharzt für alles Mögliche"
            }
          } ]
        }
      }, {
        "fullUrl" : "https://pvs.gematik.de/fhir/MedicationRequest/0334f4b2-98db-4e1c-be82-8f5864c050d0",
        "resource" : {
          "resourceType" : "MedicationRequest",
          "id" : "0334f4b2-98db-4e1c-be82-8f5864c050d0",
          "meta" : {
            "profile" : [ "https://fhir.kbv.de/StructureDefinition/KBV_PR_ERP_Prescription|1.1.0" ]
          },
          "extension" : [ {
            "url" : "https://fhir.kbv.de/StructureDefinition/KBV_EX_ERP_BVG",
            "valueBoolean" : false
          }, {
            "url" : "https://fhir.kbv.de/StructureDefinition/KBV_EX_ERP_EmergencyServicesFee",
            "valueBoolean" : false
          }, {
            "url" : "https://fhir.kbv.de/StructureDefinition/KBV_EX_ERP_Multiple_Prescription",
            "extension" : [ {
              "url" : "Kennzeichen",
              "valueBoolean" : false
            } ]
          }, {
            "url" : "https://fhir.kbv.de/StructureDefinition/KBV_EX_FOR_StatusCoPayment",
            "valueCoding" : {
              "system" : "https://fhir.kbv.de/CodeSystem/KBV_CS_FOR_StatusCoPayment",
              "code" : "0"
            }
          } ],
          "status" : "active",
          "intent" : "order",
          "medicationReference" : {
            "reference" : "Medication/e60aca3a-d89c-405f-8f62-9e797c6618ef"
          },
          "subject" : {
            "reference" : "Patient/d447c9f0-85d2-4fc0-9f76-b0260fab7eb6"
          },
          "authoredOn" : "2023-11-27",
          "requester" : {
            "reference" : "Practitioner/e4d309d6-28d4-4ae4-952b-382618835385"
          },
          "insurance" : [ {
            "reference" : "Coverage/b2956812-a67e-4166-898c-1966a2fc1fd5"
          } ],
          "dosageInstruction" : [ {
            "extension" : [ {
              "url" : "https://fhir.kbv.de/StructureDefinition/KBV_EX_ERP_DosageFlag",
              "valueBoolean" : true
            } ],
            "text" : "1-3-0-2-3-0"
          } ],
          "dispenseRequest" : {
            "quantity" : {
              "value" : 1,
              "system" : "http://unitsofmeasure.org",
              "code" : "{Package}"
            }
          },
          "substitution" : {
            "allowedBoolean" : false
          }
        }
      } ],
      "signature" : {
        "type" : [ {
          "system" : "urn:iso-astm:E1762-95:2013",
          "code" : "1.2.840.10065.1.12.1.5"
        } ],
        "when" : "2023-11-27T07:26:13.280+00:00",
        "who" : {
          "reference" : "https://erp-test.zentral.erp.splitdns.ti-dienste.de/Device/1"
        },
        "targetFormat" : "application/fhir+json",
        "sigFormat" : "application/jose",
        "data" : ""
      }
    }
  } ]
}