{
  "resourceType": "Parameters",
  "id": "b7d728eb-4a51-4e9d-95cd-6d567825bf37",
  "meta": {
    "profile": [ "https://gematik.de/fhir/epa-medication/StructureDefinition/epa-op-provide-dispensation-erp-input-parameters|1.0.3" ]
  },
  "parameter": [ {
    "name": "rxDispensation",
    "part": [ {
      "name": "prescriptionId",
      "valueIdentifier": {
        "system": "https://gematik.de/fhir/erp/NamingSystem/GEM_ERP_NS_PrescriptionId",
        "value": "200.000.002.096.549.98"
      }
    }, {
      "name": "authoredOn",
      "valueDate": "1970-01-01"
    }, {
      "name": "medicationDispense",
      "resource": {
        "resourceType": "MedicationDispense",
        "id": "08452f8f-4d33-462d-b3ea-d17488d46d8a",
        "meta": {
          "profile": [ "https://gematik.de/fhir/epa-medication/StructureDefinition/epa-medication-dispense|1.0.3" ]
        },
        "identifier": [ {
          "system": "https://gematik.de/fhir/epa-medication/sid/rx-originator-process-identifier",
          "value": "efe8874f-6c9f-487c-b820-d8100209f56a_200.000.002.096.549.98"
        } ],
        "status": "completed",
        "category": {
          "coding": [ {
            "system": "https://gematik.de/fhir/epa-medication/CodeSystem/EPAMedicationDispenseCategoryCS",
            "code": "prescription",
            "display": "prescription dispense"
          } ]
        },
        "medicationReference": {
          "reference": "Medication/70f4c3de-f5d1-44ff-9a7f-a926abee2cb0"
        },
        "subject": {
          "identifier": {
            "system": "http://fhir.de/sid/gkv/kvid-10",
            "value": "X110465770"
          }
        },
        "performer": [ {
          "actor": {
            "reference": "Organization/52b0a60d-3583-4733-8ba2-128000709bf0"
          }
        } ],
        "whenHandedOver": "2024-02-08"
      }
    }, {
      "name": "medication",
      "resource": {
        "resourceType": "Medication",
        "id": "70f4c3de-f5d1-44ff-9a7f-a926abee2cb0",
        "meta": {
          "profile": [ "https://gematik.de/fhir/epa-medication/StructureDefinition/epa-medication|1.0.3" ]
        },
        "extension": [ {
          "url": "https://gematik.de/fhir/epa-medication/StructureDefinition/drug-category-extension",
          "valueCoding": {
            "system": "https://gematik.de/fhir/epa-medication/CodeSystem/epa-drug-category-cs",
            "code": "00"
          }
        }, {
          "url": "https://gematik.de/fhir/epa-medication/StructureDefinition/medication-id-vaccine-extension",
          "valueBoolean": false
        }, {
          "url": "http://fhir.de/StructureDefinition/normgroesse",
          "valueCode": "NB"
        } ],
        "code": {
          "coding": [ {
            "system": "http://fhir.de/CodeSystem/ifa/pzn",
            "code": "10642981"
          } ],
          "text": "Schmerzmittel"
        },
        "form": {
          "coding": [ {
            "system": "https://fhir.kbv.de/CodeSystem/KBV_CS_SFHIR_KBV_DARREICHUNGSFORM",
            "code": "TAB"
          } ]
        },
        "amount": {
          "numerator": {
            "extension": [ {
              "url": "https://gematik.de/fhir/epa-medication/StructureDefinition/medication-packaging-size-extension",
              "valueString": "1"
            } ],
            "unit": "Stk"
          },
          "denominator": {
            "value": 1
          }
        }
      }
    }, {
      "name": "organization",
      "resource": {
        "resourceType": "Organization",
        "id": "52b0a60d-3583-4733-8ba2-128000709bf0",
        "meta": {
          "profile": [ "https://gematik.de/fhir/directory/StructureDefinition/OrganizationDirectory|0.11.12" ],
          "tag": [ {
            "system": "https://gematik.de/fhir/directory/CodeSystem/Origin",
            "code": "ldap"
          } ]
        },
        "identifier": [ {
          "system": "https://gematik.de/fhir/sid/telematik-id",
          "value": "3-SMC-B-Testkarte-883110000116873"
        } ],
        "type": [ {
          "coding": [ {
            "system": "https://gematik.de/fhir/directory/CodeSystem/OrganizationProfessionOID",
            "code": "1.2.276.0.76.4.58"
          } ]
        } ],
        "name": "I. Pullem"
      }
    } ]
  } ]
}