<Bundle xmlns="http://hl7.org/fhir">
   <meta>
      <profile value="https://gematik.de/fhir/erp/StructureDefinition/GEM_ERP_PR_CloseOperationInputBundle|1.2"/>
   </meta>
   <type value="collection"/>
   <entry>
      <fullUrl value="MedicationDispense/52fb229f-ded8-4ef8-a9f3-aeda179ebdb6"/>
      <resource>
         <MedicationDispense xmlns="http://hl7.org/fhir">
            <id value="52fb229f-ded8-4ef8-a9f3-aeda179ebdb6"/>
            <meta>
               <profile value="https://gematik.de/fhir/erp/StructureDefinition/GEM_ERP_PR_MedicationDispense|1.2"/>
            </meta>
            <contained>
               <Medication xmlns="http://hl7.org/fhir">
                  <id value="4aa032be-4d50-44b2-bd84-0b8ca5446cb2"/>
                  <meta>
                     <profile value="https://fhir.kbv.de/StructureDefinition/KBV_PR_ERP_Medication_PZN|1.1.0"/>
                  </meta>
                  <extension url="https://fhir.kbv.de/StructureDefinition/KBV_EX_Base_Medication_Type">
                     <valueCodeableConcept>
                        <coding>
                           <system value="http://snomed.info/sct"/>
                           <version value="http://snomed.info/sct/900000000000207008/version/20220331"/>
                           <code value="763158003"/>
                           <display value="Medicinal product (product)"/>
                        </coding>
                     </valueCodeableConcept>
                  </extension>
                  <extension url="https://fhir.kbv.de/StructureDefinition/KBV_EX_ERP_Medication_Category">
                     <valueCoding>
                        <system value="https://fhir.kbv.de/CodeSystem/KBV_CS_ERP_Medication_Category"/>
                        <code value="02"/>
                     </valueCoding>
                  </extension>
                  <extension url="https://fhir.kbv.de/StructureDefinition/KBV_EX_ERP_Medication_Vaccine">
                     <valueBoolean value="false"/>
                  </extension>
                  <extension url="http://fhir.de/StructureDefinition/normgroesse">
                     <valueCode value="N1"/>
                  </extension>
                  <code>
                     <coding>
                        <system value="http://fhir.de/CodeSystem/ifa/pzn"/>
                        <code value="04100230"/>
                     </coding>
                     <text value="IBUFLAM akut"/>
                  </code>
                  <form>
                     <coding>
                        <system value="https://fhir.kbv.de/CodeSystem/KBV_CS_SFHIR_KBV_DARREICHUNGSFORM"/>
                        <code value="FTA"/>
                     </coding>
                  </form>
                  <amount>
                     <numerator>
                        <extension url="https://fhir.kbv.de/StructureDefinition/KBV_EX_ERP_Medication_PackagingSize">
                           <valueString value="10"/>
                        </extension>
                        <unit value="Stk"/>
                     </numerator>
                     <denominator>
                        <value value="1"/>
                     </denominator>
                  </amount>
                  <batch>
                     <lotNumber value="7296263600"/>
                     <expirationDate value="2023-12-22T13:54:32+01:00"/>
                  </batch>
               </Medication>
            </contained>
            <identifier>
               <system value="https://gematik.de/fhir/erp/NamingSystem/GEM_ERP_NS_PrescriptionId"/>
               <value value="160.000.006.420.728.36"/>
            </identifier>
            <status value="completed"/>
            <medicationReference>
               <reference value="#4aa032be-4d50-44b2-bd84-0b8ca5446cb2"/>
            </medicationReference>
            <subject>
               <identifier>
                  <system value="http://fhir.de/sid/gkv/kvid-10"/>
                  <value value="X110498565"/>
               </identifier>
            </subject>
            <performer>
               <actor>
                  <identifier>
                     <system value="https://gematik.de/fhir/sid/telematik-id"/>
                     <value value="3-SMC-B-Testkarte-883110000116873"/>
                  </identifier>
               </actor>
            </performer>
            <whenHandedOver value="2023-11-27"/>
         </MedicationDispense>
      </resource>
   </entry>
   <entry>
      <fullUrl value="MedicationDispense/f755ef79-f093-4df6-a68b-925df605d6c0"/>
      <resource>
         <MedicationDispense xmlns="http://hl7.org/fhir">
            <id value="f755ef79-f093-4df6-a68b-925df605d6c0"/>
            <meta>
               <profile value="https://gematik.de/fhir/erp/StructureDefinition/GEM_ERP_PR_MedicationDispense|1.2"/>
            </meta>
            <contained>
               <Medication xmlns="http://hl7.org/fhir">
                  <id value="86c07320-9d12-4345-8492-ce83c1ba90cb"/>
                  <meta>
                     <profile value="https://fhir.kbv.de/StructureDefinition/KBV_PR_ERP_Medication_PZN|1.1.0"/>
                  </meta>
                  <extension url="https://fhir.kbv.de/StructureDefinition/KBV_EX_Base_Medication_Type">
                     <valueCodeableConcept>
                        <coding>
                           <system value="http://snomed.info/sct"/>
                           <version value="http://snomed.info/sct/900000000000207008/version/20220331"/>
                           <code value="763158003"/>
                           <display value="Medicinal product (product)"/>
                        </coding>
                     </valueCodeableConcept>
                  </extension>
                  <extension url="https://fhir.kbv.de/StructureDefinition/KBV_EX_ERP_Medication_Category">
                     <valueCoding>
                        <system value="https://fhir.kbv.de/CodeSystem/KBV_CS_ERP_Medication_Category"/>
                        <code value="01"/>
                     </valueCoding>
                  </extension>
                  <extension url="https://fhir.kbv.de/StructureDefinition/KBV_EX_ERP_Medication_Vaccine">
                     <valueBoolean value="false"/>
                  </extension>
                  <extension url="http://fhir.de/StructureDefinition/normgroesse">
                     <valueCode value="N2"/>
                  </extension>
                  <code>
                     <coding>
                        <system value="http://fhir.de/CodeSystem/ifa/pzn"/>
                        <code value="04100218"/>
                     </coding>
                     <text value="IBUFLAM akut"/>
                  </code>
                  <form>
                     <coding>
                        <system value="https://fhir.kbv.de/CodeSystem/KBV_CS_SFHIR_KBV_DARREICHUNGSFORM"/>
                        <code value="FTA"/>
                     </coding>
                  </form>
                  <amount>
                     <numerator>
                        <extension url="https://fhir.kbv.de/StructureDefinition/KBV_EX_ERP_Medication_PackagingSize">
                           <valueString value="20"/>
                        </extension>
                        <unit value="Stk"/>
                     </numerator>
                     <denominator>
                        <value value="1"/>
                     </denominator>
                  </amount>
                  <batch>
                     <lotNumber value="5407276723"/>
                     <expirationDate value="2023-12-19T01:19:50+01:00"/>
                  </batch>
               </Medication>
            </contained>
            <identifier>
               <system value="https://gematik.de/fhir/erp/NamingSystem/GEM_ERP_NS_PrescriptionId"/>
               <value value="160.000.006.420.728.36"/>
            </identifier>
            <status value="completed"/>
            <medicationReference>
               <reference value="#86c07320-9d12-4345-8492-ce83c1ba90cb"/>
            </medicationReference>
            <subject>
               <identifier>
                  <system value="http://fhir.de/sid/gkv/kvid-10"/>
                  <value value="X110498565"/>
               </identifier>
            </subject>
            <performer>
               <actor>
                  <identifier>
                     <system value="https://gematik.de/fhir/sid/telematik-id"/>
                     <value value="3-SMC-B-Testkarte-883110000116873"/>
                  </identifier>
               </actor>
            </performer>
            <whenHandedOver value="2023-11-27"/>
         </MedicationDispense>
      </resource>
   </entry>
   <entry>
      <fullUrl value="MedicationDispense/6a0473cd-20f0-4f5a-83aa-bf9aa7754982"/>
      <resource>
         <MedicationDispense xmlns="http://hl7.org/fhir">
            <id value="6a0473cd-20f0-4f5a-83aa-bf9aa7754982"/>
            <meta>
               <profile value="https://gematik.de/fhir/erp/StructureDefinition/GEM_ERP_PR_MedicationDispense|1.2"/>
            </meta>
            <contained>
               <Medication xmlns="http://hl7.org/fhir">
                  <id value="0f60cdb7-f5b1-43e3-bb0f-fe6c073f49c7"/>
                  <meta>
                     <profile value="https://fhir.kbv.de/StructureDefinition/KBV_PR_ERP_Medication_PZN|1.1.0"/>
                  </meta>
                  <extension url="https://fhir.kbv.de/StructureDefinition/KBV_EX_Base_Medication_Type">
                     <valueCodeableConcept>
                        <coding>
                           <system value="http://snomed.info/sct"/>
                           <version value="http://snomed.info/sct/900000000000207008/version/20220331"/>
                           <code value="763158003"/>
                           <display value="Medicinal product (product)"/>
                        </coding>
                     </valueCodeableConcept>
                  </extension>
                  <extension url="https://fhir.kbv.de/StructureDefinition/KBV_EX_ERP_Medication_Category">
                     <valueCoding>
                        <system value="https://fhir.kbv.de/CodeSystem/KBV_CS_ERP_Medication_Category"/>
                        <code value="00"/>
                     </valueCoding>
                  </extension>
                  <extension url="https://fhir.kbv.de/StructureDefinition/KBV_EX_ERP_Medication_Vaccine">
                     <valueBoolean value="false"/>
                  </extension>
                  <extension url="http://fhir.de/StructureDefinition/normgroesse">
                     <valueCode value="N2"/>
                  </extension>
                  <code>
                     <coding>
                        <system value="http://fhir.de/CodeSystem/ifa/pzn"/>
                        <code value="04100218"/>
                     </coding>
                     <text value="IBUFLAM akut"/>
                  </code>
                  <form>
                     <coding>
                        <system value="https://fhir.kbv.de/CodeSystem/KBV_CS_SFHIR_KBV_DARREICHUNGSFORM"/>
                        <code value="FTA"/>
                     </coding>
                  </form>
                  <amount>
                     <numerator>
                        <extension url="https://fhir.kbv.de/StructureDefinition/KBV_EX_ERP_Medication_PackagingSize">
                           <valueString value="20"/>
                        </extension>
                        <unit value="Stk"/>
                     </numerator>
                     <denominator>
                        <value value="1"/>
                     </denominator>
                  </amount>
                  <batch>
                     <lotNumber value="7731850635"/>
                     <expirationDate value="2023-12-22T21:24:24+01:00"/>
                  </batch>
               </Medication>
            </contained>
            <identifier>
               <system value="https://gematik.de/fhir/erp/NamingSystem/GEM_ERP_NS_PrescriptionId"/>
               <value value="160.000.006.420.728.36"/>
            </identifier>
            <status value="completed"/>
            <medicationReference>
               <reference value="#0f60cdb7-f5b1-43e3-bb0f-fe6c073f49c7"/>
            </medicationReference>
            <subject>
               <identifier>
                  <system value="http://fhir.de/sid/gkv/kvid-10"/>
                  <value value="X110498565"/>
               </identifier>
            </subject>
            <performer>
               <actor>
                  <identifier>
                     <system value="https://gematik.de/fhir/sid/telematik-id"/>
                     <value value="3-SMC-B-Testkarte-883110000116873"/>
                  </identifier>
               </actor>
            </performer>
            <whenHandedOver value="2023-11-27"/>
         </MedicationDispense>
      </resource>
   </entry>
</Bundle>