<Bundle xmlns="http://hl7.org/fhir">
   <meta>
      <profile value="https://gematik.de/fhir/erp/StructureDefinition/GEM_ERP_PR_CloseOperationInputBundle|1.2"/>
   </meta>
   <type value="collection"/>
   <entry>
      <fullUrl value="MedicationDispense/bd2fc428-c198-4254-8d7c-758de1e10076"/>
      <resource>
         <MedicationDispense xmlns="http://hl7.org/fhir">
            <id value="bd2fc428-c198-4254-8d7c-758de1e10076"/>
            <meta>
               <profile value="https://gematik.de/fhir/erp/StructureDefinition/GEM_ERP_PR_MedicationDispense|1.2"/>
            </meta>
            <contained>
               <Medication xmlns="http://hl7.org/fhir">
                  <id value="fb0699b9-121e-41d1-826e-a4a0072ad0b4"/>
                  <meta>
                     <profile value="https://fhir.kbv.de/StructureDefinition/KBV_PR_ERP_Medication_PZN|1.1.0"/>
                  </meta>
                  <extension url="https://fhir.kbv.de/StructureDefinition/KBV_EX_Base_Medication_Type">
                     <valueCodeableConcept>
                        <coding>
                           <system value="http://snomed.info/sct"/>
                           <version value="http://snomed.info/sct/900000000000207008/version/20220331"/>
                           <code value="763158003"/>
                           <display value="Medicinal product (product)"/>
                        </coding>
                     </valueCodeableConcept>
                  </extension>
                  <extension url="https://fhir.kbv.de/StructureDefinition/KBV_EX_ERP_Medication_Category">
                     <valueCoding>
                        <system value="https://fhir.kbv.de/CodeSystem/KBV_CS_ERP_Medication_Category"/>
                        <code value="01"/>
                     </valueCoding>
                  </extension>
                  <extension url="https://fhir.kbv.de/StructureDefinition/KBV_EX_ERP_Medication_Vaccine">
                     <valueBoolean value="false"/>
                  </extension>
                  <extension url="http://fhir.de/StructureDefinition/normgroesse">
                     <valueCode value="N1"/>
                  </extension>
                  <code>
                     <coding>
                        <system value="http://fhir.de/CodeSystem/ifa/pzn"/>
                        <code value="04100230"/>
                     </coding>
                     <text value="IBUFLAM akut"/>
                  </code>
                  <form>
                     <coding>
                        <system value="https://fhir.kbv.de/CodeSystem/KBV_CS_SFHIR_KBV_DARREICHUNGSFORM"/>
                        <code value="FTA"/>
                     </coding>
                  </form>
                  <amount>
                     <numerator>
                        <extension url="https://fhir.kbv.de/StructureDefinition/KBV_EX_ERP_Medication_PackagingSize">
                           <valueString value="10"/>
                        </extension>
                        <unit value="Stk"/>
                     </numerator>
                     <denominator>
                        <value value="1"/>
                     </denominator>
                  </amount>
                  <batch>
                     <lotNumber value="8520897878"/>
                     <expirationDate value="2024-02-21T10:05:01+01:00"/>
                  </batch>
               </Medication>
            </contained>
            <identifier>
               <system value="https://gematik.de/fhir/erp/NamingSystem/GEM_ERP_NS_PrescriptionId"/>
               <value value="160.000.226.119.777.41"/>
            </identifier>
            <status value="completed"/>
            <medicationReference>
               <reference value="#fb0699b9-121e-41d1-826e-a4a0072ad0b4"/>
            </medicationReference>
            <subject>
               <identifier>
                  <system value="http://fhir.de/sid/gkv/kvid-10"/>
                  <value value="X110498565"/>
               </identifier>
            </subject>
            <performer>
               <actor>
                  <identifier>
                     <system value="https://gematik.de/fhir/sid/telematik-id"/>
                     <value value="3-SMC-B-Testkarte-883110000116873"/>
                  </identifier>
               </actor>
            </performer>
            <whenHandedOver value="2024-02-08"/>
         </MedicationDispense>
      </resource>
   </entry>
   <entry>
      <fullUrl value="MedicationDispense/0d5bada3-66c1-459f-9bf2-b33b070c1afa"/>
      <resource>
         <MedicationDispense xmlns="http://hl7.org/fhir">
            <id value="0d5bada3-66c1-459f-9bf2-b33b070c1afa"/>
            <meta>
               <profile value="https://gematik.de/fhir/erp/StructureDefinition/GEM_ERP_PR_MedicationDispense|1.2"/>
            </meta>
            <contained>
               <Medication xmlns="http://hl7.org/fhir">
                  <id value="5f6da0f9-bdcb-466f-88a2-06784a3cdd88"/>
                  <meta>
                     <profile value="https://fhir.kbv.de/StructureDefinition/KBV_PR_ERP_Medication_PZN|1.1.0"/>
                  </meta>
                  <extension url="https://fhir.kbv.de/StructureDefinition/KBV_EX_Base_Medication_Type">
                     <valueCodeableConcept>
                        <coding>
                           <system value="http://snomed.info/sct"/>
                           <version value="http://snomed.info/sct/900000000000207008/version/20220331"/>
                           <code value="763158003"/>
                           <display value="Medicinal product (product)"/>
                        </coding>
                     </valueCodeableConcept>
                  </extension>
                  <extension url="https://fhir.kbv.de/StructureDefinition/KBV_EX_ERP_Medication_Category">
                     <valueCoding>
                        <system value="https://fhir.kbv.de/CodeSystem/KBV_CS_ERP_Medication_Category"/>
                        <code value="00"/>
                     </valueCoding>
                  </extension>
                  <extension url="https://fhir.kbv.de/StructureDefinition/KBV_EX_ERP_Medication_Vaccine">
                     <valueBoolean value="false"/>
                  </extension>
                  <extension url="http://fhir.de/StructureDefinition/normgroesse">
                     <valueCode value="N2"/>
                  </extension>
                  <code>
                     <coding>
                        <system value="http://fhir.de/CodeSystem/ifa/pzn"/>
                        <code value="04100218"/>
                     </coding>
                     <text value="IBUFLAM akut"/>
                  </code>
                  <form>
                     <coding>
                        <system value="https://fhir.kbv.de/CodeSystem/KBV_CS_SFHIR_KBV_DARREICHUNGSFORM"/>
                        <code value="FTA"/>
                     </coding>
                  </form>
                  <amount>
                     <numerator>
                        <extension url="https://fhir.kbv.de/StructureDefinition/KBV_EX_ERP_Medication_PackagingSize">
                           <valueString value="20"/>
                        </extension>
                        <unit value="Stk"/>
                     </numerator>
                     <denominator>
                        <value value="1"/>
                     </denominator>
                  </amount>
                  <batch>
                     <lotNumber value="9638369130"/>
                     <expirationDate value="2024-02-29T02:10:14+01:00"/>
                  </batch>
               </Medication>
            </contained>
            <identifier>
               <system value="https://gematik.de/fhir/erp/NamingSystem/GEM_ERP_NS_PrescriptionId"/>
               <value value="160.000.226.119.777.41"/>
            </identifier>
            <status value="completed"/>
            <medicationReference>
               <reference value="#5f6da0f9-bdcb-466f-88a2-06784a3cdd88"/>
            </medicationReference>
            <subject>
               <identifier>
                  <system value="http://fhir.de/sid/gkv/kvid-10"/>
                  <value value="X110498565"/>
               </identifier>
            </subject>
            <performer>
               <actor>
                  <identifier>
                     <system value="https://gematik.de/fhir/sid/telematik-id"/>
                     <value value="3-SMC-B-Testkarte-883110000116873"/>
                  </identifier>
               </actor>
            </performer>
            <whenHandedOver value="2024-02-08"/>
         </MedicationDispense>
      </resource>
   </entry>
   <entry>
      <fullUrl value="MedicationDispense/787246fd-d78e-48be-9849-1d5fbd35f820"/>
      <resource>
         <MedicationDispense xmlns="http://hl7.org/fhir">
            <id value="787246fd-d78e-48be-9849-1d5fbd35f820"/>
            <meta>
               <profile value="https://gematik.de/fhir/erp/StructureDefinition/GEM_ERP_PR_MedicationDispense|1.2"/>
            </meta>
            <contained>
               <Medication xmlns="http://hl7.org/fhir">
                  <id value="fd4e30a5-7eac-488d-8175-c85ad9e918ea"/>
                  <meta>
                     <profile value="https://fhir.kbv.de/StructureDefinition/KBV_PR_ERP_Medication_PZN|1.1.0"/>
                  </meta>
                  <extension url="https://fhir.kbv.de/StructureDefinition/KBV_EX_Base_Medication_Type">
                     <valueCodeableConcept>
                        <coding>
                           <system value="http://snomed.info/sct"/>
                           <version value="http://snomed.info/sct/900000000000207008/version/20220331"/>
                           <code value="763158003"/>
                           <display value="Medicinal product (product)"/>
                        </coding>
                     </valueCodeableConcept>
                  </extension>
                  <extension url="https://fhir.kbv.de/StructureDefinition/KBV_EX_ERP_Medication_Category">
                     <valueCoding>
                        <system value="https://fhir.kbv.de/CodeSystem/KBV_CS_ERP_Medication_Category"/>
                        <code value="02"/>
                     </valueCoding>
                  </extension>
                  <extension url="https://fhir.kbv.de/StructureDefinition/KBV_EX_ERP_Medication_Vaccine">
                     <valueBoolean value="false"/>
                  </extension>
                  <extension url="http://fhir.de/StructureDefinition/normgroesse">
                     <valueCode value="N2"/>
                  </extension>
                  <code>
                     <coding>
                        <system value="http://fhir.de/CodeSystem/ifa/pzn"/>
                        <code value="04100218"/>
                     </coding>
                     <text value="IBUFLAM akut"/>
                  </code>
                  <form>
                     <coding>
                        <system value="https://fhir.kbv.de/CodeSystem/KBV_CS_SFHIR_KBV_DARREICHUNGSFORM"/>
                        <code value="FTA"/>
                     </coding>
                  </form>
                  <amount>
                     <numerator>
                        <extension url="https://fhir.kbv.de/StructureDefinition/KBV_EX_ERP_Medication_PackagingSize">
                           <valueString value="20"/>
                        </extension>
                        <unit value="Stk"/>
                     </numerator>
                     <denominator>
                        <value value="1"/>
                     </denominator>
                  </amount>
                  <batch>
                     <lotNumber value="9482119316"/>
                     <expirationDate value="2024-02-19T03:36:06+01:00"/>
                  </batch>
               </Medication>
            </contained>
            <identifier>
               <system value="https://gematik.de/fhir/erp/NamingSystem/GEM_ERP_NS_PrescriptionId"/>
               <value value="160.000.226.119.777.41"/>
            </identifier>
            <status value="completed"/>
            <medicationReference>
               <reference value="#fd4e30a5-7eac-488d-8175-c85ad9e918ea"/>
            </medicationReference>
            <subject>
               <identifier>
                  <system value="http://fhir.de/sid/gkv/kvid-10"/>
                  <value value="X110498565"/>
               </identifier>
            </subject>
            <performer>
               <actor>
                  <identifier>
                     <system value="https://gematik.de/fhir/sid/telematik-id"/>
                     <value value="3-SMC-B-Testkarte-883110000116873"/>
                  </identifier>
               </actor>
            </performer>
            <whenHandedOver value="2024-02-08"/>
         </MedicationDispense>
      </resource>
   </entry>
</Bundle>