{
  "resourceType" : "Bundle",
  "id" : "5b98e8ab-66fb-4c41-bbc5-774ab35e2c8f",
  "type" : "searchset",
  "timestamp" : "2024-02-08T18:07:22.439+00:00",
  "total" : 0,
  "link" : [ {
    "relation" : "self",
    "url" : "https://erp-ref.zentral.erp.splitdns.ti-dienste.de/MedicationDispense?identifier=160.000.226.119.777.41"
  } ],
  "entry" : [ {
    "fullUrl" : "https://erp-ref.zentral.erp.splitdns.ti-dienste.de/MedicationDispense/160.000.226.119.777.41",
    "resource" : {
      "resourceType" : "MedicationDispense",
      "id" : "160.000.226.119.777.41",
      "meta" : {
        "profile" : [ "https://gematik.de/fhir/erp/StructureDefinition/GEM_ERP_PR_MedicationDispense|1.2" ]
      },
      "contained" : [ {
        "resourceType" : "Medication",
        "id" : "fb0699b9-121e-41d1-826e-a4a0072ad0b4",
        "meta" : {
          "profile" : [ "https://fhir.kbv.de/StructureDefinition/KBV_PR_ERP_Medication_PZN|1.1.0" ]
        },
        "extension" : [ {
          "url" : "https://fhir.kbv.de/StructureDefinition/KBV_EX_Base_Medication_Type",
          "valueCodeableConcept" : {
            "coding" : [ {
              "system" : "http://snomed.info/sct",
              "version" : "http://snomed.info/sct/900000000000207008/version/20220331",
              "code" : "763158003",
              "display" : "Medicinal product (product)"
            } ]
          }
        }, {
          "url" : "https://fhir.kbv.de/StructureDefinition/KBV_EX_ERP_Medication_Category",
          "valueCoding" : {
            "system" : "https://fhir.kbv.de/CodeSystem/KBV_CS_ERP_Medication_Category",
            "code" : "01"
          }
        }, {
          "url" : "https://fhir.kbv.de/StructureDefinition/KBV_EX_ERP_Medication_Vaccine",
          "valueBoolean" : false
        }, {
          "url" : "http://fhir.de/StructureDefinition/normgroesse",
          "valueCode" : "N1"
        } ],
        "code" : {
          "coding" : [ {
            "system" : "http://fhir.de/CodeSystem/ifa/pzn",
            "code" : "04100230"
          } ],
          "text" : "IBUFLAM akut"
        },
        "form" : {
          "coding" : [ {
            "system" : "https://fhir.kbv.de/CodeSystem/KBV_CS_SFHIR_KBV_DARREICHUNGSFORM",
            "code" : "FTA"
          } ]
        },
        "amount" : {
          "numerator" : {
            "extension" : [ {
              "url" : "https://fhir.kbv.de/StructureDefinition/KBV_EX_ERP_Medication_PackagingSize",
              "valueString" : "10"
            } ],
            "unit" : "Stk"
          },
          "denominator" : {
            "value" : 1
          }
        },
        "batch" : {
          "lotNumber" : "8520897878",
          "expirationDate" : "2024-02-21T10:05:01+01:00"
        }
      } ],
      "identifier" : [ {
        "system" : "https://gematik.de/fhir/erp/NamingSystem/GEM_ERP_NS_PrescriptionId",
        "value" : "160.000.226.119.777.41"
      } ],
      "status" : "completed",
      "medicationReference" : {
        "reference" : "#fb0699b9-121e-41d1-826e-a4a0072ad0b4"
      },
      "subject" : {
        "identifier" : {
          "system" : "http://fhir.de/sid/gkv/kvid-10",
          "value" : "X110498565"
        }
      },
      "performer" : [ {
        "actor" : {
          "identifier" : {
            "system" : "https://gematik.de/fhir/sid/telematik-id",
            "value" : "3-SMC-B-Testkarte-883110000116873"
          }
        }
      } ],
      "whenHandedOver" : "2024-02-08"
    },
    "search" : {
      "mode" : "match"
    }
  }, {
    "fullUrl" : "https://erp-ref.zentral.erp.splitdns.ti-dienste.de/MedicationDispense/160.000.226.119.777.41-1",
    "resource" : {
      "resourceType" : "MedicationDispense",
      "id" : "160.000.226.119.777.41-1",
      "meta" : {
        "profile" : [ "https://gematik.de/fhir/erp/StructureDefinition/GEM_ERP_PR_MedicationDispense|1.2" ]
      },
      "contained" : [ {
        "resourceType" : "Medication",
        "id" : "5f6da0f9-bdcb-466f-88a2-06784a3cdd88",
        "meta" : {
          "profile" : [ "https://fhir.kbv.de/StructureDefinition/KBV_PR_ERP_Medication_PZN|1.1.0" ]
        },
        "extension" : [ {
          "url" : "https://fhir.kbv.de/StructureDefinition/KBV_EX_Base_Medication_Type",
          "valueCodeableConcept" : {
            "coding" : [ {
              "system" : "http://snomed.info/sct",
              "version" : "http://snomed.info/sct/900000000000207008/version/20220331",
              "code" : "763158003",
              "display" : "Medicinal product (product)"
            } ]
          }
        }, {
          "url" : "https://fhir.kbv.de/StructureDefinition/KBV_EX_ERP_Medication_Category",
          "valueCoding" : {
            "system" : "https://fhir.kbv.de/CodeSystem/KBV_CS_ERP_Medication_Category",
            "code" : "00"
          }
        }, {
          "url" : "https://fhir.kbv.de/StructureDefinition/KBV_EX_ERP_Medication_Vaccine",
          "valueBoolean" : false
        }, {
          "url" : "http://fhir.de/StructureDefinition/normgroesse",
          "valueCode" : "N2"
        } ],
        "code" : {
          "coding" : [ {
            "system" : "http://fhir.de/CodeSystem/ifa/pzn",
            "code" : "04100218"
          } ],
          "text" : "IBUFLAM akut"
        },
        "form" : {
          "coding" : [ {
            "system" : "https://fhir.kbv.de/CodeSystem/KBV_CS_SFHIR_KBV_DARREICHUNGSFORM",
            "code" : "FTA"
          } ]
        },
        "amount" : {
          "numerator" : {
            "extension" : [ {
              "url" : "https://fhir.kbv.de/StructureDefinition/KBV_EX_ERP_Medication_PackagingSize",
              "valueString" : "20"
            } ],
            "unit" : "Stk"
          },
          "denominator" : {
            "value" : 1
          }
        },
        "batch" : {
          "lotNumber" : "9638369130",
          "expirationDate" : "2024-02-29T02:10:14+01:00"
        }
      } ],
      "identifier" : [ {
        "system" : "https://gematik.de/fhir/erp/NamingSystem/GEM_ERP_NS_PrescriptionId",
        "value" : "160.000.226.119.777.41"
      } ],
      "status" : "completed",
      "medicationReference" : {
        "reference" : "#5f6da0f9-bdcb-466f-88a2-06784a3cdd88"
      },
      "subject" : {
        "identifier" : {
          "system" : "http://fhir.de/sid/gkv/kvid-10",
          "value" : "X110498565"
        }
      },
      "performer" : [ {
        "actor" : {
          "identifier" : {
            "system" : "https://gematik.de/fhir/sid/telematik-id",
            "value" : "3-SMC-B-Testkarte-883110000116873"
          }
        }
      } ],
      "whenHandedOver" : "2024-02-08"
    },
    "search" : {
      "mode" : "match"
    }
  }, {
    "fullUrl" : "https://erp-ref.zentral.erp.splitdns.ti-dienste.de/MedicationDispense/160.000.226.119.777.41-2",
    "resource" : {
      "resourceType" : "MedicationDispense",
      "id" : "160.000.226.119.777.41-2",
      "meta" : {
        "profile" : [ "https://gematik.de/fhir/erp/StructureDefinition/GEM_ERP_PR_MedicationDispense|1.2" ]
      },
      "contained" : [ {
        "resourceType" : "Medication",
        "id" : "fd4e30a5-7eac-488d-8175-c85ad9e918ea",
        "meta" : {
          "profile" : [ "https://fhir.kbv.de/StructureDefinition/KBV_PR_ERP_Medication_PZN|1.1.0" ]
        },
        "extension" : [ {
          "url" : "https://fhir.kbv.de/StructureDefinition/KBV_EX_Base_Medication_Type",
          "valueCodeableConcept" : {
            "coding" : [ {
              "system" : "http://snomed.info/sct",
              "version" : "http://snomed.info/sct/900000000000207008/version/20220331",
              "code" : "763158003",
              "display" : "Medicinal product (product)"
            } ]
          }
        }, {
          "url" : "https://fhir.kbv.de/StructureDefinition/KBV_EX_ERP_Medication_Category",
          "valueCoding" : {
            "system" : "https://fhir.kbv.de/CodeSystem/KBV_CS_ERP_Medication_Category",
            "code" : "02"
          }
        }, {
          "url" : "https://fhir.kbv.de/StructureDefinition/KBV_EX_ERP_Medication_Vaccine",
          "valueBoolean" : false
        }, {
          "url" : "http://fhir.de/StructureDefinition/normgroesse",
          "valueCode" : "N2"
        } ],
        "code" : {
          "coding" : [ {
            "system" : "http://fhir.de/CodeSystem/ifa/pzn",
            "code" : "04100218"
          } ],
          "text" : "IBUFLAM akut"
        },
        "form" : {
          "coding" : [ {
            "system" : "https://fhir.kbv.de/CodeSystem/KBV_CS_SFHIR_KBV_DARREICHUNGSFORM",
            "code" : "FTA"
          } ]
        },
        "amount" : {
          "numerator" : {
            "extension" : [ {
              "url" : "https://fhir.kbv.de/StructureDefinition/KBV_EX_ERP_Medication_PackagingSize",
              "valueString" : "20"
            } ],
            "unit" : "Stk"
          },
          "denominator" : {
            "value" : 1
          }
        },
        "batch" : {
          "lotNumber" : "9482119316",
          "expirationDate" : "2024-02-19T03:36:06+01:00"
        }
      } ],
      "identifier" : [ {
        "system" : "https://gematik.de/fhir/erp/NamingSystem/GEM_ERP_NS_PrescriptionId",
        "value" : "160.000.226.119.777.41"
      } ],
      "status" : "completed",
      "medicationReference" : {
        "reference" : "#fd4e30a5-7eac-488d-8175-c85ad9e918ea"
      },
      "subject" : {
        "identifier" : {
          "system" : "http://fhir.de/sid/gkv/kvid-10",
          "value" : "X110498565"
        }
      },
      "performer" : [ {
        "actor" : {
          "identifier" : {
            "system" : "https://gematik.de/fhir/sid/telematik-id",
            "value" : "3-SMC-B-Testkarte-883110000116873"
          }
        }
      } ],
      "whenHandedOver" : "2024-02-08"
    },
    "search" : {
      "mode" : "match"
    }
  } ]
}