{
  "resourceType" : "Bundle",
  "id" : "cb8de9e3-5b7f-4392-92f3-4fe1d9ef0c04",
  "type" : "searchset",
  "timestamp" : "2023-11-27T07:29:51.518+00:00",
  "total" : 0,
  "link" : [ {
    "relation" : "self",
    "url" : "https://erp-test.zentral.erp.splitdns.ti-dienste.de/MedicationDispense?identifier=160.000.006.420.728.36"
  } ],
  "entry" : [ {
    "fullUrl" : "https://erp-test.zentral.erp.splitdns.ti-dienste.de/MedicationDispense/160.000.006.420.728.36",
    "resource" : {
      "resourceType" : "MedicationDispense",
      "id" : "160.000.006.420.728.36",
      "meta" : {
        "profile" : [ "https://gematik.de/fhir/erp/StructureDefinition/GEM_ERP_PR_MedicationDispense|1.2" ]
      },
      "contained" : [ {
        "resourceType" : "Medication",
        "id" : "4aa032be-4d50-44b2-bd84-0b8ca5446cb2",
        "meta" : {
          "profile" : [ "https://fhir.kbv.de/StructureDefinition/KBV_PR_ERP_Medication_PZN|1.1.0" ]
        },
        "extension" : [ {
          "url" : "https://fhir.kbv.de/StructureDefinition/KBV_EX_Base_Medication_Type",
          "valueCodeableConcept" : {
            "coding" : [ {
              "system" : "http://snomed.info/sct",
              "version" : "http://snomed.info/sct/900000000000207008/version/20220331",
              "code" : "763158003",
              "display" : "Medicinal product (product)"
            } ]
          }
        }, {
          "url" : "https://fhir.kbv.de/StructureDefinition/KBV_EX_ERP_Medication_Category",
          "valueCoding" : {
            "system" : "https://fhir.kbv.de/CodeSystem/KBV_CS_ERP_Medication_Category",
            "code" : "02"
          }
        }, {
          "url" : "https://fhir.kbv.de/StructureDefinition/KBV_EX_ERP_Medication_Vaccine",
          "valueBoolean" : false
        }, {
          "url" : "http://fhir.de/StructureDefinition/normgroesse",
          "valueCode" : "N1"
        } ],
        "code" : {
          "coding" : [ {
            "system" : "http://fhir.de/CodeSystem/ifa/pzn",
            "code" : "04100230"
          } ],
          "text" : "IBUFLAM akut"
        },
        "form" : {
          "coding" : [ {
            "system" : "https://fhir.kbv.de/CodeSystem/KBV_CS_SFHIR_KBV_DARREICHUNGSFORM",
            "code" : "FTA"
          } ]
        },
        "amount" : {
          "numerator" : {
            "extension" : [ {
              "url" : "https://fhir.kbv.de/StructureDefinition/KBV_EX_ERP_Medication_PackagingSize",
              "valueString" : "10"
            } ],
            "unit" : "Stk"
          },
          "denominator" : {
            "value" : 1
          }
        },
        "batch" : {
          "lotNumber" : "7296263600",
          "expirationDate" : "2023-12-22T13:54:32+01:00"
        }
      } ],
      "identifier" : [ {
        "system" : "https://gematik.de/fhir/erp/NamingSystem/GEM_ERP_NS_PrescriptionId",
        "value" : "160.000.006.420.728.36"
      } ],
      "status" : "completed",
      "medicationReference" : {
        "reference" : "#4aa032be-4d50-44b2-bd84-0b8ca5446cb2"
      },
      "subject" : {
        "identifier" : {
          "system" : "http://fhir.de/sid/gkv/kvid-10",
          "value" : "X110498565"
        }
      },
      "performer" : [ {
        "actor" : {
          "identifier" : {
            "system" : "https://gematik.de/fhir/sid/telematik-id",
            "value" : "3-SMC-B-Testkarte-883110000116873"
          }
        }
      } ],
      "whenHandedOver" : "2023-11-27"
    },
    "search" : {
      "mode" : "match"
    }
  }, {
    "fullUrl" : "https://erp-test.zentral.erp.splitdns.ti-dienste.de/MedicationDispense/160.000.006.420.728.36-1",
    "resource" : {
      "resourceType" : "MedicationDispense",
      "id" : "160.000.006.420.728.36-1",
      "meta" : {
        "profile" : [ "https://gematik.de/fhir/erp/StructureDefinition/GEM_ERP_PR_MedicationDispense|1.2" ]
      },
      "contained" : [ {
        "resourceType" : "Medication",
        "id" : "86c07320-9d12-4345-8492-ce83c1ba90cb",
        "meta" : {
          "profile" : [ "https://fhir.kbv.de/StructureDefinition/KBV_PR_ERP_Medication_PZN|1.1.0" ]
        },
        "extension" : [ {
          "url" : "https://fhir.kbv.de/StructureDefinition/KBV_EX_Base_Medication_Type",
          "valueCodeableConcept" : {
            "coding" : [ {
              "system" : "http://snomed.info/sct",
              "version" : "http://snomed.info/sct/900000000000207008/version/20220331",
              "code" : "763158003",
              "display" : "Medicinal product (product)"
            } ]
          }
        }, {
          "url" : "https://fhir.kbv.de/StructureDefinition/KBV_EX_ERP_Medication_Category",
          "valueCoding" : {
            "system" : "https://fhir.kbv.de/CodeSystem/KBV_CS_ERP_Medication_Category",
            "code" : "01"
          }
        }, {
          "url" : "https://fhir.kbv.de/StructureDefinition/KBV_EX_ERP_Medication_Vaccine",
          "valueBoolean" : false
        }, {
          "url" : "http://fhir.de/StructureDefinition/normgroesse",
          "valueCode" : "N2"
        } ],
        "code" : {
          "coding" : [ {
            "system" : "http://fhir.de/CodeSystem/ifa/pzn",
            "code" : "04100218"
          } ],
          "text" : "IBUFLAM akut"
        },
        "form" : {
          "coding" : [ {
            "system" : "https://fhir.kbv.de/CodeSystem/KBV_CS_SFHIR_KBV_DARREICHUNGSFORM",
            "code" : "FTA"
          } ]
        },
        "amount" : {
          "numerator" : {
            "extension" : [ {
              "url" : "https://fhir.kbv.de/StructureDefinition/KBV_EX_ERP_Medication_PackagingSize",
              "valueString" : "20"
            } ],
            "unit" : "Stk"
          },
          "denominator" : {
            "value" : 1
          }
        },
        "batch" : {
          "lotNumber" : "5407276723",
          "expirationDate" : "2023-12-19T01:19:50+01:00"
        }
      } ],
      "identifier" : [ {
        "system" : "https://gematik.de/fhir/erp/NamingSystem/GEM_ERP_NS_PrescriptionId",
        "value" : "160.000.006.420.728.36"
      } ],
      "status" : "completed",
      "medicationReference" : {
        "reference" : "#86c07320-9d12-4345-8492-ce83c1ba90cb"
      },
      "subject" : {
        "identifier" : {
          "system" : "http://fhir.de/sid/gkv/kvid-10",
          "value" : "X110498565"
        }
      },
      "performer" : [ {
        "actor" : {
          "identifier" : {
            "system" : "https://gematik.de/fhir/sid/telematik-id",
            "value" : "3-SMC-B-Testkarte-883110000116873"
          }
        }
      } ],
      "whenHandedOver" : "2023-11-27"
    },
    "search" : {
      "mode" : "match"
    }
  }, {
    "fullUrl" : "https://erp-test.zentral.erp.splitdns.ti-dienste.de/MedicationDispense/160.000.006.420.728.36-2",
    "resource" : {
      "resourceType" : "MedicationDispense",
      "id" : "160.000.006.420.728.36-2",
      "meta" : {
        "profile" : [ "https://gematik.de/fhir/erp/StructureDefinition/GEM_ERP_PR_MedicationDispense|1.2" ]
      },
      "contained" : [ {
        "resourceType" : "Medication",
        "id" : "0f60cdb7-f5b1-43e3-bb0f-fe6c073f49c7",
        "meta" : {
          "profile" : [ "https://fhir.kbv.de/StructureDefinition/KBV_PR_ERP_Medication_PZN|1.1.0" ]
        },
        "extension" : [ {
          "url" : "https://fhir.kbv.de/StructureDefinition/KBV_EX_Base_Medication_Type",
          "valueCodeableConcept" : {
            "coding" : [ {
              "system" : "http://snomed.info/sct",
              "version" : "http://snomed.info/sct/900000000000207008/version/20220331",
              "code" : "763158003",
              "display" : "Medicinal product (product)"
            } ]
          }
        }, {
          "url" : "https://fhir.kbv.de/StructureDefinition/KBV_EX_ERP_Medication_Category",
          "valueCoding" : {
            "system" : "https://fhir.kbv.de/CodeSystem/KBV_CS_ERP_Medication_Category",
            "code" : "00"
          }
        }, {
          "url" : "https://fhir.kbv.de/StructureDefinition/KBV_EX_ERP_Medication_Vaccine",
          "valueBoolean" : false
        }, {
          "url" : "http://fhir.de/StructureDefinition/normgroesse",
          "valueCode" : "N2"
        } ],
        "code" : {
          "coding" : [ {
            "system" : "http://fhir.de/CodeSystem/ifa/pzn",
            "code" : "04100218"
          } ],
          "text" : "IBUFLAM akut"
        },
        "form" : {
          "coding" : [ {
            "system" : "https://fhir.kbv.de/CodeSystem/KBV_CS_SFHIR_KBV_DARREICHUNGSFORM",
            "code" : "FTA"
          } ]
        },
        "amount" : {
          "numerator" : {
            "extension" : [ {
              "url" : "https://fhir.kbv.de/StructureDefinition/KBV_EX_ERP_Medication_PackagingSize",
              "valueString" : "20"
            } ],
            "unit" : "Stk"
          },
          "denominator" : {
            "value" : 1
          }
        },
        "batch" : {
          "lotNumber" : "7731850635",
          "expirationDate" : "2023-12-22T21:24:24+01:00"
        }
      } ],
      "identifier" : [ {
        "system" : "https://gematik.de/fhir/erp/NamingSystem/GEM_ERP_NS_PrescriptionId",
        "value" : "160.000.006.420.728.36"
      } ],
      "status" : "completed",
      "medicationReference" : {
        "reference" : "#0f60cdb7-f5b1-43e3-bb0f-fe6c073f49c7"
      },
      "subject" : {
        "identifier" : {
          "system" : "http://fhir.de/sid/gkv/kvid-10",
          "value" : "X110498565"
        }
      },
      "performer" : [ {
        "actor" : {
          "identifier" : {
            "system" : "https://gematik.de/fhir/sid/telematik-id",
            "value" : "3-SMC-B-Testkarte-883110000116873"
          }
        }
      } ],
      "whenHandedOver" : "2023-11-27"
    },
    "search" : {
      "mode" : "match"
    }
  } ]
}