{
  "resourceType": "Parameters",
  "id": "d4c91b89-922d-48aa-9bc0-3ad95ed22bad",
  "meta": {
    "profile": [ "https://gematik.de/fhir/epa-medication/StructureDefinition/epa-op-provide-dispensation-erp-input-parameters|1.0.3" ]
  },
  "parameter": [ {
    "name": "rxDispensation",
    "part": [ {
      "name": "prescriptionId",
      "valueIdentifier": {
        "system": "https://gematik.de/fhir/erp/NamingSystem/GEM_ERP_NS_PrescriptionId",
        "value": "160.000.226.119.764.80"
      }
    }, {
      "name": "authoredOn",
      "valueDate": "1970-01-01"
    }, {
      "name": "medicationDispense",
      "resource": {
        "resourceType": "MedicationDispense",
        "id": "8fc97b7d-b718-46a0-a3dc-f7608a652168",
        "meta": {
          "profile": [ "https://gematik.de/fhir/epa-medication/StructureDefinition/epa-medication-dispense|1.0.3" ]
        },
        "identifier": [ {
          "system": "https://gematik.de/fhir/epa-medication/sid/rx-originator-process-identifier",
          "value": "cb5b4379-3542-4ab4-96cb-1f557a8a25d8_160.000.226.119.764.80"
        } ],
        "status": "completed",
        "category": {
          "coding": [ {
            "system": "https://gematik.de/fhir/epa-medication/CodeSystem/EPAMedicationDispenseCategoryCS",
            "code": "prescription",
            "display": "prescription dispense"
          } ]
        },
        "medicationReference": {
          "reference": "Medication/2ff3663a-3d2c-4202-acd9-b94459d6865c"
        },
        "subject": {
          "identifier": {
            "system": "http://fhir.de/sid/gkv/kvid-10",
            "value": "X110498565"
          }
        },
        "performer": [ {
          "actor": {
            "reference": "Organization/1d0e17bf-27bc-40fa-a9f0-d9d08ab8ce39"
          }
        } ],
        "whenHandedOver": "2024-02-08"
      }
    }, {
      "name": "medication",
      "resource": {
        "resourceType": "Medication",
        "id": "2ff3663a-3d2c-4202-acd9-b94459d6865c",
        "meta": {
          "profile": [ "https://gematik.de/fhir/epa-medication/StructureDefinition/epa-medication|1.0.3" ]
        },
        "extension": [ {
          "url": "https://gematik.de/fhir/epa-medication/StructureDefinition/drug-category-extension",
          "valueCoding": {
            "system": "https://gematik.de/fhir/epa-medication/CodeSystem/epa-drug-category-cs",
            "code": "00"
          }
        }, {
          "url": "https://gematik.de/fhir/epa-medication/StructureDefinition/medication-id-vaccine-extension",
          "valueBoolean": false
        }, {
          "url": "http://fhir.de/StructureDefinition/normgroesse",
          "valueCode": "NB"
        } ],
        "code": {
          "coding": [ {
            "system": "http://fhir.de/CodeSystem/ifa/pzn",
            "code": "12345678"
          } ],
          "text": "Schmerzmittel"
        },
        "form": {
          "coding": [ {
            "system": "https://fhir.kbv.de/CodeSystem/KBV_CS_SFHIR_KBV_DARREICHUNGSFORM",
            "code": "TAB"
          } ]
        },
        "amount": {
          "numerator": {
            "extension": [ {
              "url": "https://gematik.de/fhir/epa-medication/StructureDefinition/medication-packaging-size-extension",
              "valueString": "1"
            } ],
            "unit": "Stk"
          },
          "denominator": {
            "value": 1
          }
        }
      }
    }, {
      "name": "organization",
      "resource": {
        "resourceType": "Organization",
        "id": "1d0e17bf-27bc-40fa-a9f0-d9d08ab8ce39",
        "meta": {
          "profile": [ "https://gematik.de/fhir/directory/StructureDefinition/OrganizationDirectory|0.11.12" ],
          "tag": [ {
            "system": "https://gematik.de/fhir/directory/CodeSystem/Origin",
            "code": "ldap"
          } ]
        },
        "identifier": [ {
          "system": "https://gematik.de/fhir/sid/telematik-id",
          "value": "3-SMC-B-Testkarte-883110000116873"
        } ],
        "type": [ {
          "coding": [ {
            "system": "https://gematik.de/fhir/directory/CodeSystem/OrganizationProfessionOID",
            "code": "1.2.276.0.76.4.58"
          } ]
        } ],
        "name": "Brook Lynn Bridge"
      }
    } ]
  } ]
}