<Parameters xmlns="http://hl7.org/fhir">
   <id value="490093ae-7195-4f30-b325-5365e40fc8e4"/>
   <meta>
      <profile value="https://gematik.de/fhir/epa-medication/StructureDefinition/epa-op-provide-dispensation-input-parameters"/>
   </meta>
   <parameter>
      <name value="dispensation"/>
      <part>
         <name value="medicationDispense"/>
         <resource>
            <MedicationDispense xmlns="http://hl7.org/fhir">
               <id value="57a5b0e7-dd6d-49cb-a01b-1b639d5b7c4c"/>
               <meta>
                  <profile value="https://gematik.de/fhir/epa-medication/StructureDefinition/epa-medication-dispense"/>
               </meta>
               <identifier>
                  <system value="https://gematik.de/fhir/erp/NamingSystem/GEM_ERP_NS_PrescriptionId"/>
                  <value value="169.000.011.203.690.77"/>
               </identifier>
               <status value="completed"/>
               <category>
                  <coding>
                     <system value="https://gematik.de/fhir/epa-medication/CodeSystem/EPAMedicationDispenseCategoryCS"/>
                     <code value="prescription"/>
                     <display value="prescription dispense"/>
                  </coding>
               </category>
               <medicationReference>
                  <reference value="Medication/9b61a532-6069-4dcc-afa5-d26a8e2340f6"/>
               </medicationReference>
               <subject>
                  <identifier>
                     <system value="http://fhir.de/sid/gkv/kvid-10"/>
                     <value value="X110498565"/>
                  </identifier>
               </subject>
               <performer>
                  <actor>
                     <reference value="Organization/d2f25b90-f979-42e0-815c-3eeb51df8857"/>
                  </actor>
               </performer>
               <whenHandedOver value="2024-02-08"/>
            </MedicationDispense>
         </resource>
      </part>
      <part>
         <name value="medication"/>
         <resource>
            <Medication xmlns="http://hl7.org/fhir">
               <id value="9b61a532-6069-4dcc-afa5-d26a8e2340f6"/>
               <meta>
                  <profile value="https://gematik.de/fhir/epa-medication/StructureDefinition/epa-medication"/>
               </meta>
               <extension url="https://gematik.de/fhir/epa-medication/StructureDefinition/drug-category-extension">
                  <valueCoding>
                     <system value="https://gematik.de/fhir/epa-medication/CodeSystem/epa-drug-category-cs"/>
                     <code value="00"/>
                  </valueCoding>
               </extension>
               <extension url="https://gematik.de/fhir/epa-medication/StructureDefinition/medication-id-vaccine-extension">
                  <valueBoolean value="false"/>
               </extension>
               <extension url="http://fhir.de/StructureDefinition/normgroesse">
                  <valueCode value="NB"/>
               </extension>
               <code>
                  <coding>
                     <system value="http://fhir.de/CodeSystem/ifa/pzn"/>
                     <code value="47126688"/>
                  </coding>
                  <text value="Zytostatika"/>
               </code>
               <form>
                  <coding>
                     <system value="https://fhir.kbv.de/CodeSystem/KBV_CS_SFHIR_KBV_DARREICHUNGSFORM"/>
                     <code value="TAB"/>
                  </coding>
               </form>
               <amount>
                  <numerator>
                     <extension url="https://gematik.de/fhir/epa-medication/StructureDefinition/medication-packaging-size-extension">
                        <valueString value="1"/>
                     </extension>
                     <unit value="Stk"/>
                  </numerator>
                  <denominator>
                     <value value="1"/>
                  </denominator>
               </amount>
            </Medication>
         </resource>
      </part>
   </parameter>
   <parameter>
      <name value="performerInstitution"/>
      <resource>
         <Organization xmlns="http://hl7.org/fhir">
            <id value="d2f25b90-f979-42e0-815c-3eeb51df8857"/>
            <meta>
               <profile value="https://gematik.de/fhir/directory/StructureDefinition/OrganizationDirectory"/>
               <tag>
                  <system value="https://gematik.de/fhir/directory/CodeSystem/Origin"/>
                  <code value="ldap"/>
               </tag>
            </meta>
            <identifier>
               <system value="https://gematik.de/fhir/sid/telematik-id"/>
               <value value="3-SMC-B-Testkarte-883110000116873"/>
            </identifier>
            <type>
               <coding>
                  <system value="https://gematik.de/fhir/directory/CodeSystem/OrganizationProfessionOID"/>
                  <code value="1.2.276.0.76.4.58"/>
               </coding>
            </type>
            <name value="Rocky Beach"/>
         </Organization>
      </resource>
   </parameter>
</Parameters>