<Bundle xmlns="http://hl7.org/fhir">
   <id value="c8fa0125-0000-0000-0003-000000000000"/>
   <meta>
      <profile value="https://gematik.de/fhir/erp/StructureDefinition/GEM_ERP_PR_Bundle|1.4"/>
   </meta>
   <identifier>
      <system value="https://gematik.de/fhir/erp/NamingSystem/GEM_ERP_NS_PrescriptionId"/>
      <value value="200.000.002.425.338.27"/>
   </identifier>
   <type value="document"/>
   <timestamp value="2025-03-28T08:09:27.107+00:00"/>
   <link>
      <relation value="self"/>
      <url value="https://erp-ref.zentral.erp.splitdns.ti-dienste.de/Task/200.000.002.425.338.27/$close/"/>
   </link>
   <entry>
      <fullUrl value="urn:uuid:7953fe86-aa8b-4649-ac9b-244384f2dc74"/>
      <resource>
         <Composition xmlns="http://hl7.org/fhir">
            <id value="7953fe86-aa8b-4649-ac9b-244384f2dc74"/>
            <meta>
               <profile value="https://gematik.de/fhir/erp/StructureDefinition/GEM_ERP_PR_Composition|1.4"/>
            </meta>
            <extension url="https://gematik.de/fhir/erp/StructureDefinition/GEM_ERP_EX_Beneficiary">
               <valueIdentifier>
                  <system value="https://gematik.de/fhir/sid/telematik-id"/>
                  <value value="3-SMC-B-Testkarte--883110000163973"/>
               </valueIdentifier>
            </extension>
            <status value="final"/>
            <type>
               <coding>
                  <system value="https://gematik.de/fhir/erp/CodeSystem/GEM_ERP_CS_DocumentType"/>
                  <code value="3"/>
                  <display value="Receipt"/>
               </coding>
            </type>
            <date value="2025-03-28T08:09:27.102+00:00"/>
            <author>
               <reference value="urn:uuid:c8affe84-c864-40c2-9ad3-2ed522776244"/>
            </author>
            <title value="Quittung"/>
            <event>
               <period>
                  <start value="2025-03-28T08:09:26.768+00:00"/>
                  <end value="2025-03-28T08:09:27.102+00:00"/>
               </period>
            </event>
            <section>
               <entry>
                  <reference value="urn:uuid:c4b0d2c3-0670-4621-a4e2-3a1ca90d8c38"/>
               </entry>
            </section>
         </Composition>
      </resource>
   </entry>
   <entry>
      <fullUrl value="urn:uuid:c8affe84-c864-40c2-9ad3-2ed522776244"/>
      <resource>
         <Device xmlns="http://hl7.org/fhir">
            <id value="1"/>
            <meta>
               <profile value="https://gematik.de/fhir/erp/StructureDefinition/GEM_ERP_PR_Device|1.4"/>
            </meta>
            <status value="active"/>
            <serialNumber value="1.17.0"/>
            <deviceName>
               <name value="E-Rezept Fachdienst"/>
               <type value="user-friendly-name"/>
            </deviceName>
            <version>
               <value value="1.17.0"/>
            </version>
            <contact>
               <system value="email"/>
               <value value="betrieb@gematik.de"/>
            </contact>
         </Device>
      </resource>
   </entry>
   <entry>
      <fullUrl value="urn:uuid:c4b0d2c3-0670-4621-a4e2-3a1ca90d8c38"/>
      <resource>
         <Binary xmlns="http://hl7.org/fhir">
            <id value="c4b0d2c3-0670-4621-a4e2-3a1ca90d8c38"/>
            <meta>
               <versionId value="1"/>
               <profile value="https://gematik.de/fhir/erp/StructureDefinition/GEM_ERP_PR_Digest|1.4"/>
            </meta>
            <contentType value="application/octet-stream"/>
            <data value="ivbGx6xjd0cBenyqrF29TsB6Zg/TMB3ODbJGjMejYKs="/>
         </Binary>
      </resource>
   </entry>
   <signature>
      <type>
         <system value="urn:iso-astm:E1762-95:2013"/>
         <code value="1.2.840.10065.1.12.1.1"/>
      </type>
      <when value="2025-03-28T08:09:27.108+00:00"/>
      <who>
         <reference value="urn:uuid:c8affe84-c864-40c2-9ad3-2ed522776244"/>
      </who>
      <sigFormat value="application/pkcs7-mime"/>
      <data value=""/>
   </signature>
</Bundle>