{
  "resourceType": "Bundle",
  "id": "483b6a1b-cbb2-42bf-9c6c-700f88fa743c",
  "type": "collection",
  "timestamp": "2025-03-28T08:09:28.041+00:00",
  "entry": [ {
    "fullUrl": "https://erp-ref.zentral.erp.splitdns.ti-dienste.de/ChargeItem/200.000.002.425.338.27",
    "resource": {
      "resourceType": "ChargeItem",
      "id": "200.000.002.425.338.27",
      "meta": {
        "profile": [ "https://gematik.de/fhir/erpchrg/StructureDefinition/GEM_ERPCHRG_PR_ChargeItem|1.0" ]
      },
      "identifier": [ {
        "system": "https://gematik.de/fhir/erp/NamingSystem/GEM_ERP_NS_AccessCode",
        "value": "6792ba5117bdcdc659ed72cc11d8e05106aa119548fd892a47260564d0221a82"
      }, {
        "system": "https://gematik.de/fhir/erp/NamingSystem/GEM_ERP_NS_PrescriptionId",
        "value": "200.000.002.425.338.27"
      } ],
      "status": "billable",
      "code": {
        "coding": [ {
          "system": "http://terminology.hl7.org/CodeSystem/data-absent-reason",
          "code": "not-applicable"
        } ]
      },
      "subject": {
        "identifier": {
          "system": "http://fhir.de/sid/pkv/kvid-10",
          "value": "X110645443"
        }
      },
      "enterer": {
        "identifier": {
          "system": "https://gematik.de/fhir/sid/telematik-id",
          "value": "3-SMC-B-Testkarte--883110000163973"
        }
      },
      "enteredDate": "2025-03-28T08:09:27.439+00:00",
      "supportingInformation": [ {
        "reference": "urn:uuid:c8fa0125-0000-0000-0001-000000000000",
        "display": "https://fhir.kbv.de/StructureDefinition/KBV_PR_ERP_Bundle"
      }, {
        "reference": "urn:uuid:c8fa0125-0000-0000-0004-000000000000",
        "display": "http://fhir.abda.de/eRezeptAbgabedaten/StructureDefinition/DAV-PKV-PR-ERP-AbgabedatenBundle"
      }, {
        "reference": "urn:uuid:c8fa0125-0000-0000-0003-000000000000",
        "display": "https://gematik.de/fhir/erp/StructureDefinition/GEM_ERP_PR_Bundle"
      } ]
    }
  }, {
    "fullUrl": "urn:uuid:c8fa0125-0000-0000-0004-000000000000",
    "resource": {
      "resourceType": "Bundle",
      "id": "c89c7c4b-db3b-442c-bd11-8fc0df00c4c2",
      "meta": {
        "lastUpdated": "2025-03-28T09:09:27.278+01:00",
        "profile": [ "http://fhir.abda.de/eRezeptAbgabedaten/StructureDefinition/DAV-PKV-PR-ERP-AbgabedatenBundle|1.3" ]
      },
      "identifier": {
        "system": "https://gematik.de/fhir/erp/NamingSystem/GEM_ERP_NS_PrescriptionId",
        "value": "200.000.002.425.338.27"
      },
      "type": "document",
      "timestamp": "2025-03-28T09:09:27.278+01:00",
      "entry": [ {
        "fullUrl": "urn:uuid:a377c22d-2d2d-447e-a929-e3915e4a1db9",
        "resource": {
          "resourceType": "Composition",
          "meta": {
            "profile": [ "http://fhir.abda.de/eRezeptAbgabedaten/StructureDefinition/DAV-PKV-PR-ERP-AbgabedatenComposition|1.3" ]
          },
          "status": "final",
          "type": {
            "coding": [ {
              "system": "http://fhir.abda.de/eRezeptAbgabedaten/CodeSystem/DAV-CS-ERP-CompositionTypes",
              "code": "ERezeptAbgabedaten"
            } ]
          },
          "date": "2025-03-28T09:09:27+01:00",
          "author": [ {
            "reference": "urn:uuid:bf713cd6-4ccf-4abb-874e-cefb725b4882"
          } ],
          "title": "ERezeptAbgabedaten",
          "section": [ {
            "title": "Apotheke",
            "entry": [ {
              "reference": "urn:uuid:bf713cd6-4ccf-4abb-874e-cefb725b4882"
            } ]
          }, {
            "title": "Abgabeinformationen",
            "entry": [ {
              "reference": "urn:uuid:6732bc03-c621-4e2f-99dc-d2493b4eeb32"
            } ]
          } ]
        }
      }, {
        "fullUrl": "urn:uuid:bf713cd6-4ccf-4abb-874e-cefb725b4882",
        "resource": {
          "resourceType": "Organization",
          "meta": {
            "profile": [ "http://fhir.abda.de/eRezeptAbgabedaten/StructureDefinition/DAV-PKV-PR-ERP-Apotheke|1.3" ]
          },
          "identifier": [ {
            "system": "http://fhir.de/sid/arge-ik/iknr",
            "value": "022639686"
          } ],
          "name": "Apotheke Carlotta Tendant",
          "address": [ {
            "type": "physical",
            "line": [ "Obere Str. 34b" ],
            "_line": [ {
              "extension": [ {
                "url": "http://hl7.org/fhir/StructureDefinition/iso21090-ADXP-houseNumber",
                "valueString": "34b"
              }, {
                "url": "http://hl7.org/fhir/StructureDefinition/iso21090-ADXP-streetName",
                "valueString": "Obere Str."
              } ]
            } ],
            "city": "West Sydney",
            "postalCode": "15061",
            "country": "PIE"
          } ]
        }
      }, {
        "fullUrl": "urn:uuid:5e7b11c2-b346-4841-a1bc-be8644cd2e73",
        "resource": {
          "resourceType": "Invoice",
          "meta": {
            "profile": [ "http://fhir.abda.de/eRezeptAbgabedaten/StructureDefinition/DAV-PKV-PR-ERP-Abrechnungszeilen|1.3" ]
          },
          "status": "issued",
          "type": {
            "coding": [ {
              "system": "http://fhir.abda.de/eRezeptAbgabedaten/CodeSystem/DAV-CS-ERP-InvoiceTyp",
              "code": "Abrechnungszeilen"
            } ]
          },
          "lineItem": [ {
            "sequence": 1,
            "chargeItemCodeableConcept": {
              "coding": [ {
                "system": "http://fhir.de/CodeSystem/ifa/pzn",
                "code": "15037279"
              } ],
              "text": "orthomol chondroplus 1000 mg"
            },
            "priceComponent": [ {
              "extension": [ {
                "url": "http://fhir.abda.de/eRezeptAbgabedaten/StructureDefinition/DAV-EX-ERP-KostenVersicherter",
                "extension": [ {
                  "url": "Kategorie",
                  "valueCodeableConcept": {
                    "coding": [ {
                      "system": "http://fhir.abda.de/eRezeptAbgabedaten/CodeSystem/DAV-PKV-CS-ERP-KostenVersicherterKategorie",
                      "code": "0"
                    } ]
                  }
                }, {
                  "url": "Kostenbetrag",
                  "valueMoney": {
                    "value": 35.30,
                    "currency": "EUR"
                  }
                } ]
              }, {
                "url": "http://fhir.abda.de/eRezeptAbgabedaten/StructureDefinition/DAV-EX-ERP-MwStSatz",
                "valueDecimal": 29.89
              } ],
              "type": "informational",
              "factor": 1,
              "amount": {
                "value": 43.78,
                "currency": "EUR"
              }
            } ]
          }, {
            "sequence": 2,
            "chargeItemCodeableConcept": {
              "coding": [ {
                "system": "http://fhir.de/CodeSystem/ifa/pzn",
                "code": "87572268"
              } ],
              "text": "orthomol chondroplus Spray 900 mg"
            },
            "priceComponent": [ {
              "extension": [ {
                "url": "http://fhir.abda.de/eRezeptAbgabedaten/StructureDefinition/DAV-EX-ERP-KostenVersicherter",
                "extension": [ {
                  "url": "Kategorie",
                  "valueCodeableConcept": {
                    "coding": [ {
                      "system": "http://fhir.abda.de/eRezeptAbgabedaten/CodeSystem/DAV-PKV-CS-ERP-KostenVersicherterKategorie",
                      "code": "0"
                    } ]
                  }
                }, {
                  "url": "Kostenbetrag",
                  "valueMoney": {
                    "value": 38.58,
                    "currency": "EUR"
                  }
                } ]
              }, {
                "url": "http://fhir.abda.de/eRezeptAbgabedaten/StructureDefinition/DAV-EX-ERP-MwStSatz",
                "valueDecimal": 29.89
              } ],
              "type": "informational",
              "factor": 1,
              "amount": {
                "value": 263.61,
                "currency": "EUR"
              }
            } ]
          } ],
          "totalGross": {
            "extension": [ {
              "url": "http://fhir.abda.de/eRezeptAbgabedaten/StructureDefinition/DAV-EX-ERP-Gesamtzuzahlung",
              "valueMoney": {
                "value": 73.88,
                "currency": "EUR"
              }
            } ],
            "value": 307.39,
            "currency": "EUR"
          }
        }
      }, {
        "fullUrl": "urn:uuid:6732bc03-c621-4e2f-99dc-d2493b4eeb32",
        "resource": {
          "resourceType": "MedicationDispense",
          "meta": {
            "profile": [ "http://fhir.abda.de/eRezeptAbgabedaten/StructureDefinition/DAV-PKV-PR-ERP-Abgabeinformationen|1.3" ]
          },
          "extension": [ {
            "url": "http://fhir.abda.de/eRezeptAbgabedaten/StructureDefinition/DAV-PKV-EX-ERP-AbrechnungsTyp",
            "valueCodeableConcept": {
              "coding": [ {
                "system": "http://fhir.abda.de/eRezeptAbgabedaten/CodeSystem/DAV-PKV-CS-ERP-AbrechnungsTyp",
                "code": "1"
              } ]
            }
          }, {
            "url": "http://fhir.abda.de/eRezeptAbgabedaten/StructureDefinition/DAV-EX-ERP-Abrechnungszeilen",
            "valueReference": {
              "reference": "urn:uuid:5e7b11c2-b346-4841-a1bc-be8644cd2e73"
            }
          } ],
          "status": "completed",
          "medicationCodeableConcept": {
            "coding": [ {
              "system": "http://terminology.hl7.org/CodeSystem/data-absent-reason",
              "code": "not-applicable"
            } ]
          },
          "performer": [ {
            "actor": {
              "reference": "urn:uuid:bf713cd6-4ccf-4abb-874e-cefb725b4882"
            }
          } ],
          "authorizingPrescription": [ {
            "identifier": {
              "system": "https://gematik.de/fhir/erp/NamingSystem/GEM_ERP_NS_PrescriptionId",
              "value": "200.000.002.425.338.27"
            }
          } ],
          "type": {
            "coding": [ {
              "system": "http://fhir.abda.de/eRezeptAbgabedaten/CodeSystem/DAV-CS-ERP-MedicationDispenseTyp",
              "code": "Abgabeinformationen"
            } ]
          },
          "whenHandedOver": "2025-03-28"
        }
      } ],
      "signature": {
        "type": [ {
          "system": "urn:iso-astm:E1762-95:2013",
          "code": "1.2.840.10065.1.12.1.1"
        } ],
        "when": "2025-03-28T08:09:28.078+00:00",
        "who": {
          "reference": "https://erp-ref.zentral.erp.splitdns.ti-dienste.de/Device/1"
        },
        "sigFormat": "application/pkcs7-mime",
        "data": ""
      }
    }
  }, {
    "fullUrl": "urn:uuid:c8fa0125-0000-0000-0001-000000000000",
    "resource": {
      "resourceType": "Bundle",
      "id": "72c32a7d-3820-48e6-9ae2-b87eb30c13c2",
      "meta": {
        "profile": [ "https://fhir.kbv.de/StructureDefinition/KBV_PR_ERP_Bundle|1.1.0" ]
      },
      "identifier": {
        "system": "https://gematik.de/fhir/erp/NamingSystem/GEM_ERP_NS_PrescriptionId",
        "value": "200.000.002.425.338.27"
      },
      "type": "document",
      "timestamp": "2025-03-28T09:09:26.229+01:00",
      "entry": [ {
        "fullUrl": "https://pvs.gematik.de/fhir/Composition/733c9753-ca5c-4283-a0fe-7f56958fc612",
        "resource": {
          "resourceType": "Composition",
          "id": "733c9753-ca5c-4283-a0fe-7f56958fc612",
          "meta": {
            "profile": [ "https://fhir.kbv.de/StructureDefinition/KBV_PR_ERP_Composition|1.1.0" ]
          },
          "extension": [ {
            "url": "https://fhir.kbv.de/StructureDefinition/KBV_EX_FOR_Legal_basis",
            "valueCoding": {
              "system": "https://fhir.kbv.de/CodeSystem/KBV_CS_SFHIR_KBV_STATUSKENNZEICHEN",
              "code": "00"
            }
          } ],
          "status": "final",
          "type": {
            "coding": [ {
              "system": "https://fhir.kbv.de/CodeSystem/KBV_CS_SFHIR_KBV_FORMULAR_ART",
              "code": "e16A"
            } ]
          },
          "subject": {
            "reference": "Patient/84582ef1-bd58-4f89-b7dc-c1dbbbcd6a1e"
          },
          "date": "2025-03-28T09:09:26+01:00",
          "author": [ {
            "type": "Device",
            "identifier": {
              "system": "https://fhir.kbv.de/NamingSystem/KBV_NS_FOR_Pruefnummer",
              "value": "GEMATIK/410/2109/36/123"
            }
          }, {
            "reference": "Practitioner/fde8465b-88f4-4198-a913-5e7c873cef7c",
            "type": "Practitioner"
          } ],
          "title": "elektronische Arzneimittelverordnung",
          "custodian": {
            "reference": "Organization/3644c617-0844-4486-97ed-fcff38065c63"
          },
          "section": [ {
            "code": {
              "coding": [ {
                "system": "https://fhir.kbv.de/CodeSystem/KBV_CS_ERP_Section_Type",
                "code": "Coverage"
              } ]
            },
            "entry": [ {
              "reference": "Coverage/6c9cc783-4ee2-4a46-a435-e1afc9b19c94"
            } ]
          }, {
            "code": {
              "coding": [ {
                "system": "https://fhir.kbv.de/CodeSystem/KBV_CS_ERP_Section_Type",
                "code": "Prescription"
              } ]
            },
            "entry": [ {
              "reference": "MedicationRequest/07742507-561b-414f-a545-6e8d6fbff63a"
            } ]
          } ]
        }
      }, {
        "fullUrl": "https://pvs.gematik.de/fhir/Coverage/6c9cc783-4ee2-4a46-a435-e1afc9b19c94",
        "resource": {
          "resourceType": "Coverage",
          "id": "6c9cc783-4ee2-4a46-a435-e1afc9b19c94",
          "meta": {
            "profile": [ "https://fhir.kbv.de/StructureDefinition/KBV_PR_FOR_Coverage|1.1.0" ]
          },
          "extension": [ {
            "url": "http://fhir.de/StructureDefinition/gkv/besondere-personengruppe",
            "valueCoding": {
              "system": "https://fhir.kbv.de/CodeSystem/KBV_CS_SFHIR_KBV_PERSONENGRUPPE",
              "code": "00"
            }
          }, {
            "url": "http://fhir.de/StructureDefinition/gkv/dmp-kennzeichen",
            "valueCoding": {
              "system": "https://fhir.kbv.de/CodeSystem/KBV_CS_SFHIR_KBV_DMP",
              "code": "00"
            }
          }, {
            "url": "http://fhir.de/StructureDefinition/gkv/wop",
            "valueCoding": {
              "system": "https://fhir.kbv.de/CodeSystem/KBV_CS_SFHIR_ITA_WOP",
              "code": "48"
            }
          }, {
            "url": "http://fhir.de/StructureDefinition/gkv/versichertenart",
            "valueCoding": {
              "system": "https://fhir.kbv.de/CodeSystem/KBV_CS_SFHIR_KBV_VERSICHERTENSTATUS",
              "code": "1"
            }
          } ],
          "status": "active",
          "type": {
            "coding": [ {
              "system": "http://fhir.de/CodeSystem/versicherungsart-de-basis",
              "code": "PKV"
            } ]
          },
          "beneficiary": {
            "reference": "Patient/40f1d496-645a-4ee7-96f1-01f5ca1feae2"
          },
          "payor": [ {
            "identifier": {
              "system": "http://fhir.de/sid/arge-ik/iknr",
              "value": "168141256"
            },
            "display": "NÜRNBERGER Krankenversicherung AG"
          } ]
        }
      }, {
        "fullUrl": "https://pvs.gematik.de/fhir/Patient/84582ef1-bd58-4f89-b7dc-c1dbbbcd6a1e",
        "resource": {
          "resourceType": "Patient",
          "id": "84582ef1-bd58-4f89-b7dc-c1dbbbcd6a1e",
          "meta": {
            "profile": [ "https://fhir.kbv.de/StructureDefinition/KBV_PR_FOR_Patient|1.1.0" ]
          },
          "identifier": [ {
            "type": {
              "coding": [ {
                "system": "http://fhir.de/CodeSystem/identifier-type-de-basis",
                "code": "PKV"
              } ]
            },
            "system": "http://fhir.de/sid/pkv/kvid-10",
            "value": "X110645443"
          } ],
          "name": [ {
            "use": "official",
            "family": "Angermänn",
            "_family": {
              "extension": [ {
                "url": "http://hl7.org/fhir/StructureDefinition/humanname-own-name",
                "valueString": "Angermänn"
              } ]
            },
            "given": [ "Günther" ]
          } ],
          "birthDate": "1985-04-04",
          "address": [ {
            "type": "both",
            "line": [ "Höltgestal 150" ],
            "_line": [ {
              "extension": [ {
                "url": "http://hl7.org/fhir/StructureDefinition/iso21090-ADXP-houseNumber",
                "valueString": "150"
              }, {
                "url": "http://hl7.org/fhir/StructureDefinition/iso21090-ADXP-streetName",
                "valueString": "Höltgestal"
              } ]
            } ],
            "city": "Klein Zoé",
            "postalCode": "88620",
            "country": "D"
          } ]
        }
      }, {
        "fullUrl": "https://pvs.gematik.de/fhir/Practitioner/fde8465b-88f4-4198-a913-5e7c873cef7c",
        "resource": {
          "resourceType": "Practitioner",
          "id": "fde8465b-88f4-4198-a913-5e7c873cef7c",
          "meta": {
            "profile": [ "https://fhir.kbv.de/StructureDefinition/KBV_PR_FOR_Practitioner|1.1.0" ]
          },
          "identifier": [ {
            "type": {
              "coding": [ {
                "system": "http://terminology.hl7.org/CodeSystem/v2-0203",
                "code": "LANR"
              } ]
            },
            "system": "https://fhir.kbv.de/NamingSystem/KBV_NS_Base_ANR",
            "value": "490665086"
          } ],
          "name": [ {
            "use": "official",
            "family": "Schraßer",
            "_family": {
              "extension": [ {
                "url": "http://hl7.org/fhir/StructureDefinition/humanname-own-name",
                "valueString": "Schraßer"
              } ]
            },
            "given": [ "Dr." ],
            "prefix": [ "Dr." ],
            "_prefix": [ {
              "extension": [ {
                "url": "http://hl7.org/fhir/StructureDefinition/iso21090-EN-qualifier",
                "valueCode": "AC"
              } ]
            } ]
          } ],
          "qualification": [ {
            "code": {
              "coding": [ {
                "system": "https://fhir.kbv.de/CodeSystem/KBV_CS_FOR_Qualification_Type",
                "code": "00"
              } ]
            }
          }, {
            "code": {
              "coding": [ {
                "system": "https://fhir.kbv.de/CodeSystem/KBV_CS_FOR_Berufsbezeichnung",
                "code": "Berufsbezeichnung"
              } ],
              "text": "Super-Facharzt für alles Mögliche"
            }
          } ]
        }
      }, {
        "fullUrl": "https://pvs.gematik.de/fhir/Organization/3644c617-0844-4486-97ed-fcff38065c63",
        "resource": {
          "resourceType": "Organization",
          "id": "3644c617-0844-4486-97ed-fcff38065c63",
          "meta": {
            "profile": [ "https://fhir.kbv.de/StructureDefinition/KBV_PR_FOR_Organization|1.1.0" ]
          },
          "identifier": [ {
            "type": {
              "coding": [ {
                "system": "http://terminology.hl7.org/CodeSystem/v2-0203",
                "code": "BSNR"
              } ]
            },
            "system": "https://fhir.kbv.de/NamingSystem/KBV_NS_Base_BSNR",
            "value": "511033350"
          } ],
          "name": "Arztpraxis Schraßer",
          "telecom": [ {
            "system": "phone",
            "value": "(03019) 8299550"
          }, {
            "system": "email",
            "value": "finja.ney@winter.info"
          } ],
          "address": [ {
            "type": "both",
            "line": [ "Am Frankenberg 17c" ],
            "_line": [ {
              "extension": [ {
                "url": "http://hl7.org/fhir/StructureDefinition/iso21090-ADXP-houseNumber",
                "valueString": "17c"
              }, {
                "url": "http://hl7.org/fhir/StructureDefinition/iso21090-ADXP-streetName",
                "valueString": "Am Frankenberg"
              } ]
            } ],
            "city": "Groß Elly",
            "postalCode": "96991",
            "country": "D"
          } ]
        }
      }, {
        "fullUrl": "https://pvs.gematik.de/fhir/Medication/65e70d73-8d8a-4f4f-bb6e-4cfb2e349777",
        "resource": {
          "resourceType": "Medication",
          "id": "65e70d73-8d8a-4f4f-bb6e-4cfb2e349777",
          "meta": {
            "profile": [ "https://fhir.kbv.de/StructureDefinition/KBV_PR_ERP_Medication_PZN|1.1.0" ]
          },
          "extension": [ {
            "url": "https://fhir.kbv.de/StructureDefinition/KBV_EX_Base_Medication_Type",
            "valueCodeableConcept": {
              "coding": [ {
                "system": "http://snomed.info/sct",
                "version": "http://snomed.info/sct/900000000000207008/version/20220331",
                "code": "763158003",
                "display": "Medicinal product (product)"
              } ]
            }
          }, {
            "url": "https://fhir.kbv.de/StructureDefinition/KBV_EX_ERP_Medication_Category",
            "valueCoding": {
              "system": "https://fhir.kbv.de/CodeSystem/KBV_CS_ERP_Medication_Category",
              "code": "00"
            }
          }, {
            "url": "https://fhir.kbv.de/StructureDefinition/KBV_EX_ERP_Medication_Vaccine",
            "valueBoolean": false
          }, {
            "url": "http://fhir.de/StructureDefinition/normgroesse",
            "valueCode": "NB"
          } ],
          "code": {
            "coding": [ {
              "system": "http://fhir.de/CodeSystem/ifa/pzn",
              "code": "94215818"
            } ],
            "text": "Schmerzmittel"
          },
          "form": {
            "coding": [ {
              "system": "https://fhir.kbv.de/CodeSystem/KBV_CS_SFHIR_KBV_DARREICHUNGSFORM",
              "code": "TAB"
            } ]
          },
          "amount": {
            "numerator": {
              "extension": [ {
                "url": "https://fhir.kbv.de/StructureDefinition/KBV_EX_ERP_Medication_PackagingSize",
                "valueString": "1"
              } ],
              "unit": "Stk"
            },
            "denominator": {
              "value": 1
            }
          }
        }
      }, {
        "fullUrl": "https://pvs.gematik.de/fhir/MedicationRequest/07742507-561b-414f-a545-6e8d6fbff63a",
        "resource": {
          "resourceType": "MedicationRequest",
          "id": "07742507-561b-414f-a545-6e8d6fbff63a",
          "meta": {
            "profile": [ "https://fhir.kbv.de/StructureDefinition/KBV_PR_ERP_Prescription|1.1.0" ]
          },
          "extension": [ {
            "url": "https://fhir.kbv.de/StructureDefinition/KBV_EX_ERP_BVG",
            "valueBoolean": false
          }, {
            "url": "https://fhir.kbv.de/StructureDefinition/KBV_EX_ERP_EmergencyServicesFee",
            "valueBoolean": false
          }, {
            "url": "https://fhir.kbv.de/StructureDefinition/KBV_EX_ERP_Multiple_Prescription",
            "extension": [ {
              "url": "Kennzeichen",
              "valueBoolean": false
            } ]
          }, {
            "url": "https://fhir.kbv.de/StructureDefinition/KBV_EX_FOR_StatusCoPayment",
            "valueCoding": {
              "system": "https://fhir.kbv.de/CodeSystem/KBV_CS_FOR_StatusCoPayment",
              "code": "0"
            }
          } ],
          "status": "active",
          "intent": "order",
          "medicationReference": {
            "reference": "Medication/65e70d73-8d8a-4f4f-bb6e-4cfb2e349777"
          },
          "subject": {
            "reference": "Patient/84582ef1-bd58-4f89-b7dc-c1dbbbcd6a1e"
          },
          "authoredOn": "2025-03-28",
          "requester": {
            "reference": "Practitioner/fde8465b-88f4-4198-a913-5e7c873cef7c"
          },
          "insurance": [ {
            "reference": "Coverage/6c9cc783-4ee2-4a46-a435-e1afc9b19c94"
          } ],
          "dosageInstruction": [ {
            "extension": [ {
              "url": "https://fhir.kbv.de/StructureDefinition/KBV_EX_ERP_DosageFlag",
              "valueBoolean": true
            } ],
            "text": "0-3-2-1-3-2"
          } ],
          "dispenseRequest": {
            "quantity": {
              "value": 1,
              "system": "http://unitsofmeasure.org",
              "code": "{Package}"
            }
          },
          "substitution": {
            "allowedBoolean": false
          }
        }
      } ],
      "signature": {
        "type": [ {
          "system": "urn:iso-astm:E1762-95:2013",
          "code": "1.2.840.10065.1.12.1.1"
        } ],
        "when": "2025-03-28T08:09:28.076+00:00",
        "who": {
          "reference": "https://erp-ref.zentral.erp.splitdns.ti-dienste.de/Device/1"
        },
        "sigFormat": "application/pkcs7-mime",
        "data": ""
      }
    }
  }, {
    "fullUrl": "urn:uuid:c8fa0125-0000-0000-0003-000000000000",
    "resource": {
      "resourceType": "Bundle",
      "id": "c8fa0125-0000-0000-0003-000000000000",
      "meta": {
        "profile": [ "https://gematik.de/fhir/erp/StructureDefinition/GEM_ERP_PR_Bundle|1.4" ]
      },
      "identifier": {
        "system": "https://gematik.de/fhir/erp/NamingSystem/GEM_ERP_NS_PrescriptionId",
        "value": "200.000.002.425.338.27"
      },
      "type": "document",
      "timestamp": "2025-03-28T08:09:27.107+00:00",
      "link": [ {
        "relation": "self",
        "url": "https://erp-ref.zentral.erp.splitdns.ti-dienste.de/Task/200.000.002.425.338.27/$close/"
      } ],
      "entry": [ {
        "fullUrl": "urn:uuid:7953fe86-aa8b-4649-ac9b-244384f2dc74",
        "resource": {
          "resourceType": "Composition",
          "id": "7953fe86-aa8b-4649-ac9b-244384f2dc74",
          "meta": {
            "profile": [ "https://gematik.de/fhir/erp/StructureDefinition/GEM_ERP_PR_Composition|1.4" ]
          },
          "extension": [ {
            "url": "https://gematik.de/fhir/erp/StructureDefinition/GEM_ERP_EX_Beneficiary",
            "valueIdentifier": {
              "system": "https://gematik.de/fhir/sid/telematik-id",
              "value": "3-SMC-B-Testkarte--883110000163973"
            }
          } ],
          "status": "final",
          "type": {
            "coding": [ {
              "system": "https://gematik.de/fhir/erp/CodeSystem/GEM_ERP_CS_DocumentType",
              "code": "3",
              "display": "Receipt"
            } ]
          },
          "date": "2025-03-28T08:09:27.102+00:00",
          "author": [ {
            "reference": "urn:uuid:c8affe84-c864-40c2-9ad3-2ed522776244"
          } ],
          "title": "Quittung",
          "event": [ {
            "period": {
              "start": "2025-03-28T08:09:26.768+00:00",
              "end": "2025-03-28T08:09:27.102+00:00"
            }
          } ],
          "section": [ {
            "entry": [ {
              "reference": "urn:uuid:c4b0d2c3-0670-4621-a4e2-3a1ca90d8c38"
            } ]
          } ]
        }
      }, {
        "fullUrl": "urn:uuid:c8affe84-c864-40c2-9ad3-2ed522776244",
        "resource": {
          "resourceType": "Device",
          "id": "1",
          "meta": {
            "profile": [ "https://gematik.de/fhir/erp/StructureDefinition/GEM_ERP_PR_Device|1.4" ]
          },
          "status": "active",
          "serialNumber": "1.17.0",
          "deviceName": [ {
            "name": "E-Rezept Fachdienst",
            "type": "user-friendly-name"
          } ],
          "version": [ {
            "value": "1.17.0"
          } ],
          "contact": [ {
            "system": "email",
            "value": "betrieb@gematik.de"
          } ]
        }
      }, {
        "fullUrl": "urn:uuid:c4b0d2c3-0670-4621-a4e2-3a1ca90d8c38",
        "resource": {
          "resourceType": "Binary",
          "id": "c4b0d2c3-0670-4621-a4e2-3a1ca90d8c38",
          "meta": {
            "versionId": "1",
            "profile": [ "https://gematik.de/fhir/erp/StructureDefinition/GEM_ERP_PR_Digest|1.4" ]
          },
          "contentType": "application/octet-stream",
          "data": "ivbGx6xjd0cBenyqrF29TsB6Zg/TMB3ODbJGjMejYKs="
        }
      } ],
      "signature": {
        "type": [ {
          "system": "urn:iso-astm:E1762-95:2013",
          "code": "1.2.840.10065.1.12.1.1"
        } ],
        "when": "2025-03-28T08:09:28.077+00:00",
        "who": {
          "reference": "https://erp-ref.zentral.erp.splitdns.ti-dienste.de/Device/1"
        },
        "sigFormat": "application/pkcs7-mime",
        "data": ""
      }
    }
  } ]
}