{
  "resourceType": "Parameters",
  "id": "9b57e5f0-e09e-4cf2-b025-74a1b3bb2a4b",
  "meta": {
    "profile": [ "https://gematik.de/fhir/epa-medication/StructureDefinition/epa-op-provide-dispensation-input-parameters" ]
  },
  "parameter": [ {
    "name": "dispensation",
    "part": [ {
      "name": "medicationDispense",
      "resource": {
        "resourceType": "MedicationDispense",
        "id": "4d9b5ed7-9826-4818-bd50-98ca8a2cf00a",
        "meta": {
          "profile": [ "https://gematik.de/fhir/epa-medication/StructureDefinition/epa-medication-dispense" ]
        },
        "identifier": [ {
          "system": "https://gematik.de/fhir/erp/NamingSystem/GEM_ERP_NS_PrescriptionId",
          "value": "160.000.764.737.300.50"
        } ],
        "status": "completed",
        "category": {
          "coding": [ {
            "system": "https://gematik.de/fhir/epa-medication/CodeSystem/EPAMedicationDispenseCategoryCS",
            "code": "prescription",
            "display": "prescription dispense"
          } ]
        },
        "medicationReference": {
          "reference": "Medication/59e76c04-f861-44a9-ab1e-47b60ec77373"
        },
        "subject": {
          "identifier": {
            "system": "http://fhir.de/sid/gkv/kvid-10",
            "value": "X234567891"
          }
        },
        "performer": [ {
          "actor": {
            "reference": "Organization/fdc868ed-a337-48d6-8cdd-0962490a957b"
          }
        } ],
        "whenHandedOver": "2024-11-30",
        "dosageInstruction": [ {
          "text": "1-0-1-0"
        } ]
      }
    }, {
      "name": "medication",
      "resource": {
        "resourceType": "Medication",
        "id": "59e76c04-f861-44a9-ab1e-47b60ec77373",
        "meta": {
          "profile": [ "https://gematik.de/fhir/epa-medication/StructureDefinition/epa-medication" ]
        },
        "extension": [ {
          "url": "https://gematik.de/fhir/epa-medication/StructureDefinition/drug-category-extension",
          "valueCoding": {
            "system": "https://gematik.de/fhir/epa-medication/CodeSystem/epa-drug-category-cs",
            "code": "00"
          }
        }, {
          "url": "https://gematik.de/fhir/epa-medication/StructureDefinition/medication-id-vaccine-extension",
          "valueBoolean": false
        }, {
          "url": "http://fhir.de/StructureDefinition/normgroesse",
          "valueCode": "N3"
        } ],
        "code": {
          "coding": [ {
            "system": "http://fhir.de/CodeSystem/ifa/pzn",
            "code": "05454378"
          } ],
          "text": "SUMATRIPTAN Aurobindo 100 mg Tabletten"
        },
        "form": {
          "coding": [ {
            "system": "https://fhir.kbv.de/CodeSystem/KBV_CS_SFHIR_KBV_DARREICHUNGSFORM",
            "code": "TAB"
          } ]
        },
        "amount": {
          "numerator": {
            "extension": [ {
              "url": "https://gematik.de/fhir/epa-medication/StructureDefinition/medication-packaging-size-extension",
              "valueString": "12"
            } ],
            "unit": "Tabletten"
          },
          "denominator": {
            "value": 1
          }
        },
        "batch": {
          "lotNumber": "A123456789-1",
          "expirationDate": "2025-12-31"
        }
      }
    } ]
  }, {
    "name": "performerInstitution",
    "resource": {
      "resourceType": "Organization",
      "id": "fdc868ed-a337-48d6-8cdd-0962490a957b",
      "meta": {
        "profile": [ "https://gematik.de/fhir/directory/StructureDefinition/OrganizationDirectory" ],
        "tag": [ {
          "system": "https://gematik.de/fhir/directory/CodeSystem/Origin",
          "code": "ldap"
        } ]
      },
      "identifier": [ {
        "system": "https://gematik.de/fhir/sid/telematik-id",
        "value": "3-07.2.1234560000.10.789"
      } ],
      "type": [ {
        "coding": [ {
          "system": "https://gematik.de/fhir/directory/CodeSystem/OrganizationProfessionOID",
          "code": "1.2.276.0.76.4.58"
        } ]
      } ],
      "name": "Annie Moore"
    }
  } ]
}