{
  "resourceType": "Parameters",
  "id": "2b8b7bec-eba8-4b86-82f9-8b31c277ec09",
  "meta": {
    "profile": [ "https://gematik.de/fhir/epa-medication/StructureDefinition/epa-op-provide-dispensation-input-parameters" ]
  },
  "parameter": [ {
    "name": "dispensation",
    "part": [ {
      "name": "medicationDispense",
      "resource": {
        "resourceType": "MedicationDispense",
        "id": "85950d6a-7de1-468f-b331-56399ed38f90",
        "meta": {
          "profile": [ "https://gematik.de/fhir/epa-medication/StructureDefinition/epa-medication-dispense" ]
        },
        "identifier": [ {
          "system": "https://gematik.de/fhir/erp/NamingSystem/GEM_ERP_NS_PrescriptionId",
          "value": "160.100.000.000.019.82"
        } ],
        "status": "completed",
        "category": {
          "coding": [ {
            "system": "https://gematik.de/fhir/epa-medication/CodeSystem/EPAMedicationDispenseCategoryCS",
            "code": "prescription",
            "display": "prescription dispense"
          } ]
        },
        "medicationReference": {
          "reference": "Medication/6a21f5e1-9c6e-4dd9-9357-8d1d45650ff2"
        },
        "subject": {
          "identifier": {
            "system": "http://fhir.de/sid/gkv/kvid-10",
            "value": "K030182229"
          }
        },
        "performer": [ {
          "actor": {
            "reference": "Organization/0aec6870-ed81-4cdc-8872-d98dd10ba816"
          }
        } ],
        "whenHandedOver": "2024-11-27",
        "dosageInstruction": [ {
          "text": "1-0-0-0"
        } ]
      }
    }, {
      "name": "medication",
      "resource": {
        "resourceType": "Medication",
        "id": "6a21f5e1-9c6e-4dd9-9357-8d1d45650ff2",
        "meta": {
          "profile": [ "https://gematik.de/fhir/epa-medication/StructureDefinition/epa-medication" ]
        },
        "extension": [ {
          "url": "https://gematik.de/fhir/epa-medication/StructureDefinition/drug-category-extension",
          "valueCoding": {
            "system": "https://gematik.de/fhir/epa-medication/CodeSystem/epa-drug-category-cs",
            "code": "00"
          }
        }, {
          "url": "https://gematik.de/fhir/epa-medication/StructureDefinition/medication-id-vaccine-extension",
          "valueBoolean": false
        }, {
          "url": "http://fhir.de/StructureDefinition/normgroesse",
          "valueCode": "N3"
        } ],
        "code": {
          "coding": [ {
            "system": "http://fhir.de/CodeSystem/ifa/pzn",
            "code": "00761360"
          } ],
          "text": "RAMIPRIL beta 5 mg Tabletten (100 St)"
        },
        "form": {
          "coding": [ {
            "system": "https://fhir.kbv.de/CodeSystem/KBV_CS_SFHIR_KBV_DARREICHUNGSFORM",
            "code": "TAB"
          } ]
        },
        "amount": {
          "numerator": {
            "extension": [ {
              "url": "https://gematik.de/fhir/epa-medication/StructureDefinition/medication-packaging-size-extension",
              "valueString": "100"
            } ],
            "unit": "Tabletten"
          },
          "denominator": {
            "value": 1
          }
        },
        "batch": {
          "lotNumber": "A123456789-1",
          "expirationDate": "2025-12-31"
        }
      }
    } ]
  }, {
    "name": "performerInstitution",
    "resource": {
      "resourceType": "Organization",
      "id": "0aec6870-ed81-4cdc-8872-d98dd10ba816",
      "meta": {
        "profile": [ "https://gematik.de/fhir/directory/StructureDefinition/OrganizationDirectory" ],
        "tag": [ {
          "system": "https://gematik.de/fhir/directory/CodeSystem/Origin",
          "code": "ldap"
        } ]
      },
      "identifier": [ {
        "system": "https://gematik.de/fhir/sid/telematik-id",
        "value": "3-07.2.1234560000.10.789"
      } ],
      "type": [ {
        "coding": [ {
          "system": "https://gematik.de/fhir/directory/CodeSystem/OrganizationProfessionOID",
          "code": "1.2.276.0.76.4.58"
        } ]
      } ],
      "name": "Lois Price"
    }
  } ]
}