{
  "resourceType": "Parameters",
  "id": "c3d405f2-0def-4d9a-941c-7163cc69987a",
  "meta": {
    "profile": [ "https://gematik.de/fhir/epa-medication/StructureDefinition/epa-op-provide-dispensation-erp-input-parameters|1.0.3" ]
  },
  "parameter": [ {
    "name": "rxDispensation",
    "part": [ {
      "name": "prescriptionId",
      "valueIdentifier": {
        "system": "https://gematik.de/fhir/erp/NamingSystem/GEM_ERP_NS_PrescriptionId",
        "value": "160.000.226.436.714.24"
      }
    }, {
      "name": "authoredOn",
      "valueDate": "1970-01-01"
    }, {
      "name": "medicationDispense",
      "resource": {
        "resourceType": "MedicationDispense",
        "id": "c5743f9d-176f-4a10-8a9e-9cff9aff71f4",
        "meta": {
          "profile": [ "https://gematik.de/fhir/epa-medication/StructureDefinition/epa-medication-dispense|1.0.3" ]
        },
        "identifier": [ {
          "system": "https://gematik.de/fhir/epa-medication/sid/rx-originator-process-identifier",
          "value": "null_160.000.226.436.714.24"
        } ],
        "status": "completed",
        "category": {
          "coding": [ {
            "system": "https://gematik.de/fhir/epa-medication/CodeSystem/EPAMedicationDispenseCategoryCS",
            "code": "prescription",
            "display": "prescription dispense"
          } ]
        },
        "medicationReference": {
          "reference": "Medication/5805b555-a182-46ac-877e-9876d7dd1488"
        },
        "subject": {
          "identifier": {
            "system": "http://fhir.de/sid/gkv/kvid-10",
            "value": "H064287850"
          }
        },
        "performer": [ {
          "actor": {
            "reference": "Organization/9742f4e8-8ca7-45c3-863a-97653d85bbb9"
          }
        } ],
        "whenHandedOver": "2024-07-02T11:46:33+02:00",
        "dosageInstruction": [ {
          "text": "Dj"
        } ]
      }
    }, {
      "name": "medication",
      "resource": {
        "resourceType": "Medication",
        "id": "5805b555-a182-46ac-877e-9876d7dd1488",
        "meta": {
          "profile": [ "https://gematik.de/fhir/epa-medication/StructureDefinition/epa-medication|1.0.3" ]
        },
        "extension": [ {
          "url": "https://gematik.de/fhir/epa-medication/StructureDefinition/drug-category-extension",
          "valueCoding": {
            "system": "https://gematik.de/fhir/epa-medication/CodeSystem/epa-drug-category-cs",
            "code": "00"
          }
        }, {
          "url": "https://gematik.de/fhir/epa-medication/StructureDefinition/medication-id-vaccine-extension",
          "valueBoolean": false
        }, {
          "url": "http://fhir.de/StructureDefinition/normgroesse",
          "valueCode": "N3"
        } ],
        "code": {
          "coding": [ {
            "system": "http://fhir.de/CodeSystem/ifa/pzn",
            "code": "03480822"
          } ],
          "text": "Tramadol 100 RET 1A Pharma"
        },
        "form": {
          "coding": [ {
            "system": "https://fhir.kbv.de/CodeSystem/KBV_CS_SFHIR_KBV_DARREICHUNGSFORM",
            "code": "RET"
          } ]
        },
        "amount": {
          "numerator": {
            "extension": [ {
              "url": "https://gematik.de/fhir/epa-medication/StructureDefinition/medication-packaging-size-extension",
              "valueString": "100"
            } ],
            "unit": "St"
          },
          "denominator": {
            "value": 1
          }
        }
      }
    }, {
      "name": "organization",
      "resource": {
        "resourceType": "Organization",
        "id": "9742f4e8-8ca7-45c3-863a-97653d85bbb9",
        "meta": {
          "profile": [ "https://gematik.de/fhir/directory/StructureDefinition/OrganizationDirectory|0.11.12" ],
          "tag": [ {
            "system": "https://gematik.de/fhir/directory/CodeSystem/Origin",
            "code": "ldap"
          } ]
        },
        "identifier": [ {
          "system": "https://gematik.de/fhir/sid/telematik-id",
          "value": "3-abc-1234567890"
        } ],
        "type": [ {
          "coding": [ {
            "system": "https://gematik.de/fhir/directory/CodeSystem/OrganizationProfessionOID",
            "code": "1.2.276.0.76.4.58"
          } ]
        } ],
        "name": "Noah Lott"
      }
    } ]
  } ]
}