<Parameters xmlns="http://hl7.org/fhir">
   <id value="c3d405f2-0def-4d9a-941c-7163cc69987a"/>
   <meta>
      <profile value="https://gematik.de/fhir/epa-medication/StructureDefinition/epa-op-provide-dispensation-erp-input-parameters|1.0.3"/>
   </meta>
   <parameter>
      <name value="rxDispensation"/>
      <part>
         <name value="prescriptionId"/>
         <valueIdentifier>
            <system value="https://gematik.de/fhir/erp/NamingSystem/GEM_ERP_NS_PrescriptionId"/>
            <value value="160.000.226.436.714.24"/>
         </valueIdentifier>
      </part>
      <part>
         <name value="authoredOn"/>
         <valueDate value="1970-01-01"/>
      </part>
      <part>
         <name value="medicationDispense"/>
         <resource>
            <MedicationDispense xmlns="http://hl7.org/fhir">
               <id value="c5743f9d-176f-4a10-8a9e-9cff9aff71f4"/>
               <meta>
                  <profile value="https://gematik.de/fhir/epa-medication/StructureDefinition/epa-medication-dispense|1.0.3"/>
               </meta>
               <identifier>
                  <system value="https://gematik.de/fhir/epa-medication/sid/rx-originator-process-identifier"/>
                  <value value="null_160.000.226.436.714.24"/>
               </identifier>
               <status value="completed"/>
               <category>
                  <coding>
                     <system value="https://gematik.de/fhir/epa-medication/CodeSystem/EPAMedicationDispenseCategoryCS"/>
                     <code value="prescription"/>
                     <display value="prescription dispense"/>
                  </coding>
               </category>
               <medicationReference>
                  <reference value="Medication/5805b555-a182-46ac-877e-9876d7dd1488"/>
               </medicationReference>
               <subject>
                  <identifier>
                     <system value="http://fhir.de/sid/gkv/kvid-10"/>
                     <value value="H064287850"/>
                  </identifier>
               </subject>
               <performer>
                  <actor>
                     <reference value="Organization/9742f4e8-8ca7-45c3-863a-97653d85bbb9"/>
                  </actor>
               </performer>
               <whenHandedOver value="2024-07-02T11:46:33+02:00"/>
               <dosageInstruction>
                  <text value="Dj"/>
               </dosageInstruction>
            </MedicationDispense>
         </resource>
      </part>
      <part>
         <name value="medication"/>
         <resource>
            <Medication xmlns="http://hl7.org/fhir">
               <id value="5805b555-a182-46ac-877e-9876d7dd1488"/>
               <meta>
                  <profile value="https://gematik.de/fhir/epa-medication/StructureDefinition/epa-medication|1.0.3"/>
               </meta>
               <extension url="https://gematik.de/fhir/epa-medication/StructureDefinition/drug-category-extension">
                  <valueCoding>
                     <system value="https://gematik.de/fhir/epa-medication/CodeSystem/epa-drug-category-cs"/>
                     <code value="00"/>
                  </valueCoding>
               </extension>
               <extension url="https://gematik.de/fhir/epa-medication/StructureDefinition/medication-id-vaccine-extension">
                  <valueBoolean value="false"/>
               </extension>
               <extension url="http://fhir.de/StructureDefinition/normgroesse">
                  <valueCode value="N3"/>
               </extension>
               <code>
                  <coding>
                     <system value="http://fhir.de/CodeSystem/ifa/pzn"/>
                     <code value="03480822"/>
                  </coding>
                  <text value="Tramadol 100 RET 1A Pharma"/>
               </code>
               <form>
                  <coding>
                     <system value="https://fhir.kbv.de/CodeSystem/KBV_CS_SFHIR_KBV_DARREICHUNGSFORM"/>
                     <code value="RET"/>
                  </coding>
               </form>
               <amount>
                  <numerator>
                     <extension url="https://gematik.de/fhir/epa-medication/StructureDefinition/medication-packaging-size-extension">
                        <valueString value="100"/>
                     </extension>
                     <unit value="St"/>
                  </numerator>
                  <denominator>
                     <value value="1"/>
                  </denominator>
               </amount>
            </Medication>
         </resource>
      </part>
      <part>
         <name value="organization"/>
         <resource>
            <Organization xmlns="http://hl7.org/fhir">
               <id value="9742f4e8-8ca7-45c3-863a-97653d85bbb9"/>
               <meta>
                  <profile value="https://gematik.de/fhir/directory/StructureDefinition/OrganizationDirectory|0.11.12"/>
                  <tag>
                     <system value="https://gematik.de/fhir/directory/CodeSystem/Origin"/>
                     <code value="ldap"/>
                  </tag>
               </meta>
               <identifier>
                  <system value="https://gematik.de/fhir/sid/telematik-id"/>
                  <value value="3-abc-1234567890"/>
               </identifier>
               <type>
                  <coding>
                     <system value="https://gematik.de/fhir/directory/CodeSystem/OrganizationProfessionOID"/>
                     <code value="1.2.276.0.76.4.58"/>
                  </coding>
               </type>
               <name value="Noah Lott"/>
            </Organization>
         </resource>
      </part>
   </parameter>
</Parameters>