<Bundle xmlns="http://hl7.org/fhir"><id value="d9f1bd2a-643e-4a40-9389-dac684733c07"/><meta><lastUpdated value="2023-04-18T08:36:56.759+02:00"/><profile value="https://fhir.kbv.de/StructureDefinition/KBV_PR_ERP_Bundle|1.1.0"/></meta><identifier><system value="https://gematik.de/fhir/erp/NamingSystem/GEM_ERP_NS_PrescriptionId"/><value value="160.000.040.326.782.51"/></identifier><type value="document"/><timestamp value="2023-04-18T08:36:56.759+02:00"/><entry><fullUrl value="https://pvs.gematik.de/fhir/Composition/257245bb-a5cc-445c-ac62-a003094ec7c2"/><resource><Composition xmlns="http://hl7.org/fhir"><id value="257245bb-a5cc-445c-ac62-a003094ec7c2"/><meta><profile value="https://fhir.kbv.de/StructureDefinition/KBV_PR_ERP_Composition|1.1.0"/></meta><extension url="https://fhir.kbv.de/StructureDefinition/KBV_EX_FOR_Legal_basis"><valueCoding><system value="https://fhir.kbv.de/CodeSystem/KBV_CS_SFHIR_KBV_STATUSKENNZEICHEN"/><code value="00"/></valueCoding></extension><status value="final"/><type><coding><system value="https://fhir.kbv.de/CodeSystem/KBV_CS_SFHIR_KBV_FORMULAR_ART"/><code value="e16A"/></coding></type><subject><reference value="Patient/3bebc09f-538a-43bf-a58c-1ec391e41fbf"/></subject><date value="2023-04-18T08:36:56+02:00"/><author><reference value="Practitioner/6a7f649d-dd68-457a-ad4d-c705ea56579b"/><type value="Practitioner"/></author><author><type value="Device"/><identifier><system value="https://fhir.kbv.de/NamingSystem/KBV_NS_FOR_Pruefnummer"/><value value="GEMATIK/410/2109/36/123"/></identifier></author><title value="elektronische Arzneimittelverordnung"/><custodian><reference value="Organization/78e1327a-f925-4ec7-bbb1-f648d99c2efc"/></custodian><section><code><coding><system value="https://fhir.kbv.de/CodeSystem/KBV_CS_ERP_Section_Type"/><code value="Coverage"/></coding></code><entry><reference value="Coverage/5af4ca95-7d6d-44cc-808c-2909c12bcc15"/></entry></section><section><code><coding><system value="https://fhir.kbv.de/CodeSystem/KBV_CS_ERP_Section_Type"/><code value="Prescription"/></coding></code><entry><reference value="MedicationRequest/76000d7e-19fd-40df-bdda-e4a68b1c643a"/></entry></section></Composition></resource></entry><entry><fullUrl value="https://pvs.gematik.de/fhir/MedicationRequest/76000d7e-19fd-40df-bdda-e4a68b1c643a"/><resource><MedicationRequest xmlns="http://hl7.org/fhir"><id value="76000d7e-19fd-40df-bdda-e4a68b1c643a"/><meta><profile value="https://fhir.kbv.de/StructureDefinition/KBV_PR_ERP_Prescription|1.1.0"/></meta><extension url="https://fhir.kbv.de/StructureDefinition/KBV_EX_ERP_BVG"><valueBoolean value="false"/></extension><extension url="https://fhir.kbv.de/StructureDefinition/KBV_EX_ERP_EmergencyServicesFee"><valueBoolean value="false"/></extension><extension url="https://fhir.kbv.de/StructureDefinition/KBV_EX_ERP_Multiple_Prescription"><extension url="Kennzeichen"><valueBoolean value="false"/></extension></extension><extension url="https://fhir.kbv.de/StructureDefinition/KBV_EX_FOR_StatusCoPayment"><valueCoding><system value="https://fhir.kbv.de/CodeSystem/KBV_CS_FOR_StatusCoPayment"/><code value="0"/></valueCoding></extension><status value="active"/><intent value="order"/><medicationReference><reference value="Medication/60c7bfe2-a48f-42ee-af9c-3d32f3c71b24"/></medicationReference><subject><reference value="Patient/3bebc09f-538a-43bf-a58c-1ec391e41fbf"/></subject><authoredOn value="2023-04-18"/><requester><reference value="Practitioner/6a7f649d-dd68-457a-ad4d-c705ea56579b"/></requester><insurance><reference value="Coverage/5af4ca95-7d6d-44cc-808c-2909c12bcc15"/></insurance><dosageInstruction><extension url="https://fhir.kbv.de/StructureDefinition/KBV_EX_ERP_DosageFlag"><valueBoolean value="true"/></extension><text value="1-0-0-0"/></dosageInstruction><dispenseRequest><quantity><value value="1"/><system value="http://unitsofmeasure.org"/><code value="{Package}"/></quantity></dispenseRequest><substitution><allowedBoolean value="true"/></substitution></MedicationRequest></resource></entry><entry><fullUrl value="https://pvs.gematik.de/fhir/Medication/60c7bfe2-a48f-42ee-af9c-3d32f3c71b24"/><resource><Medication xmlns="http://hl7.org/fhir"><id value="60c7bfe2-a48f-42ee-af9c-3d32f3c71b24"/><meta><profile value="https://fhir.kbv.de/StructureDefinition/KBV_PR_ERP_Medication_PZN|1.1.0"/></meta><extension url="https://fhir.kbv.de/StructureDefinition/KBV_EX_Base_Medication_Type"><valueCodeableConcept><coding><system value="http://snomed.info/sct"/><version value="http://snomed.info/sct/900000000000207008/version/20220331"/><code value="763158003"/><display value="Medicinal product (product)"/></coding></valueCodeableConcept></extension><extension url="https://fhir.kbv.de/StructureDefinition/KBV_EX_ERP_Medication_Category"><valueCoding><system value="https://fhir.kbv.de/CodeSystem/KBV_CS_ERP_Medication_Category"/><code value="00"/></valueCoding></extension><extension url="https://fhir.kbv.de/StructureDefinition/KBV_EX_ERP_Medication_Vaccine"><valueBoolean value="false"/></extension><extension url="http://fhir.de/StructureDefinition/normgroesse"><valueCode value="NB"/></extension><code><coding><system value="http://fhir.de/CodeSystem/ifa/pzn"/><code value="12345678"/></coding><text value="Schmerzmittel"/></code><form><coding><system value="https://fhir.kbv.de/CodeSystem/KBV_CS_SFHIR_KBV_DARREICHUNGSFORM"/><code value="TAB"/></coding></form><amount><numerator><extension url="https://fhir.kbv.de/StructureDefinition/KBV_EX_ERP_Medication_PackagingSize"><valueString value="1"/></extension><unit value="Stk"/></numerator><denominator><value value="1"/></denominator></amount></Medication></resource></entry><entry><fullUrl value="https://pvs.gematik.de/fhir/Patient/3bebc09f-538a-43bf-a58c-1ec391e41fbf"/><resource><Patient xmlns="http://hl7.org/fhir"><id value="3bebc09f-538a-43bf-a58c-1ec391e41fbf"/><meta><profile value="https://fhir.kbv.de/StructureDefinition/KBV_PR_FOR_Patient|1.1.0"/></meta><identifier><type><coding><system value="http://fhir.de/CodeSystem/identifier-type-de-basis"/><code value="GKV"/></coding></type><system value="http://fhir.de/sid/gkv/kvid-10"/><value value="X110498565"/></identifier><name><use value="official"/><family value="Hüllmann"><extension url="http://hl7.org/fhir/StructureDefinition/humanname-own-name"><valueString value="Hüllmann"/></extension></family><given value="Sina"/></name><birthDate value="1969-12-30"/><address><type value="both"/><line value="Alfred-Kubin-Str. 14a"><extension url="http://hl7.org/fhir/StructureDefinition/iso21090-ADXP-houseNumber"><valueString value="14a"/></extension><extension url="http://hl7.org/fhir/StructureDefinition/iso21090-ADXP-streetName"><valueString value="Alfred-Kubin-Str."/></extension></line><city value="Tinagrün"/><postalCode value="35432"/><country value="D"/></address></Patient></resource></entry><entry><fullUrl value="https://pvs.gematik.de/fhir/Organization/78e1327a-f925-4ec7-bbb1-f648d99c2efc"/><resource><Organization xmlns="http://hl7.org/fhir"><id value="78e1327a-f925-4ec7-bbb1-f648d99c2efc"/><meta><profile value="https://fhir.kbv.de/StructureDefinition/KBV_PR_FOR_Organization|1.1.0"/></meta><identifier><type><coding><system value="http://terminology.hl7.org/CodeSystem/v2-0203"/><code value="BSNR"/></coding></type><system value="https://fhir.kbv.de/NamingSystem/KBV_NS_Base_BSNR"/><value value="473130765"/></identifier><name value="Arztpraxis Schraßer"/><telecom><system value="phone"/><value value="+49-554-4456085"/></telecom><telecom><system value="email"/><value value="yusuf.lauinger@schmalzle.name"/></telecom><address><type value="both"/><line value="Schäfershütte 85b"><extension url="http://hl7.org/fhir/StructureDefinition/iso21090-ADXP-houseNumber"><valueString value="85b"/></extension><extension url="http://hl7.org/fhir/StructureDefinition/iso21090-ADXP-streetName"><valueString value="Schäfershütte"/></extension></line><city value="Bad Jarnohagen"/><postalCode value="42720"/><country value="D"/></address></Organization></resource></entry><entry><fullUrl value="https://pvs.gematik.de/fhir/Coverage/5af4ca95-7d6d-44cc-808c-2909c12bcc15"/><resource><Coverage xmlns="http://hl7.org/fhir"><id value="5af4ca95-7d6d-44cc-808c-2909c12bcc15"/><meta><profile value="https://fhir.kbv.de/StructureDefinition/KBV_PR_FOR_Coverage|1.1.0"/></meta><extension url="http://fhir.de/StructureDefinition/gkv/besondere-personengruppe"><valueCoding><system value="https://fhir.kbv.de/CodeSystem/KBV_CS_SFHIR_KBV_PERSONENGRUPPE"/><code value="00"/></valueCoding></extension><extension url="http://fhir.de/StructureDefinition/gkv/dmp-kennzeichen"><valueCoding><system value="https://fhir.kbv.de/CodeSystem/KBV_CS_SFHIR_KBV_DMP"/><code value="00"/></valueCoding></extension><extension url="http://fhir.de/StructureDefinition/gkv/wop"><valueCoding><system value="https://fhir.kbv.de/CodeSystem/KBV_CS_SFHIR_ITA_WOP"/><code value="38"/></valueCoding></extension><extension url="http://fhir.de/StructureDefinition/gkv/versichertenart"><valueCoding><system value="https://fhir.kbv.de/CodeSystem/KBV_CS_SFHIR_KBV_VERSICHERTENSTATUS"/><code value="1"/></valueCoding></extension><status value="active"/><type><coding><system value="http://fhir.de/CodeSystem/versicherungsart-de-basis"/><code value="GKV"/></coding></type><beneficiary><reference value="Patient/8ec5caa8-6ea2-42c8-bc11-d8afdbd6de0c"/></beneficiary><payor><identifier><system value="http://fhir.de/sid/arge-ik/iknr"/><value value="144221479"/></identifier><display value="Farmer Mecklenburg-Vorpommern"/></payor></Coverage></resource></entry><entry><fullUrl value="https://pvs.gematik.de/fhir/Practitioner/6a7f649d-dd68-457a-ad4d-c705ea56579b"/><resource><Practitioner xmlns="http://hl7.org/fhir"><id value="6a7f649d-dd68-457a-ad4d-c705ea56579b"/><meta><profile value="https://fhir.kbv.de/StructureDefinition/KBV_PR_FOR_Practitioner|1.1.0"/></meta><identifier><type><coding><system value="http://terminology.hl7.org/CodeSystem/v2-0203"/><code value="LANR"/></coding></type><system value="https://fhir.kbv.de/NamingSystem/KBV_NS_Base_ANR"/><value value="985322922"/></identifier><name><use value="official"/><family value="Schraßer"><extension url="http://hl7.org/fhir/StructureDefinition/humanname-own-name"><valueString value="Schraßer"/></extension></family><given value="Dr."/><prefix value="Dr."><extension url="http://hl7.org/fhir/StructureDefinition/iso21090-EN-qualifier"><valueCode value="AC"/></extension></prefix></name><qualification><code><coding><system value="https://fhir.kbv.de/CodeSystem/KBV_CS_FOR_Qualification_Type"/><code value="00"/></coding></code></qualification><qualification><code><coding><system value="https://fhir.kbv.de/CodeSystem/KBV_CS_FOR_Berufsbezeichnung"/><code value="Berufsbezeichnung"/></coding><text value="Super-Facharzt für alles Mögliche"/></code></qualification></Practitioner></resource></entry></Bundle>