{
  "resourceType": "Parameters",
  "id": "80785418-076e-4318-9c29-addb6180a1f5",
  "meta": {
    "profile": [
      "https://gematik.de/fhir/erp/StructureDefinition/GEM_ERP_PR_PAR_CloseOperation_Input|1.4"
    ]
  },
  "parameter": [
    {
      "name": "rxDispensation",
      "part": [
        {
          "name": "medicationDispense",
          "resource": {
            "resourceType": "MedicationDispense",
            "id": "8fdf05c2-0150-4c5e-a45c-3c300ca8d455",
            "meta": {
              "profile": [
                "https://gematik.de/fhir/erp/StructureDefinition/GEM_ERP_PR_MedicationDispense|1.4"
              ]
            },
            "identifier": [
              {
                "system": "https://gematik.de/fhir/erp/NamingSystem/GEM_ERP_NS_PrescriptionId",
                "value": "160.115.468.135.035.50"
              }
            ],
            "status": "completed",
            "medicationReference": {
              "reference": "urn:uuid:f18cf2b8-9618-4445-a914-d79083e63be9"
            },
            "subject": {
              "identifier": {
                "system": "http://fhir.de/sid/gkv/kvid-10",
                "value": "K220635158"
              }
            },
            "performer": [
              {
                "actor": {
                  "identifier": {
                    "system": "https://gematik.de/fhir/sid/telematik-id",
                    "value": "3-07.2.1234560000.10.789"
                  }
                }
              }
            ],
            "quantity": {
              "value": 2,
              "system": "http://unitsofmeasure.org",
              "code": "{Package}"
            },
            "whenHandedOver": "2025-01-19"
          }
        },
        {
          "name": "medication",
          "resource": {
            "resourceType": "Medication",
            "id": "f18cf2b8-9618-4445-a914-d79083e63be9",
            "meta": {
              "profile": [
                "https://gematik.de/fhir/erp/StructureDefinition/GEM_ERP_PR_Medication|1.4"
              ]
            },
            "code": {
              "coding": [
                {
                  "system": "http://fhir.de/CodeSystem/ifa/pzn",
                  "code": "06437028"
                }
              ],
              "text": "Doxycyclin 100-1A Pharma Tabletten N2"
            },
            "form": {
              "coding": [
                {
                  "system": "https://fhir.kbv.de/CodeSystem/KBV_CS_SFHIR_KBV_DARREICHUNGSFORM",
                  "code": "TAB",
                  "display": "Tabletten"
                }
              ]
            },
            "amount": {
              "numerator": {
                "extension": [
                  {
                    "url": "https://gematik.de/fhir/epa-medication/StructureDefinition/medication-packaging-size-extension",
                    "valueString": "20"
                  }
                ],
                "unit": "Stück"
              },
              "denominator": {
                "value": 1
              }
            },
            "ingredient": [
              {
                "itemCodeableConcept": {
                  "text": "Doxycyclin"
                },
                "strength": {
                  "numerator": {
                    "value": 100,
                    "unit": "mg",
                    "_system": {
                      "extension": [
                        {
                          "url": "http://hl7.org/fhir/StructureDefinition/data-absent-reason",
                          "valueCode": "unknown"
                        }
                      ]
                    },
                    "_code": {
                      "extension": [
                        {
                          "url": "http://hl7.org/fhir/StructureDefinition/data-absent-reason",
                          "valueCode": "unknown"
                        }
                      ]
                    }
                  },
                  "denominator": {
                    "value": 1,
                    "_system": {
                      "extension": [
                        {
                          "url": "http://hl7.org/fhir/StructureDefinition/data-absent-reason",
                          "valueCode": "unknown"
                        }
                      ]
                    },
                    "_code": {
                      "extension": [
                        {
                          "url": "http://hl7.org/fhir/StructureDefinition/data-absent-reason",
                          "valueCode": "unknown"
                        }
                      ]
                    }
                  }
                }
              }
            ],
            "batch": {
              "lotNumber": "A9876543210123-45678"
            }
          }
        }
      ]
    },
    {
      "name": "rxDispensation",
      "part": [
        {
          "name": "medicationDispense",
          "resource": {
            "resourceType": "MedicationDispense",
            "id": "0455a017-acd8-47cf-9036-e9d9920ecf55",
            "meta": {
              "profile": [
                "https://gematik.de/fhir/erp/StructureDefinition/GEM_ERP_PR_MedicationDispense|1.4"
              ]
            },
            "identifier": [
              {
                "system": "https://gematik.de/fhir/erp/NamingSystem/GEM_ERP_NS_PrescriptionId",
                "value": "160.115.468.135.035.50"
              }
            ],
            "status": "completed",
            "medicationReference": {
              "reference": "urn:uuid:43a4b03c-de10-40b9-a592-26cd42fd9bf9"
            },
            "subject": {
              "identifier": {
                "system": "http://fhir.de/sid/gkv/kvid-10",
                "value": "K220635158"
              }
            },
            "performer": [
              {
                "actor": {
                  "identifier": {
                    "system": "https://gematik.de/fhir/sid/telematik-id",
                    "value": "3-07.2.1234560000.10.789"
                  }
                }
              }
            ],
            "whenHandedOver": "2025-01-19"
          }
        },
        {
          "name": "medication",
          "resource": {
            "resourceType": "Medication",
            "id": "43a4b03c-de10-40b9-a592-26cd42fd9bf9",
            "meta": {
              "profile": [
                "https://gematik.de/fhir/erp/StructureDefinition/GEM_ERP_PR_Medication|1.4"
              ]
            },
            "code": {
              "coding": [
                {
                  "system": "http://fhir.de/CodeSystem/ifa/pzn",
                  "code": "06437011"
                }
              ],
              "text": "Doxycyclin 100-1A Pharma Tabletten N1"
            },
            "form": {
              "coding": [
                {
                  "system": "https://fhir.kbv.de/CodeSystem/KBV_CS_SFHIR_KBV_DARREICHUNGSFORM",
                  "code": "TAB",
                  "display": "Tabletten"
                }
              ]
            },
            "amount": {
              "numerator": {
                "extension": [
                  {
                    "url": "https://gematik.de/fhir/epa-medication/StructureDefinition/medication-packaging-size-extension",
                    "valueString": "10"
                  }
                ],
                "unit": "Stück"
              },
              "denominator": {
                "value": 1
              }
            },
            "ingredient": [
              {
                "itemCodeableConcept": {
                  "text": "Doxycyclin"
                },
                "strength": {
                  "numerator": {
                    "value": 100,
                    "unit": "mg",
                    "_system": {
                      "extension": [
                        {
                          "url": "http://hl7.org/fhir/StructureDefinition/data-absent-reason",
                          "valueCode": "unknown"
                        }
                      ]
                    },
                    "_code": {
                      "extension": [
                        {
                          "url": "http://hl7.org/fhir/StructureDefinition/data-absent-reason",
                          "valueCode": "unknown"
                        }
                      ]
                    }
                  },
                  "denominator": {
                    "value": 1,
                    "_system": {
                      "extension": [
                        {
                          "url": "http://hl7.org/fhir/StructureDefinition/data-absent-reason",
                          "valueCode": "unknown"
                        }
                      ]
                    },
                    "_code": {
                      "extension": [
                        {
                          "url": "http://hl7.org/fhir/StructureDefinition/data-absent-reason",
                          "valueCode": "unknown"
                        }
                      ]
                    }
                  }
                }
              }
            ],
            "batch": {
              "lotNumber": "A9876543210123-87654"
            }
          }
        }
      ]
    }
  ]
}