<Bundle xmlns="http://hl7.org/fhir">
   <id value="d1e28000-0000-0000-0003-000000000000"/>
   <meta>
      <profile value="https://gematik.de/fhir/erp/StructureDefinition/GEM_ERP_PR_Bundle|1.4"/>
   </meta>
   <identifier>
      <system value="https://gematik.de/fhir/erp/NamingSystem/GEM_ERP_NS_PrescriptionId"/>
      <value value="209.000.000.032.994.37"/>
   </identifier>
   <type value="document"/>
   <timestamp value="2024-02-08T18:21:02.889+00:00"/>
   <link>
      <relation value="self"/>
      <url value="https://erp-ref.zentral.erp.splitdns.ti-dienste.de/Task/209.000.000.032.994.37/$close/"/>
   </link>
   <entry>
      <fullUrl value="urn:uuid:e3916796-60f6-4ab5-8f81-99a78e675949"/>
      <resource>
         <Composition xmlns="http://hl7.org/fhir">
            <meta>
               <profile value="https://gematik.de/fhir/erp/StructureDefinition/GEM_ERP_PR_Composition|1.4"/>
            </meta>
            <extension url="https://gematik.de/fhir/erp/StructureDefinition/GEM_ERP_EX_Beneficiary">
               <valueIdentifier>
                  <system value="https://gematik.de/fhir/sid/telematik-id"/>
                  <value value="3-SMC-B-Testkarte-883110000116873"/>
               </valueIdentifier>
            </extension>
            <status value="final"/>
            <type>
               <coding>
                  <system value="https://gematik.de/fhir/erp/CodeSystem/GEM_ERP_CS_DocumentType"/>
                  <code value="3"/>
                  <display value="Receipt"/>
               </coding>
            </type>
            <date value="2024-02-08T18:21:02.885+00:00"/>
            <author>
               <reference value="urn:uuid:a8ee7a3f-0c71-455e-97b8-554bb1b9be35"/>
            </author>
            <title value="Quittung"/>
            <event>
               <period>
                  <start value="2024-02-08T18:21:01.330+00:00"/>
                  <end value="2024-02-08T18:21:02.885+00:00"/>
               </period>
            </event>
            <section>
               <entry>
                  <reference value="urn:uuid:04a210af-1e42-4981-9833-8a73c8d62e2b"/>
               </entry>
            </section>
         </Composition>
      </resource>
   </entry>
   <entry>
      <fullUrl value="urn:uuid:a8ee7a3f-0c71-455e-97b8-554bb1b9be35"/>
      <resource>
         <Device xmlns="http://hl7.org/fhir">
            <id value="1"/>
            <meta>
               <profile value="https://gematik.de/fhir/erp/StructureDefinition/GEM_ERP_PR_Device|1.4"/>
            </meta>
            <status value="active"/>
            <serialNumber value="1.13.0"/>
            <deviceName>
               <name value="E-Rezept Fachdienst"/>
               <type value="user-friendly-name"/>
            </deviceName>
            <version>
               <value value="1.13.0"/>
            </version>
            <contact>
               <system value="email"/>
               <value value="betrieb@gematik.de"/>
            </contact>
         </Device>
      </resource>
   </entry>
   <entry>
      <fullUrl value="urn:uuid:04a210af-1e42-4981-9833-8a73c8d62e2b"/>
      <resource>
         <Binary xmlns="http://hl7.org/fhir">
            <meta>
               <profile value="https://gematik.de/fhir/erp/StructureDefinition/GEM_ERP_PR_Digest|1.4"/>
            </meta>
            <contentType value="application/octet-stream"/>
            <data value="5otQv48ep+XBC1Tv5uh6SQVYQDHzCt5zlp8Z24QZQtg="/>
         </Binary>
      </resource>
   </entry>
   <signature>
      <type>
         <system value="urn:iso-astm:E1762-95:2013"/>
         <code value="1.2.840.10065.1.12.1.1"/>
      </type>
      <when value="2024-02-08T18:21:02.892+00:00"/>
      <who>
         <reference value="urn:uuid:a8ee7a3f-0c71-455e-97b8-554bb1b9be35"/>
      </who>
      <sigFormat value="application/pkcs7-mime"/>
      <data value=""/>
   </signature>
</Bundle>