<Bundle xmlns="http://hl7.org/fhir">
   <id value="d13ad501-0000-0000-0003-000000000000"/>
   <meta>
      <profile value="https://gematik.de/fhir/erp/StructureDefinition/GEM_ERP_PR_Bundle|1.4"/>
   </meta>
   <identifier>
      <system value="https://gematik.de/fhir/erp/NamingSystem/GEM_ERP_NS_PrescriptionId"/>
      <value value="209.000.000.120.122.68"/>
   </identifier>
   <type value="document"/>
   <timestamp value="2025-03-28T08:09:34.839+00:00"/>
   <link>
      <relation value="self"/>
      <url value="https://erp-ref.zentral.erp.splitdns.ti-dienste.de/Task/209.000.000.120.122.68/$close/"/>
   </link>
   <entry>
      <fullUrl value="urn:uuid:79a99af0-0323-4d30-87bd-ba779f6804b9"/>
      <resource>
         <Composition xmlns="http://hl7.org/fhir">
            <id value="79a99af0-0323-4d30-87bd-ba779f6804b9"/>
            <meta>
               <profile value="https://gematik.de/fhir/erp/StructureDefinition/GEM_ERP_PR_Composition|1.4"/>
            </meta>
            <extension url="https://gematik.de/fhir/erp/StructureDefinition/GEM_ERP_EX_Beneficiary">
               <valueIdentifier>
                  <system value="https://gematik.de/fhir/sid/telematik-id"/>
                  <value value="3-SMC-B-Testkarte--883110000163973"/>
               </valueIdentifier>
            </extension>
            <status value="final"/>
            <type>
               <coding>
                  <system value="https://gematik.de/fhir/erp/CodeSystem/GEM_ERP_CS_DocumentType"/>
                  <code value="3"/>
                  <display value="Receipt"/>
               </coding>
            </type>
            <date value="2025-03-28T08:09:34.834+00:00"/>
            <author>
               <reference value="urn:uuid:84e10781-6e34-4d9d-b9cd-721d480eff8e"/>
            </author>
            <title value="Quittung"/>
            <event>
               <period>
                  <start value="2025-03-28T08:09:34.532+00:00"/>
                  <end value="2025-03-28T08:09:34.834+00:00"/>
               </period>
            </event>
            <section>
               <entry>
                  <reference value="urn:uuid:0a7118ee-302a-4b58-849d-4b0b0b661f9d"/>
               </entry>
            </section>
         </Composition>
      </resource>
   </entry>
   <entry>
      <fullUrl value="urn:uuid:84e10781-6e34-4d9d-b9cd-721d480eff8e"/>
      <resource>
         <Device xmlns="http://hl7.org/fhir">
            <id value="1"/>
            <meta>
               <profile value="https://gematik.de/fhir/erp/StructureDefinition/GEM_ERP_PR_Device|1.4"/>
            </meta>
            <status value="active"/>
            <serialNumber value="1.17.0"/>
            <deviceName>
               <name value="E-Rezept Fachdienst"/>
               <type value="user-friendly-name"/>
            </deviceName>
            <version>
               <value value="1.17.0"/>
            </version>
            <contact>
               <system value="email"/>
               <value value="betrieb@gematik.de"/>
            </contact>
         </Device>
      </resource>
   </entry>
   <entry>
      <fullUrl value="urn:uuid:0a7118ee-302a-4b58-849d-4b0b0b661f9d"/>
      <resource>
         <Binary xmlns="http://hl7.org/fhir">
            <id value="0a7118ee-302a-4b58-849d-4b0b0b661f9d"/>
            <meta>
               <versionId value="1"/>
               <profile value="https://gematik.de/fhir/erp/StructureDefinition/GEM_ERP_PR_Digest|1.4"/>
            </meta>
            <contentType value="application/octet-stream"/>
            <data value="0Oa4xwnNJSDT4TmLzREHFoTx1IFQBThCihDyjQOXRq0="/>
         </Binary>
      </resource>
   </entry>
   <signature>
      <type>
         <system value="urn:iso-astm:E1762-95:2013"/>
         <code value="1.2.840.10065.1.12.1.1"/>
      </type>
      <when value="2025-03-28T08:09:34.840+00:00"/>
      <who>
         <reference value="urn:uuid:84e10781-6e34-4d9d-b9cd-721d480eff8e"/>
      </who>
      <sigFormat value="application/pkcs7-mime"/>
      <data value=""/>
   </signature>
</Bundle>