<Bundle xmlns="http://hl7.org/fhir"><id value="d65e31d8-01f0-4624-abc4-6f93b886477f"/><meta><lastUpdated value="2023-11-27T08:36:52.740+01:00"/><profile value="http://fhir.abda.de/eRezeptAbgabedaten/StructureDefinition/DAV-PKV-PR-ERP-AbgabedatenBundle|1.2"/></meta><identifier><system value="https://gematik.de/fhir/erp/NamingSystem/GEM_ERP_NS_PrescriptionId"/><value value="200.000.000.042.781.59"/></identifier><type value="document"/><timestamp value="2023-11-27T08:36:52.740+01:00"/><entry><fullUrl value="urn:uuid:e7c1f83c-8922-4924-839f-e0b1f03dc63b"/><resource><Composition xmlns="http://hl7.org/fhir"><id value="e7c1f83c-8922-4924-839f-e0b1f03dc63b"/><meta><profile value="http://fhir.abda.de/eRezeptAbgabedaten/StructureDefinition/DAV-PKV-PR-ERP-AbgabedatenComposition|1.2"/></meta><status value="final"/><type><coding><system value="http://fhir.abda.de/eRezeptAbgabedaten/CodeSystem/DAV-CS-ERP-CompositionTypes"/><code value="ERezeptAbgabedaten"/></coding></type><date value="2023-11-27T08:36:52+01:00"/><author><reference value="urn:uuid:083cbdd6-4c90-4272-860e-5889826bec4a"/></author><title value="ERezeptAbgabedaten"/><section><title value="Apotheke"/><entry><reference value="urn:uuid:083cbdd6-4c90-4272-860e-5889826bec4a"/></entry></section><section><title value="Abgabeinformationen"/><entry><reference value="urn:uuid:c23298cd-f1bd-421b-ab3c-51009b7f47ce"/></entry></section></Composition></resource></entry><entry><fullUrl value="urn:uuid:083cbdd6-4c90-4272-860e-5889826bec4a"/><resource><Organization xmlns="http://hl7.org/fhir"><id value="083cbdd6-4c90-4272-860e-5889826bec4a"/><meta><profile value="http://fhir.abda.de/eRezeptAbgabedaten/StructureDefinition/DAV-PKV-PR-ERP-Apotheke|1.2"/></meta><identifier><system value="http://fhir.de/sid/arge-ik/iknr"/><value value="411983048"/></identifier><name value="Apotheke Annie Buddyhome"/><address><type value="physical"/><line value="In der Birkenau 75b"><extension url="http://hl7.org/fhir/StructureDefinition/iso21090-ADXP-houseNumber"><valueString value="75b"/></extension><extension url="http://hl7.org/fhir/StructureDefinition/iso21090-ADXP-streetName"><valueString value="In der Birkenau"/></extension></line><city value="Miradorf"/><postalCode value="20782"/><country value="D"/></address></Organization></resource></entry><entry><fullUrl value="urn:uuid:f1e58cff-515a-40b9-a4da-626cbe7f712c"/><resource><Invoice xmlns="http://hl7.org/fhir"><id value="f1e58cff-515a-40b9-a4da-626cbe7f712c"/><meta><profile value="http://fhir.abda.de/eRezeptAbgabedaten/StructureDefinition/DAV-PKV-PR-ERP-Abrechnungszeilen|1.2"/></meta><status value="issued"/><type><coding><system value="http://fhir.abda.de/eRezeptAbgabedaten/CodeSystem/DAV-CS-ERP-InvoiceTyp"/><code value="Abrechnungszeilen"/></coding></type><lineItem><sequence value="1"/><chargeItemCodeableConcept><coding><system value="http://fhir.de/CodeSystem/ifa/pzn"/><code value="68561879"/></coding><text value="Doxvofloxib"/></chargeItemCodeableConcept><priceComponent><extension url="http://fhir.abda.de/eRezeptAbgabedaten/StructureDefinition/DAV-EX-ERP-KostenVersicherter"><extension url="Kategorie"><valueCodeableConcept><coding><system value="http://fhir.abda.de/eRezeptAbgabedaten/CodeSystem/DAV-PKV-CS-ERP-KostenVersicherterKategorie"/><code value="0"/></coding></valueCodeableConcept></extension><extension url="Kostenbetrag"><valueMoney><value value="7.05"/><currency value="EUR"/></valueMoney></extension></extension><extension url="http://fhir.abda.de/eRezeptAbgabedaten/StructureDefinition/DAV-EX-ERP-MwStSatz"><valueDecimal value="14.76"/></extension><type value="informational"/><factor value="1"/><amount><value value="15.50"/><currency value="EUR"/></amount></priceComponent></lineItem><lineItem><sequence value="2"/><chargeItemCodeableConcept><coding><system value="http://fhir.de/CodeSystem/ifa/pzn"/><code value="70288190"/></coding><text value="Fluramixital"/></chargeItemCodeableConcept><priceComponent><extension url="http://fhir.abda.de/eRezeptAbgabedaten/StructureDefinition/DAV-EX-ERP-KostenVersicherter"><extension url="Kategorie"><valueCodeableConcept><coding><system value="http://fhir.abda.de/eRezeptAbgabedaten/CodeSystem/DAV-PKV-CS-ERP-KostenVersicherterKategorie"/><code value="0"/></coding></valueCodeableConcept></extension><extension url="Kostenbetrag"><valueMoney><value value="130.05"/><currency value="EUR"/></valueMoney></extension></extension><extension url="http://fhir.abda.de/eRezeptAbgabedaten/StructureDefinition/DAV-EX-ERP-MwStSatz"><valueDecimal value="14.76"/></extension><type value="informational"/><factor value="1"/><amount><value value="960.51"/><currency value="EUR"/></amount></priceComponent></lineItem><totalGross><extension url="http://fhir.abda.de/eRezeptAbgabedaten/StructureDefinition/DAV-EX-ERP-Gesamtzuzahlung"><valueMoney><value value="137.10"/><currency value="EUR"/></valueMoney></extension><value value="976.01"/><currency value="EUR"/></totalGross></Invoice></resource></entry><entry><fullUrl value="urn:uuid:c23298cd-f1bd-421b-ab3c-51009b7f47ce"/><resource><MedicationDispense xmlns="http://hl7.org/fhir"><id value="c23298cd-f1bd-421b-ab3c-51009b7f47ce"/><meta><profile value="http://fhir.abda.de/eRezeptAbgabedaten/StructureDefinition/DAV-PKV-PR-ERP-Abgabeinformationen|1.2"/></meta><extension url="http://fhir.abda.de/eRezeptAbgabedaten/StructureDefinition/DAV-PKV-EX-ERP-AbrechnungsTyp"><valueCodeableConcept><coding><system value="http://fhir.abda.de/eRezeptAbgabedaten/CodeSystem/DAV-PKV-CS-ERP-AbrechnungsTyp"/><code value="1"/></coding></valueCodeableConcept></extension><extension url="http://fhir.abda.de/eRezeptAbgabedaten/StructureDefinition/DAV-EX-ERP-Abrechnungszeilen"><valueReference><reference value="urn:uuid:f1e58cff-515a-40b9-a4da-626cbe7f712c"/></valueReference></extension><status value="completed"/><medicationCodeableConcept><coding><system value="http://terminology.hl7.org/CodeSystem/data-absent-reason"/><code value="not-applicable"/></coding></medicationCodeableConcept><performer><actor><reference value="urn:uuid:083cbdd6-4c90-4272-860e-5889826bec4a"/></actor></performer><authorizingPrescription><identifier><system value="https://gematik.de/fhir/erp/NamingSystem/GEM_ERP_NS_PrescriptionId"/><value value="200.000.000.042.781.59"/></identifier></authorizingPrescription><type><coding><system value="http://fhir.abda.de/eRezeptAbgabedaten/CodeSystem/DAV-CS-ERP-MedicationDispenseTyp"/><code value="Abgabeinformationen"/></coding></type><whenHandedOver value="2023-11-27"/></MedicationDispense></resource></entry></Bundle>