<Bundle xmlns="http://hl7.org/fhir"><id value="a0e98033-adb8-4d76-b69f-c968d0ab6cdf"/><meta><lastUpdated value="2023-11-27T08:36:55.772+01:00"/><profile value="http://fhir.abda.de/eRezeptAbgabedaten/StructureDefinition/DAV-PKV-PR-ERP-AbgabedatenBundle|1.2"/></meta><identifier><system value="https://gematik.de/fhir/erp/NamingSystem/GEM_ERP_NS_PrescriptionId"/><value value="200.000.000.042.781.59"/></identifier><type value="document"/><timestamp value="2023-11-27T08:36:55.772+01:00"/><entry><fullUrl value="urn:uuid:884f348c-156c-4a16-9c36-e47df1977940"/><resource><Composition xmlns="http://hl7.org/fhir"><id value="884f348c-156c-4a16-9c36-e47df1977940"/><meta><profile value="http://fhir.abda.de/eRezeptAbgabedaten/StructureDefinition/DAV-PKV-PR-ERP-AbgabedatenComposition|1.2"/></meta><status value="final"/><type><coding><system value="http://fhir.abda.de/eRezeptAbgabedaten/CodeSystem/DAV-CS-ERP-CompositionTypes"/><code value="ERezeptAbgabedaten"/></coding></type><date value="2023-11-27T08:36:55+01:00"/><author><reference value="urn:uuid:6d9ebab7-ad08-47ff-9d3f-22bd77ea9530"/></author><title value="ERezeptAbgabedaten"/><section><title value="Apotheke"/><entry><reference value="urn:uuid:6d9ebab7-ad08-47ff-9d3f-22bd77ea9530"/></entry></section><section><title value="Abgabeinformationen"/><entry><reference value="urn:uuid:8ccc73a8-0c04-4582-b136-f7e7bde056d6"/></entry></section></Composition></resource></entry><entry><fullUrl value="urn:uuid:6d9ebab7-ad08-47ff-9d3f-22bd77ea9530"/><resource><Organization xmlns="http://hl7.org/fhir"><id value="6d9ebab7-ad08-47ff-9d3f-22bd77ea9530"/><meta><profile value="http://fhir.abda.de/eRezeptAbgabedaten/StructureDefinition/DAV-PKV-PR-ERP-Apotheke|1.2"/></meta><identifier><system value="http://fhir.de/sid/arge-ik/iknr"/><value value="374471434"/></identifier><name value="Apotheke Howard I. No"/><address><type value="physical"/><line value="Martin-Buber-Str. 583"><extension url="http://hl7.org/fhir/StructureDefinition/iso21090-ADXP-houseNumber"><valueString value="583"/></extension><extension url="http://hl7.org/fhir/StructureDefinition/iso21090-ADXP-streetName"><valueString value="Martin-Buber-Str."/></extension></line><city value="Naomibrunn"/><postalCode value="00863"/><country value="D"/></address></Organization></resource></entry><entry><fullUrl value="urn:uuid:e7ac506e-03da-47ea-9039-5ad65999d81f"/><resource><Invoice xmlns="http://hl7.org/fhir"><id value="e7ac506e-03da-47ea-9039-5ad65999d81f"/><meta><profile value="http://fhir.abda.de/eRezeptAbgabedaten/StructureDefinition/DAV-PKV-PR-ERP-Abrechnungszeilen|1.2"/></meta><status value="issued"/><type><coding><system value="http://fhir.abda.de/eRezeptAbgabedaten/CodeSystem/DAV-CS-ERP-InvoiceTyp"/><code value="Abrechnungszeilen"/></coding></type><lineItem><sequence value="1"/><chargeItemCodeableConcept><coding><system value="http://fhir.de/CodeSystem/ifa/pzn"/><code value="79235798"/></coding><text value="Gabamemib"/></chargeItemCodeableConcept><priceComponent><extension url="http://fhir.abda.de/eRezeptAbgabedaten/StructureDefinition/DAV-EX-ERP-KostenVersicherter"><extension url="Kategorie"><valueCodeableConcept><coding><system value="http://fhir.abda.de/eRezeptAbgabedaten/CodeSystem/DAV-PKV-CS-ERP-KostenVersicherterKategorie"/><code value="0"/></coding></valueCodeableConcept></extension><extension url="Kostenbetrag"><valueMoney><value value="156.33"/><currency value="EUR"/></valueMoney></extension></extension><extension url="http://fhir.abda.de/eRezeptAbgabedaten/StructureDefinition/DAV-EX-ERP-MwStSatz"><valueDecimal value="15.43"/></extension><type value="informational"/><factor value="1"/><amount><value value="386.95"/><currency value="EUR"/></amount></priceComponent></lineItem><totalGross><extension url="http://fhir.abda.de/eRezeptAbgabedaten/StructureDefinition/DAV-EX-ERP-Gesamtzuzahlung"><valueMoney><value value="156.33"/><currency value="EUR"/></valueMoney></extension><value value="386.95"/><currency value="EUR"/></totalGross></Invoice></resource></entry><entry><fullUrl value="urn:uuid:8ccc73a8-0c04-4582-b136-f7e7bde056d6"/><resource><MedicationDispense xmlns="http://hl7.org/fhir"><id value="8ccc73a8-0c04-4582-b136-f7e7bde056d6"/><meta><profile value="http://fhir.abda.de/eRezeptAbgabedaten/StructureDefinition/DAV-PKV-PR-ERP-Abgabeinformationen|1.2"/></meta><extension url="http://fhir.abda.de/eRezeptAbgabedaten/StructureDefinition/DAV-PKV-EX-ERP-AbrechnungsTyp"><valueCodeableConcept><coding><system value="http://fhir.abda.de/eRezeptAbgabedaten/CodeSystem/DAV-PKV-CS-ERP-AbrechnungsTyp"/><code value="1"/></coding></valueCodeableConcept></extension><extension url="http://fhir.abda.de/eRezeptAbgabedaten/StructureDefinition/DAV-EX-ERP-Abrechnungszeilen"><valueReference><reference value="urn:uuid:e7ac506e-03da-47ea-9039-5ad65999d81f"/></valueReference></extension><status value="completed"/><medicationCodeableConcept><coding><system value="http://terminology.hl7.org/CodeSystem/data-absent-reason"/><code value="not-applicable"/></coding></medicationCodeableConcept><performer><actor><reference value="urn:uuid:6d9ebab7-ad08-47ff-9d3f-22bd77ea9530"/></actor></performer><authorizingPrescription><identifier><system value="https://gematik.de/fhir/erp/NamingSystem/GEM_ERP_NS_PrescriptionId"/><value value="200.000.000.042.781.59"/></identifier></authorizingPrescription><type><coding><system value="http://fhir.abda.de/eRezeptAbgabedaten/CodeSystem/DAV-CS-ERP-MedicationDispenseTyp"/><code value="Abgabeinformationen"/></coding></type><whenHandedOver value="2023-11-27"/></MedicationDispense></resource></entry></Bundle>