<Bundle xmlns="http://hl7.org/fhir"><id value="f1909de6-7d21-443b-a2ae-230b9cb62f70"/><meta><lastUpdated value="2023-04-21T09:12:30.215+02:00"/><profile value="http://fhir.abda.de/eRezeptAbgabedaten/StructureDefinition/DAV-PKV-PR-ERP-AbgabedatenBundle|1.1"/></meta><identifier><system value="https://gematik.de/fhir/erp/NamingSystem/GEM_ERP_NS_PrescriptionId"/><value value="200.000.001.944.091.20"/></identifier><type value="document"/><timestamp value="2023-04-21T09:12:30.215+02:00"/><entry><fullUrl value="urn:uuid:02fb787d-9e84-4e01-aac4-84672eb48df2"/><resource><Composition xmlns="http://hl7.org/fhir"><id value="02fb787d-9e84-4e01-aac4-84672eb48df2"/><meta><profile value="http://fhir.abda.de/eRezeptAbgabedaten/StructureDefinition/DAV-PKV-PR-ERP-AbgabedatenComposition|1.1"/></meta><status value="final"/><type><coding><system value="http://fhir.abda.de/eRezeptAbgabedaten/CodeSystem/DAV-CS-ERP-CompositionTypes"/><code value="ERezeptAbgabedaten"/></coding></type><date value="2023-04-21T09:12:30+02:00"/><author><reference value="urn:uuid:52b55ac8-6990-43d9-8ce1-1e2a0f48c97b"/></author><title value="ERezeptAbgabedaten"/><section><title value="Apotheke"/><entry><reference value="urn:uuid:52b55ac8-6990-43d9-8ce1-1e2a0f48c97b"/></entry></section><section><title value="Abgabeinformationen"/><entry><reference value="urn:uuid:9964f5ce-64fd-43e9-a26b-094b327e1212"/></entry></section></Composition></resource></entry><entry><fullUrl value="urn:uuid:52b55ac8-6990-43d9-8ce1-1e2a0f48c97b"/><resource><Organization xmlns="http://hl7.org/fhir"><id value="52b55ac8-6990-43d9-8ce1-1e2a0f48c97b"/><meta><profile value="http://fhir.abda.de/eRezeptAbgabedaten/StructureDefinition/DAV-PKV-PR-ERP-Apotheke|1.1"/></meta><identifier><system value="http://fhir.de/sid/arge-ik/iknr"/><value value="156762843"/></identifier><name value="Apotheke Tad Pohl"/><address><type value="physical"/><line value="Lohrbergstr. 670"><extension url="http://hl7.org/fhir/StructureDefinition/iso21090-ADXP-houseNumber"><valueString value="670"/></extension><extension url="http://hl7.org/fhir/StructureDefinition/iso21090-ADXP-streetName"><valueString value="Lohrbergstr."/></extension></line><city value="Schön Melekdorf"/><postalCode value="21635"/><country value="D"/></address></Organization></resource></entry><entry><fullUrl value="urn:uuid:3a5f9e07-5838-4cd3-92a8-394c200d65de"/><resource><Invoice xmlns="http://hl7.org/fhir"><id value="3a5f9e07-5838-4cd3-92a8-394c200d65de"/><meta><profile value="http://fhir.abda.de/eRezeptAbgabedaten/StructureDefinition/DAV-PKV-PR-ERP-Abrechnungszeilen|1.1"/></meta><status value="issued"/><type><coding><system value="http://fhir.abda.de/eRezeptAbgabedaten/CodeSystem/DAV-CS-ERP-InvoiceTyp"/><code value="Abrechnungszeilen"/></coding></type><lineItem><sequence value="1"/><chargeItemCodeableConcept><coding><system value="http://fhir.de/CodeSystem/ifa/pzn"/><code value="49351580"/></coding></chargeItemCodeableConcept><priceComponent><extension url="http://fhir.abda.de/eRezeptAbgabedaten/StructureDefinition/DAV-EX-ERP-KostenVersicherter"><extension url="Kategorie"><valueCodeableConcept><coding><system value="http://fhir.abda.de/eRezeptAbgabedaten/CodeSystem/DAV-PKV-CS-ERP-KostenVersicherterKategorie"/><code value="0"/></coding></valueCodeableConcept></extension><extension url="Kostenbetrag"><valueMoney><value value="170.69"/><currency value="EUR"/></valueMoney></extension></extension><extension url="http://fhir.abda.de/eRezeptAbgabedaten/StructureDefinition/DAV-EX-ERP-MwStSatz"><valueDecimal value="23.36"/></extension><type value="informational"/><factor value="1"/><amount><value value="673.01"/><currency value="EUR"/></amount></priceComponent></lineItem><totalGross><extension url="http://fhir.abda.de/eRezeptAbgabedaten/StructureDefinition/DAV-EX-ERP-Gesamtzuzahlung"><valueMoney><value value="170.69"/><currency value="EUR"/></valueMoney></extension><value value="673.01"/><currency value="EUR"/></totalGross></Invoice></resource></entry><entry><fullUrl value="urn:uuid:9964f5ce-64fd-43e9-a26b-094b327e1212"/><resource><MedicationDispense xmlns="http://hl7.org/fhir"><id value="9964f5ce-64fd-43e9-a26b-094b327e1212"/><meta><profile value="http://fhir.abda.de/eRezeptAbgabedaten/StructureDefinition/DAV-PKV-PR-ERP-Abgabeinformationen|1.1"/></meta><extension url="http://fhir.abda.de/eRezeptAbgabedaten/StructureDefinition/DAV-PKV-EX-ERP-AbrechnungsTyp"><valueCodeableConcept><coding><system value="http://fhir.abda.de/eRezeptAbgabedaten/CodeSystem/DAV-PKV-CS-ERP-AbrechnungsTyp"/><code value="1"/></coding></valueCodeableConcept></extension><extension url="http://fhir.abda.de/eRezeptAbgabedaten/StructureDefinition/DAV-EX-ERP-Abrechnungszeilen"><valueReference><reference value="urn:uuid:3a5f9e07-5838-4cd3-92a8-394c200d65de"/></valueReference></extension><status value="completed"/><medicationCodeableConcept><coding><system value="http://terminology.hl7.org/CodeSystem/data-absent-reason"/><code value="not-applicable"/></coding></medicationCodeableConcept><performer><actor><reference value="urn:uuid:52b55ac8-6990-43d9-8ce1-1e2a0f48c97b"/></actor></performer><authorizingPrescription><identifier><system value="https://gematik.de/fhir/erp/NamingSystem/GEM_ERP_NS_PrescriptionId"/><value value="200.000.001.944.091.20"/></identifier></authorizingPrescription><type><coding><system value="http://fhir.abda.de/eRezeptAbgabedaten/CodeSystem/DAV-CS-ERP-MedicationDispenseTyp"/><code value="Abgabeinformationen"/></coding></type><whenHandedOver value="2023-04-21"/></MedicationDispense></resource></entry></Bundle>