<Bundle xmlns="http://hl7.org/fhir"><id value="3286df32-2a86-47f3-a5d0-132685cd23c9"/><meta><lastUpdated value="2024-02-08T19:15:36.148+01:00"/><profile value="http://fhir.abda.de/eRezeptAbgabedaten/StructureDefinition/DAV-PKV-PR-ERP-AbgabedatenBundle|1.2"/></meta><identifier><system value="https://gematik.de/fhir/erp/NamingSystem/GEM_ERP_NS_PrescriptionId"/><value value="200.000.002.096.531.55"/></identifier><type value="document"/><timestamp value="2024-02-08T19:15:36.148+01:00"/><entry><fullUrl value="urn:uuid:4d473ed6-cafc-49d0-8428-36cc0f37bd1e"/><resource><Composition xmlns="http://hl7.org/fhir"><id value="4d473ed6-cafc-49d0-8428-36cc0f37bd1e"/><meta><profile value="http://fhir.abda.de/eRezeptAbgabedaten/StructureDefinition/DAV-PKV-PR-ERP-AbgabedatenComposition|1.2"/></meta><status value="final"/><type><coding><system value="http://fhir.abda.de/eRezeptAbgabedaten/CodeSystem/DAV-CS-ERP-CompositionTypes"/><code value="ERezeptAbgabedaten"/></coding></type><date value="2024-02-08T19:15:36+01:00"/><author><reference value="urn:uuid:cf09aab6-0170-4741-8d28-a4450bc719d1"/></author><title value="ERezeptAbgabedaten"/><section><title value="Apotheke"/><entry><reference value="urn:uuid:cf09aab6-0170-4741-8d28-a4450bc719d1"/></entry></section><section><title value="Abgabeinformationen"/><entry><reference value="urn:uuid:af5f89fa-34d9-4d9a-a73f-9a77630bd368"/></entry></section></Composition></resource></entry><entry><fullUrl value="urn:uuid:cf09aab6-0170-4741-8d28-a4450bc719d1"/><resource><Organization xmlns="http://hl7.org/fhir"><id value="cf09aab6-0170-4741-8d28-a4450bc719d1"/><meta><profile value="http://fhir.abda.de/eRezeptAbgabedaten/StructureDefinition/DAV-PKV-PR-ERP-Apotheke|1.2"/></meta><identifier><system value="http://fhir.de/sid/arge-ik/iknr"/><value value="952829971"/></identifier><name value="Apotheke Trina Forest"/><address><type value="physical"/><line value="August-Kekulé-Str. 1"><extension url="http://hl7.org/fhir/StructureDefinition/iso21090-ADXP-houseNumber"><valueString value="1"/></extension><extension url="http://hl7.org/fhir/StructureDefinition/iso21090-ADXP-streetName"><valueString value="August-Kekulé-Str."/></extension></line><city value="Neu Arturburg"/><postalCode value="87540"/><country value="D"/></address></Organization></resource></entry><entry><fullUrl value="urn:uuid:acfefac5-1c84-4f5a-91d3-729db9e2bfcb"/><resource><Invoice xmlns="http://hl7.org/fhir"><id value="acfefac5-1c84-4f5a-91d3-729db9e2bfcb"/><meta><profile value="http://fhir.abda.de/eRezeptAbgabedaten/StructureDefinition/DAV-PKV-PR-ERP-Abrechnungszeilen|1.2"/></meta><status value="issued"/><type><coding><system value="http://fhir.abda.de/eRezeptAbgabedaten/CodeSystem/DAV-CS-ERP-InvoiceTyp"/><code value="Abrechnungszeilen"/></coding></type><lineItem><sequence value="1"/><chargeItemCodeableConcept><coding><system value="http://fhir.de/CodeSystem/ifa/pzn"/><code value="72297342"/></coding><text value="Erenamexital"/></chargeItemCodeableConcept><priceComponent><extension url="http://fhir.abda.de/eRezeptAbgabedaten/StructureDefinition/DAV-EX-ERP-KostenVersicherter"><extension url="Kategorie"><valueCodeableConcept><coding><system value="http://fhir.abda.de/eRezeptAbgabedaten/CodeSystem/DAV-PKV-CS-ERP-KostenVersicherterKategorie"/><code value="0"/></coding></valueCodeableConcept></extension><extension url="Kostenbetrag"><valueMoney><value value="18.27"/><currency value="EUR"/></valueMoney></extension></extension><extension url="http://fhir.abda.de/eRezeptAbgabedaten/StructureDefinition/DAV-EX-ERP-MwStSatz"><valueDecimal value="21.19"/></extension><type value="informational"/><factor value="1"/><amount><value value="94.36"/><currency value="EUR"/></amount></priceComponent></lineItem><lineItem><sequence value="2"/><chargeItemCodeableConcept><coding><system value="http://fhir.de/CodeSystem/ifa/pzn"/><code value="65968362"/></coding><text value="Busterid"/></chargeItemCodeableConcept><priceComponent><extension url="http://fhir.abda.de/eRezeptAbgabedaten/StructureDefinition/DAV-EX-ERP-KostenVersicherter"><extension url="Kategorie"><valueCodeableConcept><coding><system value="http://fhir.abda.de/eRezeptAbgabedaten/CodeSystem/DAV-PKV-CS-ERP-KostenVersicherterKategorie"/><code value="0"/></coding></valueCodeableConcept></extension><extension url="Kostenbetrag"><valueMoney><value value="42.80"/><currency value="EUR"/></valueMoney></extension></extension><extension url="http://fhir.abda.de/eRezeptAbgabedaten/StructureDefinition/DAV-EX-ERP-MwStSatz"><valueDecimal value="21.19"/></extension><type value="informational"/><factor value="1"/><amount><value value="45.67"/><currency value="EUR"/></amount></priceComponent></lineItem><lineItem><sequence value="3"/><chargeItemCodeableConcept><coding><system value="http://fhir.de/CodeSystem/ifa/pzn"/><code value="97909183"/></coding><text value="Betamital"/></chargeItemCodeableConcept><priceComponent><extension url="http://fhir.abda.de/eRezeptAbgabedaten/StructureDefinition/DAV-EX-ERP-KostenVersicherter"><extension url="Kategorie"><valueCodeableConcept><coding><system value="http://fhir.abda.de/eRezeptAbgabedaten/CodeSystem/DAV-PKV-CS-ERP-KostenVersicherterKategorie"/><code value="0"/></coding></valueCodeableConcept></extension><extension url="Kostenbetrag"><valueMoney><value value="51.92"/><currency value="EUR"/></valueMoney></extension></extension><extension url="http://fhir.abda.de/eRezeptAbgabedaten/StructureDefinition/DAV-EX-ERP-MwStSatz"><valueDecimal value="21.19"/></extension><type value="informational"/><factor value="1"/><amount><value value="320.48"/><currency value="EUR"/></amount></priceComponent></lineItem><lineItem><sequence value="4"/><chargeItemCodeableConcept><coding><system value="http://fhir.de/CodeSystem/ifa/pzn"/><code value="68191508"/></coding><text value="Fomimoan"/></chargeItemCodeableConcept><priceComponent><extension url="http://fhir.abda.de/eRezeptAbgabedaten/StructureDefinition/DAV-EX-ERP-KostenVersicherter"><extension url="Kategorie"><valueCodeableConcept><coding><system value="http://fhir.abda.de/eRezeptAbgabedaten/CodeSystem/DAV-PKV-CS-ERP-KostenVersicherterKategorie"/><code value="0"/></coding></valueCodeableConcept></extension><extension url="Kostenbetrag"><valueMoney><value value="223.70"/><currency value="EUR"/></valueMoney></extension></extension><extension url="http://fhir.abda.de/eRezeptAbgabedaten/StructureDefinition/DAV-EX-ERP-MwStSatz"><valueDecimal value="21.19"/></extension><type value="informational"/><factor value="1"/><amount><value value="857.33"/><currency value="EUR"/></amount></priceComponent></lineItem><lineItem><sequence value="5"/><chargeItemCodeableConcept><coding><system value="http://fhir.de/CodeSystem/ifa/pzn"/><code value="70093658"/></coding><text value="Fexamipin"/></chargeItemCodeableConcept><priceComponent><extension url="http://fhir.abda.de/eRezeptAbgabedaten/StructureDefinition/DAV-EX-ERP-KostenVersicherter"><extension url="Kategorie"><valueCodeableConcept><coding><system value="http://fhir.abda.de/eRezeptAbgabedaten/CodeSystem/DAV-PKV-CS-ERP-KostenVersicherterKategorie"/><code value="0"/></coding></valueCodeableConcept></extension><extension url="Kostenbetrag"><valueMoney><value value="34.19"/><currency value="EUR"/></valueMoney></extension></extension><extension url="http://fhir.abda.de/eRezeptAbgabedaten/StructureDefinition/DAV-EX-ERP-MwStSatz"><valueDecimal value="21.19"/></extension><type value="informational"/><factor value="1"/><amount><value value="58.43"/><currency value="EUR"/></amount></priceComponent></lineItem><totalGross><extension url="http://fhir.abda.de/eRezeptAbgabedaten/StructureDefinition/DAV-EX-ERP-Gesamtzuzahlung"><valueMoney><value value="370.88"/><currency value="EUR"/></valueMoney></extension><value value="1376.27"/><currency value="EUR"/></totalGross></Invoice></resource></entry><entry><fullUrl value="urn:uuid:af5f89fa-34d9-4d9a-a73f-9a77630bd368"/><resource><MedicationDispense xmlns="http://hl7.org/fhir"><id value="af5f89fa-34d9-4d9a-a73f-9a77630bd368"/><meta><profile value="http://fhir.abda.de/eRezeptAbgabedaten/StructureDefinition/DAV-PKV-PR-ERP-Abgabeinformationen|1.2"/></meta><extension url="http://fhir.abda.de/eRezeptAbgabedaten/StructureDefinition/DAV-PKV-EX-ERP-AbrechnungsTyp"><valueCodeableConcept><coding><system value="http://fhir.abda.de/eRezeptAbgabedaten/CodeSystem/DAV-PKV-CS-ERP-AbrechnungsTyp"/><code value="1"/></coding></valueCodeableConcept></extension><extension url="http://fhir.abda.de/eRezeptAbgabedaten/StructureDefinition/DAV-EX-ERP-Abrechnungszeilen"><valueReference><reference value="urn:uuid:acfefac5-1c84-4f5a-91d3-729db9e2bfcb"/></valueReference></extension><status value="completed"/><medicationCodeableConcept><coding><system value="http://terminology.hl7.org/CodeSystem/data-absent-reason"/><code value="not-applicable"/></coding></medicationCodeableConcept><performer><actor><reference value="urn:uuid:cf09aab6-0170-4741-8d28-a4450bc719d1"/></actor></performer><authorizingPrescription><identifier><system value="https://gematik.de/fhir/erp/NamingSystem/GEM_ERP_NS_PrescriptionId"/><value value="200.000.002.096.531.55"/></identifier></authorizingPrescription><type><coding><system value="http://fhir.abda.de/eRezeptAbgabedaten/CodeSystem/DAV-CS-ERP-MedicationDispenseTyp"/><code value="Abgabeinformationen"/></coding></type><whenHandedOver value="2024-02-08"/></MedicationDispense></resource></entry></Bundle>