<Bundle xmlns="http://hl7.org/fhir"><id value="d2425e58-0f54-4961-9538-4edce471f729"/><meta><lastUpdated value="2023-04-21T09:39:06.611+02:00"/><profile value="https://fhir.kbv.de/StructureDefinition/KBV_PR_ERP_Bundle|1.0.2"/></meta><identifier><system value="https://gematik.de/fhir/NamingSystem/PrescriptionID"/><value value="200.000.000.015.303.43"/></identifier><type value="document"/><timestamp value="2023-04-21T09:39:06.611+02:00"/><entry><fullUrl value="https://pvs.gematik.de/fhir/Composition/2c0b2b0d-3e50-42a8-9b43-91dbaa0608a6"/><resource><Composition xmlns="http://hl7.org/fhir"><id value="2c0b2b0d-3e50-42a8-9b43-91dbaa0608a6"/><meta><profile value="https://fhir.kbv.de/StructureDefinition/KBV_PR_ERP_Composition|1.0.2"/></meta><extension url="https://fhir.kbv.de/StructureDefinition/KBV_EX_FOR_PKV_Tariff"><valueCoding><system value="https://fhir.kbv.de/CodeSystem/KBV_CS_SFHIR_KBV_PKV_TARIFF"/><code value="03"/></valueCoding></extension><extension url="https://fhir.kbv.de/StructureDefinition/KBV_EX_FOR_Legal_basis"><valueCoding><system value="https://fhir.kbv.de/CodeSystem/KBV_CS_SFHIR_KBV_STATUSKENNZEICHEN"/><code value="00"/></valueCoding></extension><status value="final"/><type><coding><system value="https://fhir.kbv.de/CodeSystem/KBV_CS_SFHIR_KBV_FORMULAR_ART"/><code value="e16A"/></coding></type><subject><reference value="Patient/c52ea215-a3a8-4217-89b0-5cf9556ac451"/></subject><date value="2023-04-21T09:39:06+02:00"/><author><reference value="Practitioner/d4c0f0d7-9441-47a4-b769-420097dae278"/><type value="Practitioner"/></author><author><type value="Device"/><identifier><system value="https://fhir.kbv.de/NamingSystem/KBV_NS_FOR_Pruefnummer"/><value value="GEMATIK/410/2109/36/123"/></identifier></author><title value="elektronische Arzneimittelverordnung"/><custodian><reference value="Organization/262c4e8d-0a14-49b3-80f5-a6d7447d47e9"/></custodian><section><code><coding><system value="https://fhir.kbv.de/CodeSystem/KBV_CS_ERP_Section_Type"/><code value="Coverage"/></coding></code><entry><reference value="Coverage/9a68ce43-8732-4e99-b182-6fe8a54d9ea4"/></entry></section><section><code><coding><system value="https://fhir.kbv.de/CodeSystem/KBV_CS_ERP_Section_Type"/><code value="Prescription"/></coding></code><entry><reference value="MedicationRequest/326a2526-4b2a-471d-a186-70f9c4fecac6"/></entry></section></Composition></resource></entry><entry><fullUrl value="https://pvs.gematik.de/fhir/MedicationRequest/326a2526-4b2a-471d-a186-70f9c4fecac6"/><resource><MedicationRequest xmlns="http://hl7.org/fhir"><id value="326a2526-4b2a-471d-a186-70f9c4fecac6"/><meta><profile value="https://fhir.kbv.de/StructureDefinition/KBV_PR_ERP_Prescription|1.0.2"/></meta><extension url="https://fhir.kbv.de/StructureDefinition/KBV_EX_ERP_BVG"><valueBoolean value="false"/></extension><extension url="https://fhir.kbv.de/StructureDefinition/KBV_EX_ERP_EmergencyServicesFee"><valueBoolean value="false"/></extension><extension url="https://fhir.kbv.de/StructureDefinition/KBV_EX_ERP_Multiple_Prescription"><extension url="Kennzeichen"><valueBoolean value="false"/></extension></extension><extension url="https://fhir.kbv.de/StructureDefinition/KBV_EX_ERP_StatusCoPayment"><valueCoding><system value="https://fhir.kbv.de/CodeSystem/KBV_CS_ERP_StatusCoPayment"/><code value="0"/></valueCoding></extension><status value="active"/><intent value="order"/><medicationReference><reference value="Medication/f9478ee1-2db5-404b-8ced-0ae5057c988a"/></medicationReference><subject><reference value="Patient/c52ea215-a3a8-4217-89b0-5cf9556ac451"/></subject><authoredOn value="2023-04-21"/><requester><reference value="Practitioner/d4c0f0d7-9441-47a4-b769-420097dae278"/></requester><insurance><reference value="Coverage/9a68ce43-8732-4e99-b182-6fe8a54d9ea4"/></insurance><dosageInstruction><extension url="https://fhir.kbv.de/StructureDefinition/KBV_EX_ERP_DosageFlag"><valueBoolean value="true"/></extension><text value="1-0-0-0"/></dosageInstruction><dispenseRequest><quantity><value value="1"/><system value="http://unitsofmeasure.org"/><code value="{Package}"/></quantity></dispenseRequest><substitution><allowedBoolean value="true"/></substitution></MedicationRequest></resource></entry><entry><fullUrl value="https://pvs.gematik.de/fhir/Medication/f9478ee1-2db5-404b-8ced-0ae5057c988a"/><resource><Medication xmlns="http://hl7.org/fhir"><id value="f9478ee1-2db5-404b-8ced-0ae5057c988a"/><meta><profile value="https://fhir.kbv.de/StructureDefinition/KBV_PR_ERP_Medication_PZN|1.0.2"/></meta><extension url="https://fhir.kbv.de/StructureDefinition/KBV_EX_ERP_Medication_Category"><valueCoding><system value="https://fhir.kbv.de/CodeSystem/KBV_CS_ERP_Medication_Category"/><code value="00"/></valueCoding></extension><extension url="https://fhir.kbv.de/StructureDefinition/KBV_EX_ERP_Medication_Vaccine"><valueBoolean value="false"/></extension><extension url="http://fhir.de/StructureDefinition/normgroesse"><valueCode value="NB"/></extension><code><coding><system value="http://fhir.de/CodeSystem/ifa/pzn"/><code value="12345678"/></coding><text value="Schmerzmittel"/></code><form><coding><system value="https://fhir.kbv.de/CodeSystem/KBV_CS_SFHIR_KBV_DARREICHUNGSFORM"/><code value="TAB"/></coding></form><amount><numerator><value value="1"/><unit value="Stk"/></numerator><denominator><value value="1"/></denominator></amount></Medication></resource></entry><entry><fullUrl value="https://pvs.gematik.de/fhir/Patient/c52ea215-a3a8-4217-89b0-5cf9556ac451"/><resource><Patient xmlns="http://hl7.org/fhir"><id value="c52ea215-a3a8-4217-89b0-5cf9556ac451"/><meta><profile value="https://fhir.kbv.de/StructureDefinition/KBV_PR_FOR_Patient|1.0.3"/></meta><identifier><type><coding><system value="http://fhir.de/CodeSystem/identifier-type-de-basis"/><code value="PKV"/></coding></type><system value="http://www.acme.com/identifiers/patient"/><value value="X110465770"/><assigner><reference value="Organization/ba9d36e9-5522-4e8b-8507-6b9430d05fe2"/><display value="KOA Nordbaden"/></assigner></identifier><name><use value="official"/><family value="Angermänn"/><given value="Günther"/></name><birthDate value="1968-03-10"/><address><type value="both"/><line value="Köpenicker Str. 46a"><extension url="http://hl7.org/fhir/StructureDefinition/iso21090-ADXP-houseNumber"><valueString value="46a"/></extension><extension url="http://hl7.org/fhir/StructureDefinition/iso21090-ADXP-streetName"><valueString value="Köpenicker Str."/></extension></line><city value="Kohrtland"/><postalCode value="49671"/><country value="D"/></address></Patient></resource></entry><entry><fullUrl value="https://pvs.gematik.de/fhir/Organization/262c4e8d-0a14-49b3-80f5-a6d7447d47e9"/><resource><Organization xmlns="http://hl7.org/fhir"><id value="262c4e8d-0a14-49b3-80f5-a6d7447d47e9"/><meta><profile value="https://fhir.kbv.de/StructureDefinition/KBV_PR_FOR_Organization|1.0.3"/></meta><identifier><type><coding><system value="http://terminology.hl7.org/CodeSystem/v2-0203"/><code value="BSNR"/></coding></type><system value="https://fhir.kbv.de/NamingSystem/KBV_NS_Base_BSNR"/><value value="710156377"/></identifier><name value="Arztpraxis Schraßer"/><telecom><system value="phone"/><value value="+49-249-9529448"/></telecom><telecom><system value="email"/><value value="tommy.hoffmann@meier.info"/></telecom><address><type value="both"/><line value="Ferdinand-Lassalle-Str. 93c"><extension url="http://hl7.org/fhir/StructureDefinition/iso21090-ADXP-houseNumber"><valueString value="93c"/></extension><extension url="http://hl7.org/fhir/StructureDefinition/iso21090-ADXP-streetName"><valueString value="Ferdinand-Lassalle-Str."/></extension></line><city value="Bockdorf"/><postalCode value="05769"/><country value="D"/></address></Organization></resource></entry><entry><fullUrl value="https://pvs.gematik.de/fhir/Coverage/9a68ce43-8732-4e99-b182-6fe8a54d9ea4"/><resource><Coverage xmlns="http://hl7.org/fhir"><id value="9a68ce43-8732-4e99-b182-6fe8a54d9ea4"/><meta><profile value="https://fhir.kbv.de/StructureDefinition/KBV_PR_FOR_Coverage|1.0.3"/></meta><extension url="http://fhir.de/StructureDefinition/gkv/besondere-personengruppe"><valueCoding><system value="https://fhir.kbv.de/CodeSystem/KBV_CS_SFHIR_KBV_PERSONENGRUPPE"/><code value="00"/></valueCoding></extension><extension url="http://fhir.de/StructureDefinition/gkv/dmp-kennzeichen"><valueCoding><system value="https://fhir.kbv.de/CodeSystem/KBV_CS_SFHIR_KBV_DMP"/><code value="00"/></valueCoding></extension><extension url="http://fhir.de/StructureDefinition/gkv/wop"><valueCoding><system value="https://fhir.kbv.de/CodeSystem/KBV_CS_SFHIR_ITA_WOP"/><code value="02"/></valueCoding></extension><extension url="http://fhir.de/StructureDefinition/gkv/versichertenart"><valueCoding><system value="https://fhir.kbv.de/CodeSystem/KBV_CS_SFHIR_KBV_VERSICHERTENSTATUS"/><code value="1"/></valueCoding></extension><status value="active"/><type><coding><system value="http://fhir.de/CodeSystem/versicherungsart-de-basis"/><code value="PKV"/></coding></type><beneficiary><reference value="Patient/d1ebca61-aa93-4572-9bb4-aa9c9d3ea790"/></beneficiary><payor><identifier><system value="http://fhir.de/NamingSystem/arge-ik/iknr"/><value value="046752872"/></identifier><display value="Künstler-Krankenkasse Nordwürttemberg"/></payor></Coverage></resource></entry><entry><fullUrl value="https://pvs.gematik.de/fhir/Practitioner/d4c0f0d7-9441-47a4-b769-420097dae278"/><resource><Practitioner xmlns="http://hl7.org/fhir"><id value="d4c0f0d7-9441-47a4-b769-420097dae278"/><meta><profile value="https://fhir.kbv.de/StructureDefinition/KBV_PR_FOR_Practitioner|1.0.3"/></meta><identifier><type><coding><system value="http://terminology.hl7.org/CodeSystem/v2-0203"/><code value="LANR"/></coding></type><system value="https://fhir.kbv.de/NamingSystem/KBV_NS_Base_ANR"/><value value="288585653"/></identifier><name><use value="official"/><family value="Schraßer"/><given value="Dr."/><prefix value="Dr."><extension url="http://hl7.org/fhir/StructureDefinition/iso21090-EN-qualifier"><valueCode value="AC"/></extension></prefix></name><qualification><code><coding><system value="https://fhir.kbv.de/CodeSystem/KBV_CS_FOR_Qualification_Type"/><code value="00"/></coding></code></qualification><qualification><code><text value="Super-Facharzt für alles Mögliche"/></code></qualification></Practitioner></resource></entry><entry><fullUrl value="https://pvs.gematik.de/fhir/Organization/ba9d36e9-5522-4e8b-8507-6b9430d05fe2"/><resource><Organization xmlns="http://hl7.org/fhir"><id value="ba9d36e9-5522-4e8b-8507-6b9430d05fe2"/><meta><profile value="https://fhir.kbv.de/StructureDefinition/KBV_PR_FOR_Organization|1.0.3"/></meta><identifier><type><coding><system value="http://terminology.hl7.org/CodeSystem/v2-0203"/><code value="XX"/></coding></type><system value="http://fhir.de/NamingSystem/arge-ik/iknr"/><value value="257930865"/></identifier><name value="KOA Nordbaden"/><telecom><system value="phone"/><value value="+49-5696-29955092"/></telecom><address><type value="both"/><line value="Spreestr. 05"><extension url="http://hl7.org/fhir/StructureDefinition/iso21090-ADXP-houseNumber"><valueString value="05"/></extension><extension url="http://hl7.org/fhir/StructureDefinition/iso21090-ADXP-streetName"><valueString value="Spreestr."/></extension></line><city value="Abramovicfeld"/><postalCode value="06684"/><country value="D"/></address></Organization></resource></entry></Bundle>