<Bundle xmlns="http://hl7.org/fhir"><id value="b98c6381-921b-4e80-a45c-0b4b285f85ac"/><meta><lastUpdated value="2023-03-16T12:54:18.634+01:00"/><profile value="https://fhir.kbv.de/StructureDefinition/KBV_PR_ERP_Bundle|1.0.2"/></meta><identifier><system value="https://gematik.de/fhir/NamingSystem/PrescriptionID"/><value value="200.000.000.011.935.59"/></identifier><type value="document"/><timestamp value="2023-03-16T12:54:18.634+01:00"/><entry><fullUrl value="https://pvs.gematik.de/fhir/Composition/d0bc454f-ba2e-48c8-8e55-01897ee72332"/><resource><Composition xmlns="http://hl7.org/fhir"><id value="d0bc454f-ba2e-48c8-8e55-01897ee72332"/><meta><profile value="https://fhir.kbv.de/StructureDefinition/KBV_PR_ERP_Composition|1.0.2"/></meta><extension url="https://fhir.kbv.de/StructureDefinition/KBV_EX_FOR_PKV_Tariff"><valueCoding><system value="https://fhir.kbv.de/CodeSystem/KBV_CS_SFHIR_KBV_PKV_TARIFF"/><code value="03"/></valueCoding></extension><extension url="https://fhir.kbv.de/StructureDefinition/KBV_EX_FOR_Legal_basis"><valueCoding><system value="https://fhir.kbv.de/CodeSystem/KBV_CS_SFHIR_KBV_STATUSKENNZEICHEN"/><code value="00"/></valueCoding></extension><status value="final"/><type><coding><system value="https://fhir.kbv.de/CodeSystem/KBV_CS_SFHIR_KBV_FORMULAR_ART"/><code value="e16A"/></coding></type><subject><reference value="Patient/96f1dedd-69e0-4ae7-91c7-a44620121d80"/></subject><date value="2023-03-16T12:54:18+01:00"/><author><reference value="Practitioner/0a95a58e-c16a-4b8c-9e2d-f50a37f9727b"/><type value="Practitioner"/></author><author><type value="Device"/><identifier><system value="https://fhir.kbv.de/NamingSystem/KBV_NS_FOR_Pruefnummer"/><value value="GEMATIK/410/2109/36/123"/></identifier></author><title value="elektronische Arzneimittelverordnung"/><custodian><reference value="Organization/1284c6a3-2212-4663-975d-64ef5fe8843e"/></custodian><section><code><coding><system value="https://fhir.kbv.de/CodeSystem/KBV_CS_ERP_Section_Type"/><code value="Coverage"/></coding></code><entry><reference value="Coverage/4648d5ed-eb53-44e3-9690-bd5493b23953"/></entry></section><section><code><coding><system value="https://fhir.kbv.de/CodeSystem/KBV_CS_ERP_Section_Type"/><code value="Prescription"/></coding></code><entry><reference value="MedicationRequest/0c8755f0-3d30-488e-b410-055c55e4a006"/></entry></section></Composition></resource></entry><entry><fullUrl value="https://pvs.gematik.de/fhir/MedicationRequest/0c8755f0-3d30-488e-b410-055c55e4a006"/><resource><MedicationRequest xmlns="http://hl7.org/fhir"><id value="0c8755f0-3d30-488e-b410-055c55e4a006"/><meta><profile value="https://fhir.kbv.de/StructureDefinition/KBV_PR_ERP_Prescription|1.0.2"/></meta><extension url="https://fhir.kbv.de/StructureDefinition/KBV_EX_ERP_BVG"><valueBoolean value="false"/></extension><extension url="https://fhir.kbv.de/StructureDefinition/KBV_EX_ERP_EmergencyServicesFee"><valueBoolean value="false"/></extension><extension url="https://fhir.kbv.de/StructureDefinition/KBV_EX_ERP_Multiple_Prescription"><extension url="Kennzeichen"><valueBoolean value="false"/></extension></extension><extension url="https://fhir.kbv.de/StructureDefinition/KBV_EX_ERP_StatusCoPayment"><valueCoding><system value="https://fhir.kbv.de/CodeSystem/KBV_CS_ERP_StatusCoPayment"/><code value="0"/></valueCoding></extension><status value="active"/><intent value="order"/><medicationReference><reference value="Medication/e619d1e2-70b5-4edc-b544-7c368c562a1f"/></medicationReference><subject><reference value="Patient/96f1dedd-69e0-4ae7-91c7-a44620121d80"/></subject><authoredOn value="2023-03-16"/><requester><reference value="Practitioner/0a95a58e-c16a-4b8c-9e2d-f50a37f9727b"/></requester><insurance><reference value="Coverage/4648d5ed-eb53-44e3-9690-bd5493b23953"/></insurance><dosageInstruction><extension url="https://fhir.kbv.de/StructureDefinition/KBV_EX_ERP_DosageFlag"><valueBoolean value="true"/></extension><text value="1-0-0-0"/></dosageInstruction><dispenseRequest><quantity><value value="1"/><system value="http://unitsofmeasure.org"/><code value="{Package}"/></quantity></dispenseRequest><substitution><allowedBoolean value="true"/></substitution></MedicationRequest></resource></entry><entry><fullUrl value="https://pvs.gematik.de/fhir/Medication/e619d1e2-70b5-4edc-b544-7c368c562a1f"/><resource><Medication xmlns="http://hl7.org/fhir"><id value="e619d1e2-70b5-4edc-b544-7c368c562a1f"/><meta><profile value="https://fhir.kbv.de/StructureDefinition/KBV_PR_ERP_Medication_PZN|1.0.2"/></meta><extension url="https://fhir.kbv.de/StructureDefinition/KBV_EX_ERP_Medication_Category"><valueCoding><system value="https://fhir.kbv.de/CodeSystem/KBV_CS_ERP_Medication_Category"/><code value="00"/></valueCoding></extension><extension url="https://fhir.kbv.de/StructureDefinition/KBV_EX_ERP_Medication_Vaccine"><valueBoolean value="false"/></extension><extension url="http://fhir.de/StructureDefinition/normgroesse"><valueCode value="NB"/></extension><code><coding><system value="http://fhir.de/CodeSystem/ifa/pzn"/><code value="12345678"/></coding><text value="Schmerzmittel"/></code><form><coding><system value="https://fhir.kbv.de/CodeSystem/KBV_CS_SFHIR_KBV_DARREICHUNGSFORM"/><code value="TAB"/></coding></form><amount><numerator><value value="1"/><unit value="Stk"/></numerator><denominator><value value="1"/></denominator></amount></Medication></resource></entry><entry><fullUrl value="https://pvs.gematik.de/fhir/Patient/96f1dedd-69e0-4ae7-91c7-a44620121d80"/><resource><Patient xmlns="http://hl7.org/fhir"><id value="96f1dedd-69e0-4ae7-91c7-a44620121d80"/><meta><profile value="https://fhir.kbv.de/StructureDefinition/KBV_PR_FOR_Patient|1.0.3"/></meta><identifier><type><coding><system value="http://fhir.de/CodeSystem/identifier-type-de-basis"/><code value="PKV"/></coding></type><system value="http://www.acme.com/identifiers/patient"/><value value="X110465770"/><assigner><reference value="Organization/88ae3d0e-fff8-411d-a6c3-4529a67c9130"/><display value="Künstler-Krankenkasse Baden-Württemberg"/></assigner></identifier><name><use value="official"/><family value="Angermänn"/><given value="Günther"/></name><birthDate value="1996-07-17"/><address><type value="both"/><line value="Löfflerstr. 1"><extension url="http://hl7.org/fhir/StructureDefinition/iso21090-ADXP-houseNumber"><valueString value="1"/></extension><extension url="http://hl7.org/fhir/StructureDefinition/iso21090-ADXP-streetName"><valueString value="Löfflerstr."/></extension></line><city value="Krabbehagen"/><postalCode value="35494"/><country value="D"/></address></Patient></resource></entry><entry><fullUrl value="https://pvs.gematik.de/fhir/Organization/1284c6a3-2212-4663-975d-64ef5fe8843e"/><resource><Organization xmlns="http://hl7.org/fhir"><id value="1284c6a3-2212-4663-975d-64ef5fe8843e"/><meta><profile value="https://fhir.kbv.de/StructureDefinition/KBV_PR_FOR_Organization|1.0.3"/></meta><identifier><type><coding><system value="http://terminology.hl7.org/CodeSystem/v2-0203"/><code value="BSNR"/></coding></type><system value="https://fhir.kbv.de/NamingSystem/KBV_NS_Base_BSNR"/><value value="833357250"/></identifier><name value="Arztpraxis Schraßer"/><telecom><system value="phone"/><value value="+49-721-4125817"/></telecom><telecom><system value="email"/><value value="tamia.hommel@xn--hber-loa.info"/></telecom><address><type value="both"/><line value="Karl-Jaspers-Str. 97"><extension url="http://hl7.org/fhir/StructureDefinition/iso21090-ADXP-houseNumber"><valueString value="97"/></extension><extension url="http://hl7.org/fhir/StructureDefinition/iso21090-ADXP-streetName"><valueString value="Karl-Jaspers-Str."/></extension></line><city value="Bauerdorf"/><postalCode value="62999"/><country value="D"/></address></Organization></resource></entry><entry><fullUrl value="https://pvs.gematik.de/fhir/Coverage/4648d5ed-eb53-44e3-9690-bd5493b23953"/><resource><Coverage xmlns="http://hl7.org/fhir"><id value="4648d5ed-eb53-44e3-9690-bd5493b23953"/><meta><profile value="https://fhir.kbv.de/StructureDefinition/KBV_PR_FOR_Coverage|1.0.3"/></meta><extension url="http://fhir.de/StructureDefinition/gkv/besondere-personengruppe"><valueCoding><system value="https://fhir.kbv.de/CodeSystem/KBV_CS_SFHIR_KBV_PERSONENGRUPPE"/><code value="00"/></valueCoding></extension><extension url="http://fhir.de/StructureDefinition/gkv/dmp-kennzeichen"><valueCoding><system value="https://fhir.kbv.de/CodeSystem/KBV_CS_SFHIR_KBV_DMP"/><code value="00"/></valueCoding></extension><extension url="http://fhir.de/StructureDefinition/gkv/wop"><valueCoding><system value="https://fhir.kbv.de/CodeSystem/KBV_CS_SFHIR_ITA_WOP"/><code value="62"/></valueCoding></extension><extension url="http://fhir.de/StructureDefinition/gkv/versichertenart"><valueCoding><system value="https://fhir.kbv.de/CodeSystem/KBV_CS_SFHIR_KBV_VERSICHERTENSTATUS"/><code value="1"/></valueCoding></extension><status value="active"/><type><coding><system value="http://fhir.de/CodeSystem/versicherungsart-de-basis"/><code value="PKV"/></coding></type><beneficiary><reference value="Patient/5911e213-a572-4df3-afd7-e467d429ab18"/></beneficiary><payor><identifier><system value="http://fhir.de/NamingSystem/arge-ik/iknr"/><value value="066439292"/></identifier><display value="Künstler-Krankenkasse Mecklenburg-Vorpommern"/></payor></Coverage></resource></entry><entry><fullUrl value="https://pvs.gematik.de/fhir/Practitioner/0a95a58e-c16a-4b8c-9e2d-f50a37f9727b"/><resource><Practitioner xmlns="http://hl7.org/fhir"><id value="0a95a58e-c16a-4b8c-9e2d-f50a37f9727b"/><meta><profile value="https://fhir.kbv.de/StructureDefinition/KBV_PR_FOR_Practitioner|1.0.3"/></meta><identifier><type><coding><system value="http://terminology.hl7.org/CodeSystem/v2-0203"/><code value="LANR"/></coding></type><system value="https://fhir.kbv.de/NamingSystem/KBV_NS_Base_ANR"/><value value="406466656"/></identifier><name><use value="official"/><family value="Schraßer"/><given value="Dr."/><prefix value="Dr."><extension url="http://hl7.org/fhir/StructureDefinition/iso21090-EN-qualifier"><valueCode value="AC"/></extension></prefix></name><qualification><code><coding><system value="https://fhir.kbv.de/CodeSystem/KBV_CS_FOR_Qualification_Type"/><code value="00"/></coding></code></qualification><qualification><code><text value="Super-Facharzt für alles Mögliche"/></code></qualification></Practitioner></resource></entry><entry><fullUrl value="https://pvs.gematik.de/fhir/Organization/88ae3d0e-fff8-411d-a6c3-4529a67c9130"/><resource><Organization xmlns="http://hl7.org/fhir"><id value="88ae3d0e-fff8-411d-a6c3-4529a67c9130"/><meta><profile value="https://fhir.kbv.de/StructureDefinition/KBV_PR_FOR_Organization|1.0.3"/></meta><identifier><type><coding><system value="http://terminology.hl7.org/CodeSystem/v2-0203"/><code value="XX"/></coding></type><system value="http://fhir.de/NamingSystem/arge-ik/iknr"/><value value="336438124"/></identifier><name value="Künstler-Krankenkasse Baden-Württemberg"/><telecom><system value="phone"/><value value="+49-7764-02093605"/></telecom><address><type value="both"/><line value="Kalkstr. 94b"><extension url="http://hl7.org/fhir/StructureDefinition/iso21090-ADXP-houseNumber"><valueString value="94b"/></extension><extension url="http://hl7.org/fhir/StructureDefinition/iso21090-ADXP-streetName"><valueString value="Kalkstr."/></extension></line><city value="Karimfeld"/><postalCode value="71587"/><country value="D"/></address></Organization></resource></entry></Bundle>